datetime,epoch_ms,ts_millis,mpu_id,ax,ay,az,gx,gy,gz
2026-05-19T10:46:00.834150,,,,,,,,,
NTP_NOT_SET,,15107,1,0.10107,0.20117,-0.90552,-0.26,1.13,-0.45
NTP_NOT_SET,,15107,2,-0.40747,-0.83008,0.30396,-1.267,0.687,0.656
NTP_NOT_SET,,15307,1,0.10327,0.19897,-0.90698,-0.473,1.344,-0.71
NTP_NOT_SET,,15307,2,-0.40552,-0.83252,0.30005,-1.221,0.84,0.489
NTP_NOT_SET,,15507,1,0.10303,0.19995,-0.91577,-0.473,1.015,-0.336
NTP_NOT_SET,,15507,2,-0.40503,-0.8291,0.29858,-1.405,0.573,0.443
NTP_NOT_SET,,15707,1,0.10742,0.20215,-0.90332,-0.26,1.191,-0.824
NTP_NOT_SET,,15707,2,-0.40625,-0.82861,0.29565,-1.351,0.282,0.496
NTP_NOT_SET,,15907,1,0.10571,0.19873,-0.89648,-0.244,1.374,-0.344
NTP_NOT_SET,,15907,2,-0.40332,-0.83545,0.30811,-1.397,0.55,0.496
NTP_NOT_SET,,16107,1,0.10156,0.19849,-0.91187,-0.443,1.534,-0.649
NTP_NOT_SET,,16107,2,-0.40356,-0.8269,0.30615,-1.565,0.718,0.595
NTP_NOT_SET,,16307,1,0.09985,0.19971,-0.90308,-0.405,1.023,-0.282
NTP_NOT_SET,,16307,2,-0.40332,-0.83618,0.29907,-1.115,0.42,0.427
NTP_NOT_SET,,16507,1,0.10767,0.19824,-0.90186,-0.176,1.107,-0.58
NTP_NOT_SET,,16507,2,-0.40283,-0.83521,0.29468,-1.298,0.519,0.496
NTP_NOT_SET,,16707,1,0.09766,0.20044,-0.89966,-0.42,1.015,-0.519
NTP_NOT_SET,,16707,2,-0.40112,-0.8374,0.29712,-1.053,0.656,0.595
NTP_NOT_SET,,16907,1,0.10547,0.20166,-0.90649,-0.26,1.153,-0.756
NTP_NOT_SET,,16907,2,-0.40894,-0.83691,0.29688,-1.427,0.763,0.626
NTP_NOT_SET,,17107,1,0.10x327,0.20142,-0.90381,-0.244,0.992,-0.29
NTP_NOT_SET,,17107,2,-0.40381,-0.8313,0.29663,-1.29,0.718,0.756
NTP_NOT_SET,,17307,1,0.09766,0.2002,-0.90234,-0.092,1.305,-0.496
NTP_NOT_SET,,17307,2,-0.39746,-0.83032,0.29028,-1.275,0.664,0.466
NTP_NOT_SET,,17507,1,0.10693,0.19897,-0.91528,-0.328,1.214,-0.443
NTP_NOT_SET,,17507,2,-0.40576,-0.83716,0.30518,-1.298,0.534,0.641
NTP_NOT_SET,,17707,1,0.10962,0.20117,-0.89038,-0.191,1.084,-0.595
NTP_NOT_SET,,17707,2,-0.40723,-0.83252,0.30078,-1.374,0.71,0.573
NTP_NOT_SET,,17907,1,0.10742,0.19995,-0.90234,-0.305,0.947,-0.504
NTP_NOT_SET,,17907,2,-0.40845,-0.82813,0.29785,-1.191,0.626,0.656
NTP_NOT_SET,,18107,1,0.10327,0.19604,-0.90161,-0.023,1.13,-0.435
NTP_NOT_SET,,18107,2,-0.40308,-0.83545,0.30566,-1.405,0.527,0.611
NTP_NOT_SET,,18340,1,0.11182,0.19629,-0.90918,-0.511,1.244,-0.305
NTP_NOT_SET,,18340,2,-0.4021,-0.83545,0.29614,-1.298,0.519,0.641
NTP_NOT_SET,,18540,1,0.10718,0.20483,-0.89673,-0.397,1.305,-0.687
NTP_NOT_SET,,18540,2,-0.40356,-0.83496,0.29858,-1.13,0.641,0.397
NTP_NOT_SET,,18740,1,0.10254,0.20996,-0.89111,-0.481,1.122,-0.298
NTP_NOT_SET,,18740,2,-0.40454,-0.83276,0.29492,-1.374,0.634,0.504
NTP_NOT_SET,,18940,1,0.10645,0.19849,-0.89917,-0.214,1.137,-0.481
NTP_NOT_SET,,18940,2,-0.40259,-0.83398,0.29614,-1.29,0.641,0.557
NTP_NOT_SET,,19140,1,0.1084,0.19604,-0.91479,-0.359,1.115,-0.519
NTP_NOT_SET,,19140,2,-0.40894,-0.83643,0.30737,-1.443,0.611,0.603
NTP_NOT_SET,,19340,1,0.09521,0.19727,-0.90991,-0.252,1.305,-0.519
NTP_NOT_SET,,19340,2,-0.39844,-0.8313,0.29663,-1.275,0.611,0.573
NTP_NOT_SET,,19540,1,0.0957,0.20215,-0.93115,-3.939,3.992,-0.42
NTP_NOT_SET,,19540,2,-0.45947,-0.84106,0.40747,-1.542,43.015,-23.542
NTP_NOT_SET,,19740,1,0.11011,0.18628,-0.9043,-14.137,-3.954,-10.527
NTP_NOT_SET,,19740,2,-0.68115,-0.92944,0.32861,25.992,-87.962,-86.992
NTP_NOT_SET,,19940,1,0.13281,0.18115,-0.91333,-10.145,-2.336,4.901
NTP_NOT_SET,,19940,2,-0.35449,-0.82446,0.37476,20.679,-28.176,-31.84
NTP_NOT_SET,,20140,1,0.11279,0.18188,-0.91846,9.328,1.344,-0.023
NTP_NOT_SET,,20140,2,-0.34351,-0.8147,0.36011,-32.603,30.115,28.198
NTP_NOT_SET,,20340,1,0.11987,0.18359,-0.92114,-4.214,1.298,-1.046
NTP_NOT_SET,,20340,2,-0.28979,-0.83594,0.37036,-2.672,3.634,2.916
NTP_NOT_SET,,20540,1,0.10864,0.18457,-0.89966,-3.336,0.626,-0.771
NTP_NOT_SET,,20540,2,-0.29126,-0.84644,0.45801,4.878,-9.634,
NTP_NOT_SET,,20740,1,0.11108,0.19214,-0.88037,0.985,1.244,0.527
2026-05-19T10:46:15.050152,,,,,,,,,
2026-05-19 10:46:13.486,1071112942,7486,1,0.10278,0.21948,-0.88525,-0.489,1.252,-0.611
2026-05-19 10:46:13.486,1071112942,7486,2,-0.37329,-0.85352,0.30811,-1.42,0.733,0.756
2026-05-19 10:46:13.686,1071113142,7686,1,0.09766,0.21631,-0.88794,-0.099,1.053,-0.458
2026-05-19 10:46:13.686,1071113142,7686,2,-0.37964,-0.85083,0.31104,-1.214,0.718,0.496
2026-05-19 10:46:13.886,1071113342,7886,1,0.09741,0.22144,-0.89771,-0.687,1.237,-0.473
2026-05-19 10:46:13.886,1071113342,7886,2,-0.3667,-0.84863,0.30054,-1.42,0.641,0.908
2026-05-19 10:46:13.086,1071112542,8086,1,0.09375,0.21973,-0.89551,0.092,1.298,-0.702
2026-05-19 10:46:13.086,1071112542,8086,2,-0.37524,-0.85034,0.29736,-1.427,0.473,0.595
2026-05-19 10:46:13.286,1071112742,8286,1,0.10132,0.21533,-0.896,-0.58,1.214,-0.435
2026-05-19 10:46:13.286,1071112742,8286,2,-0.36572,-0.84766,0.30225,-1.336,0.55,0.542
2026-05-19 10:46:14.486,1071113942,8486,1,0.09619,0.22656,-0.88696,-0.305,1.099,-0.557
2026-05-19 10:46:14.486,1071113942,8486,2,-0.36304,-0.84961,0.29688,-1.115,0.595,0.519
2026-05-19 10:46:14.686,1071114142,8686,1,0.09619,0.2146,-0.89478,-0.313,1.015,-0.519
2026-05-19 10:46:14.686,1071114142,8686,2,-0.3728,-0.8562,0.29956,-1.305,0.626,0.618
2026-05-19 10:46:14.886,1071114342,8886,1,0.10181,0.2168,-0.88525,-0.252,1.321,-0.405
2026-05-19 10:46:14.886,1071114342,8886,2,-0.37354,-0.85205,0.30542,-1.374,0.557,0.496
2026-05-19 10:46:14.086,1071113542,9086,1,0.09863,0.21753,-0.89526,-0.588,1.115,-0.534
2026-05-19 10:46:14.086,1071113542,9086,2,-0.37012,-0.8479,0.30078,-1.305,0.542,0.481
2026-05-19 10:46:14.286,1071113742,9286,1,0.09692,0.21436,-0.89917,-0.382,1.092,-0.557
2026-05-19 10:46:14.286,1071113742,9286,2,-0.3689,-0.85571,0.29614,-1.191,0.573,0.344
2026-05-19 10:46:15.494,1071114950,9494,1,0.1001,0.21313,-0.88965,-0.351,1.053,-0.588
2026-05-19 10:46:15.494,1071114950,9494,2,-0.36597,-0.8479,0.29761,-1.374,0.672,0.664
2026-05-19 10:46:15.712,1071115168,9712,1,0.104,0.21021,-0.89771,-0.45,1.046,-0.473
2026-05-19 10:46:15.712,1071115168,9712,2,-0.36841,-0.84277,0.30884,-1.397,0.145,0.382
2026-05-19 10:46:15.912,1071115368,9912,1,0.09546,0.22339,-0.90137,-0.038,1.076,-0.412
2026-05-19 10:46:15.912,1071115368,9912,2,-0.37598,-0.84766,0.29565,-1.221,0.366,0.588
2026-05-19 10:46:15.112,1071114568,10112,1,0.09912,0.22119,-0.89893,-0.466,1.229,-0.519
2026-05-19 10:46:15.112,1071114568,10112,2,-0.37817,-0.84839,0.30396,-1.046,0.42,0.366
2026-05-19 10:46:15.312,1071114768,10312,1,0.10156,0.21411,-0.8999,-0.29,1.176,-0.397
2026-05-19 10:46:15.312,1071114768,10312,2,-0.37061,-0.84692,0.29688,-1.496,0.527,0.473
2026-05-19 10:46:16.512,1071115968,10512,1,0.09766,0.22046,-0.89819,-0.26,1.359,-0.481
2026-05-19 10:46:16.512,1071115968,10512,2,-0.36987,-0.84863,0.30518,-1.466,0.695,0.618
2026-05-19 10:46:16.712,1071116168,10712,1,0.09595,0.21143,-0.89941,-0.221,1.137,-0.374
2026-05-19 10:46:16.712,1071116168,10712,2,-0.37402,-0.85571,0.30151,-1.29,0.832,0.58
2026-05-19 10:46:16.912,1071116368,10912,1,0.10034,0.21484,-0.89941,-0.366,1.198,-0.466
2026-05-19 10:46:16.912,1071116368,10912,2,-0.37183,-0.8479,0.29419,-1.099,0.771,0.435
2026-05-19 10:46:16.112,1071115568,11112,1,0.09961,0.21777,-0.90332,-0.489,1.115,-0.565
2026-05-19 10:46:16.112,1071115568,11112,2,-0.37402,-0.84912,0.28955,-1.412,0.412,0.58
2026-05-19 10:46:16.378,1071115834,11378,1,0.10059,0.20996,-0.89551,-0.481,1.107,-0.527
2026-05-19 10:46:16.378,1071115834,11378,2,-0.3728,-0.84985,0.29297,-1.641,0.672,0.641
2026-05-19 10:46:17.679,1071117135,11679,1,0.09717,0.21997,-0.89893,-0.092,1.198,-0.305
2026-05-19 10:46:17.679,1071117135,11679,2,-0.36548,-0.85181,0.29565,-1.099,0.481,0.435
2026-05-19 10:46:17.037,1071116493,12037,1,0.10132,0.2207,-0.8938,0.336,0.924,-0.198
2026-05-19 10:46:17.037,1071116493,12037,2,-0.36914,-0.84985,0.29834,-1.336,0.336,0.557
2026-05-19 10:46:17.334,1071116790,12334,1,0.09839,0.21533,-0.89746,0.275,1.13,-0.397
2026-05-19 10:46:17.334,1071116790,12334,2,-0.37183,-0.85449,0.29761,-1.305,0.603,0.473
2026-05-19 10:46:18.534,1071117990,12534,1,0.0896,0.22021,-0.88965,-0.893,1.244,-0.641
2026-05-19 10:46:18.534,1071117990,12534,2,-0.37256,-0.85352,0.30249,-1.168,0.695,0.618
2026-05-19 10:46:18.734,1071118190,12734,1,0.10522,0.21655,-0.89355,-0.26,1.153,-0.244
2026-05-19 10:46:18.734,1071118190,12734,2,-0.36621,-0.85474,0.30444,-1.496,0.511,0.687
2026-05-19 10:46:18.104,1071117560,13104,1,0.09595,0.21313,-0.89404,-0.412,1.214,-0.504
2026-05-19 10:46:18.104,1071117560,13104,2,-0.36816,-0.84888,0.29761,-1.397,0.534,0.427
2026-05-19 10:46:18.304,1071117760,13304,1,0.09912,0.22119,-0.90405,-0.298,1.191,-0.649
2026-05-19 10:46:18.304,1071117760,13304,2,-0.36694,-0.85107,0.30054,-1.26,0.626,0.527
2026-05-19 10:46:19.504,1071118960,13504,1,0.10034,0.21484,-0.8938,-0.191,1.221,-0.382
2026-05-19 10:46:19.504,1071118960,13504,2,-0.37231,-0.84839,0.29883,-1.344,0.687,0.573
2026-05-19 10:46:19.704,1071119160,13704,1,0.09717,0.21582,-0.88867,-0.427,1.321,-0.603
2026-05-19 10:46:19.704,1071119160,13704,2,-0.37671,-0.85205,0.30005,-1.427,0.351,0.237
2026-05-19 10:46:19.904,1071119360,13904,1,0.09668,0.21606,-0.89404,-0.191,1.214,-0.45
2026-05-19 10:46:19.904,1071119360,13904,2,-0.37158,-0.8479,0.29956,-1.321,0.458,0.481
2026-05-19 10:46:19.104,1071118560,14104,1,0.09668,0.21558,-0.89136,-0.443,1.115,-0.489
2026-05-19 10:46:19.104,1071118560,14104,2,-0.36719,-0.84814,0.30713,-1.221,0.611,0.473
2026-05-19 10:46:19.304,1071118760,14304,1,0.10083,0.21558,-0.896,-0.046,1.145,-0.481
2026-05-19 10:46:19.304,1071118760,14304,2,-0.36792,-0.84326,0.30127,-1.298,0.58,0.641
2026-05-19 10:46:20.504,1071119960,14504,1,0.09985,0.21313,-0.9021,-0.359,1.13,-0.542
2026-05-19 10:46:20.504,1071119960,14504,2,-0.37134,-0.85181,0.30151,-1.145,0.511,0.458
2026-05-19 10:46:20.704,1071120160,14704,1,0.09399,0.21875,-0.90356,-0.382,1.168,-0.435
2026-05-19 10:46:20.704,1071120160,14704,2,-0.3667,-0.84717,0.29663,-1.237,0.618,0.573
2026-05-19 10:46:20.904,1071120360,14904,1,0.09985,0.21802,-0.89575,-0.351,1.214,-0.542
2026-05-19 10:46:20.904,1071120360,14904,2,-0.36792,-0.84741,0.29639,-1.26,0.649,0.496
2026-05-19 10:46:20.104,1071119560,15104,1,0.09937,0.21826,-0.9021,-0.229,1.366,-0.435
2026-05-19 10:46:20.104,1071119560,15104,2,-0.37354,-0.85132,0.31104,-1.351,0.702,0.069
2026-05-19 10:46:20.304,1071119760,15304,1,0.09961,0.21436,-0.90479,-2.786,1.252,-0.954
2026-05-19 10:46:20.304,1071119760,15304,2,-0.36865,-0.84497,0.29639,0.725,-2.542,-1.779
2026-05-19 10:46:21.504,1071120960,15504,1,0.09961,0.21924,-0.8999,-9.031,-0.511,-2.29
2026-05-19 10:46:21.504,1071120960,15504,2,-0.39526,-0.70703,0.23145,38.504,-27.771,-77.794
2026-05-19 10:46:21.704,1071121160,15704,1,0.09888,0.21704,-0.89966,-140.328,-16.992,-10.42
2026-05-19 10:46:21.704,1071121160,15704,2,-0.3894,-0.85181,0.25903,12.649,71.221,21.985
2026-05-19 10:46:21.904,1071121360,15904,1,0.10059,0.23877,-0.9043,16.664,0.977,6.504
2026-05-19 10:46:21.904,1071121360,15904,2,-0.38208,-0.90894,0.24072,-32.328,-18.519,-11.023
2026-05-19 10:46:21.104,1071120560,16104,1,0.09131,0.25952,-0.89575,-16.191,0.107,-1.191
2026-05-19 10:46:21.104,1071120560,16104,2,-0.33105,-0.88843,0.16064,8.008,0.931,-20.366
2026-05-19 10:46:21.304,1071120760,16304,1,0.08911,0.24707,-0.87476,3.664,1.611,0.534
2026-05-19 10:46:21.304,1071120760,16304,2,-0.33618,-0.89209,0.19409,-0.573,6.542,2.489
2026-05-19 10:46:22.504,1071121960,16504,1,0.09546,0.24072,-0.92676,-3.053,-1.641,-1.153
2026-05-19 10:46:22.504,1071121960,16504,2,-0.33545,-0.90723,0.15747,-1.878,1.947,2.336
2026-05-19 10:46:22.712,1071122168,16711,1,0.09766,0.22974,-0.90723,-0.588,0.947,-0.58
2026-05-19 10:46:22.712,1071122168,16711,2,-0.3269,-0.91626,0.18335,1.595,5.252,-0.046
2026-05-19 10:46:22.912,1071122368,16912,1,0.09058,0.23022,-0.8999,1.336,1.435,-0.443
2026-05-19 10:46:22.912,1071122368,16912,2,-0.32788,-0.91309,0.18433,-3.076,0.481,-1.45
2026-05-19 10:46:22.112,1071121568,17112,1,0.07788,0.23315,-0.8728,2.74,1.16,-0.771
2026-05-19 10:46:22.112,1071121568,17112,2,-0.33325,-0.91504,0.18408,-4.16,7.122,2.985
2026-05-19 10:46:22.312,1071121768,17312,1,0.08203,0.24341,-0.89209,-4.176,0.397,-1.405
2026-05-19 10:46:22.312,1071121768,17312,2,-0.32568,-0.91528,0.15503,-7.565,8.641,-13.183
2026-05-19 10:46:23.512,1071122968,17512,1,0.08374,0.24536,-0.90479,3.29,1.809,0.099
2026-05-19 10:46:23.512,1071122968,17512,2,-0.323,-0.9397,0.19238,-2.947,-0.771,1.595
2026-05-19 10:46:23.712,1071123168,17712,1,0.08325,0.24512,-0.88965,6.313,1.16,0.366
2026-05-19 10:46:23.712,1071123168,17712,2,-0.32813,-0.92041,0.12476,-6.634,-5.527,7.763
2026-05-19 10:46:23.912,1071123368,17912,1,-0.00732,0.32349,-0.3916,137.45,-7.435,15.893
2026-05-19 10:46:23.912,1071123368,17912,2,-0.33716,-0.91162,0.12476,2.26,-4.275,12.198
2026-05-19 10:46:23.112,1071122568,18112,1,0.00659,-0.02148,-0.93579,-0.458,1.733,-2.115
2026-05-19 10:46:23.112,1071122568,18112,2,-0.32935,-0.91333,0.14941,-1.611,6.397,-2.794
2026-05-19 10:46:23.312,1071122768,18312,1,0.05151,-0.00073,-0.91406,-7.756,13.626,-2.847
2026-05-19 10:46:23.312,1071122768,18312,2,-0.34717,-0.90332,0.14307,0.718,2.229,0.092
2026-05-19 10:46:24.512,1071123968,18512,1,-0.01318,0.00732,-0.90625,2.26,-10.275,-3.519
2026-05-19 10:46:24.512,1071123968,18512,2,-0.36011,-0.89917,0.15112,3.305,-0.168,1.015
2026-05-19 10:46:24.712,1071124168,18712,1,0.02051,0.00781,-0.93384,5.947,10.099,-1.656
2026-05-19 10:46:24.712,1071124168,18712,2,-0.34326,-0.90112,0.1604,-1.42,-1.046,0.382
2026-05-19 10:46:24.912,1071124368,18912,1,0.02588,-0.01538,-0.92896,0.481,-6.565,0.763
2026-05-19 10:46:24.912,1071124368,18912,2,-0.34668,-0.90234,0.16919,0.969,-5.595,-3.481
2026-05-19 10:46:24.112,1071123568,19112,1,0.00659,-0.01587,-0.927,-0.519,-0.275,-0.183
2026-05-19 10:46:24.112,1071123568,19112,2,-0.33594,-0.90918,0.18237,0.718,0.725,3.809
2026-05-19 10:46:24.312,1071123768,19312,1,0.01465,-0.00854,-0.92896,-1.084,1.061,-0.313
2026-05-19 10:46:24.312,1071123768,19312,2,-0.34546,-0.90186,0.18359,-0.366,1.038,-0.496
2026-05-19 10:46:25.512,1071124968,19512,1,0.0061,-0.01245,-0.92627,0.206,0.908,-0.672
2026-05-19 10:46:25.512,1071124968,19512,2,-0.34766,-0.89697,0.18652,0.618,2.351,2.206
2026-05-19 10:46:25.712,1071125168,19712,1,0.01538,-0.00488,-0.92847,-1.0,2.031,-0.321
2026-05-19 10:46:25.712,1071125168,19712,2,-0.40649,-1.32227,0.16162,-17.656,0.969,-36.641
2026-05-19 10:46:25.912,1071125368,19912,1,0.01343,-0.01123,-0.92798,2.664,-1.137,-0.611
2026-05-19 10:46:25.912,1071125368,19912,2,-0.11011,-0.60132,0.09888,-45.359,-39.344,-106.802
2026-05-19 10:46:25.112,1071124568,20112,1,0.0061,-0.02197,-0.9292,-0.244,2.649,0.519
2026-05-19 10:46:25.112,1071124568,20112,2,0.15918,-0.87207,-0.09546,-20.435,-8.947,-35.443
2026-05-19 10:46:25.312,1071124768,20312,1,-0.00293,-0.01953,-0.9248,-0.221,1.153,0.153
2026-05-19 10:46:25.312,1071124768,20312,2,0.22681,-0.80835,-0.06909,11.099,0.969,-6.679
2026-05-19 10:46:26.512,1071125968,20512,1,0.00098,-0.01782,-0.9248,-0.58,2.588,-0.511
2026-05-19 10:46:26.512,1071125968,20512,2,0.21973,-0.92676,-0.07788,16.687,4.817,23.466
2026-05-19 10:46:26.712,1071126168,20712,1,0.00513,-0.01172,-0.9292,-1.542,2.847,-0.733
2026-05-19 10:46:26.712,1071126168,20712,2,0.12061,-0.88428,-0.05298,-8.603,16.435,27.58
2026-05-19 10:46:26.912,1071126368,20912,1,0.01245,-0.00562,-0.92871,-3.008,3.763,0.176
2026-05-19 10:46:26.912,1071126368,20912,2,0.02832,-1.15845,0.04883,48.58,55.099,44.718
2026-05-19 10:46:26.112,1071125568,21112,1,0.00708,-0.0166,-0.92383,-0.931,1.58,-0.13
2026-05-19 10:46:26.112,1071125568,21112,2,-0.17261,-0.99097,0.17896,-0.802,4.802,35.321
2026-05-19 10:46:26.312,1071125768,21312,1,0.01392,-0.00122,-0.92578,-0.229,0.588,-0.962
2026-05-19 10:46:26.312,1071125768,21312,2,-0.33325,-0.88208,0.30298,9.893,-0.168,10.45
2026-05-19 10:46:27.512,1071126968,21512,1,0.01147,-0.01123,-0.92798,-0.504,1.443,-0.145
2026-05-19 10:46:27.512,1071126968,21512,2,-0.30615,-0.97217,0.38379,-4.55,-9.687,1.313
2026-05-19 10:46:27.712,1071127168,21712,1,0.01709,-0.00562,-0.93335,-0.092,1.183,-0.206
2026-05-19 10:46:27.712,1071127168,21712,2,-0.32227,-0.87378,0.23242,-7.969,4.351,0.076
2026-05-19 10:46:27.912,1071127368,21912,1,0.01807,-0.00415,-0.92261,-0.305,1.198,-0.366
2026-05-19 10:46:27.912,1071127368,21912,2,-0.33228,-0.90283,0.20215,-5.504,4.397,-3.305
2026-05-19 10:46:27.112,1071126568,22112,1,0.00928,-0.00586,-0.927,0.458,1.206,-0.412
2026-05-19 10:46:27.112,1071126568,22112,2,-0.37183,-1.16138,0.33252,-1.267,-16.672,-2.603
2026-05-19 10:46:27.312,1071126768,22312,1,0.02271,-0.00806,-0.94189,-0.611,2.198,-0.122
2026-05-19 10:46:27.312,1071126768,22312,2,-0.15332,-0.92529,0.271,-11.427,-38.145,-70.046
2026-05-19 10:46:28.512,1071127968,22512,1,0.01831,-0.00537,-0.91138,1.084,-0.076,-0.809
2026-05-19 10:46:28.512,1071127968,22512,2,0.08447,-0.91577,0.16968,10.763,-30.74,-43.13
2026-05-19 10:46:28.712,1071128168,22712,1,0.01147,-0.00781,-0.92236,0.198,0.313,-0.542
2026-05-19 10:46:28.712,1071128168,22712,2,0.19946,-0.90796,0.16455,6.176,-5.763,-19.458
2026-05-19 10:46:28.912,1071128368,22912,1,0.00195,-0.01221,-0.92749,0.168,0.374,-0.435
2026-05-19 10:46:28.912,1071128368,22912,2,0.20435,-0.84741,0.2395,-1.756,6.542,-0.58
2026-05-19 10:46:28.112,1071127568,23112,1,0.01685,-0.01123,-0.92407,-0.824,1.595,-0.305
2026-05-19 10:46:28.112,1071127568,23112,2,0.15869,-0.90234,0.22314,0.382,27.824,24.443
2026-05-19 10:46:28.312,1071127768,23312,1,0.00879,-0.0083,-0.92114,-1.901,2.42,-0.206
2026-05-19 10:46:28.312,1071127768,23312,2,0.06665,-1.00317,0.28076,1.916,45.298,50.702
2026-05-19 10:46:29.512,1071128968,23512,1,0.02075,-0.00537,-0.91602,-2.336,2.534,1.328
2026-05-19 10:46:29.512,1071128968,23512,2,-0.29004,-1.05176,0.29468,-0.893,22.29,42.053
2026-05-19 10:46:29.712,1071129168,23712,1,0.01416,0.00415,-0.93115,-3.252,3.038,0.542
2026-05-19 10:46:29.712,1071129168,23712,2,-0.35913,-0.97827,0.1958,-4.038,22.634,15.901
2026-05-19 10:46:29.912,1071129368,23912,1,0.02075,0.00317,-0.90503,-0.679,2.847,0.763
2026-05-19 10:46:29.912,1071129368,23912,2,-0.34766,-1.05469,0.26392,-9.382,-24.58,-24.687
2026-05-19 10:46:29.112,1071128568,24112,1,0.02539,0.03442,-0.93042,-2.885,0.931,0.351
2026-05-19 10:46:29.112,1071128568,24112,2,-0.33228,-0.9502,0.06909,-17.313,-1.504,-11.885
2026-05-19 10:46:29.312,1071128768,24312,1,0.02686,0.0083,-0.93701,11.435,16.168,9.954
2026-05-19 10:46:29.312,1071128768,24312,2,-0.29175,-0.95361,0.03003,1.817,-3.931,-8.901
2026-05-19 10:46:30.512,1071129968,24512,1,0.04419,-0.00903,-0.93115,0.901,3.344,-1.244
2026-05-19 10:46:30.512,1071129968,24512,2,-0.28857,-0.9397,0.08765,7.924,-1.695,-3.168
2026-05-19 10:46:30.712,1071130168,24712,1,0.00806,-0.05273,-0.93335,11.931,66.809,13.015
2026-05-19 10:46:30.712,1071130168,24712,2,-0.29492,-0.93237,0.09717,-8.336,4.641,4.298
2026-05-19 10:46:30.912,1071130368,24912,1,0.56128,-0.07202,-0.64868,4.481,155.0,53.733
2026-05-19 10:46:30.912,1071130368,24912,2,-0.31177,-0.93335,0.08252,-0.763,2.916,-1.672
2026-05-19 10:46:30.112,1071129568,25112,1,0.76245,-0.24243,-0.80371,42.038,89.634,25.985
2026-05-19 10:46:30.112,1071129568,25112,2,-0.31177,-0.94067,0.06616,-2.855,4.107,3.779
2026-05-19 10:46:30.312,1071129768,25312,1,0.49609,-0.33862,-0.60474,19.924,45.244,-65.046
2026-05-19 10:46:30.312,1071129768,25312,2,-0.30908,-0.93481,0.08081,-1.954,-6.252,8.214
2026-05-19 10:46:31.512,1071130968,25512,1,0.67188,-0.10938,-0.47778,25.282,39.84,-20.321
2026-05-19 10:46:31.512,1071130968,25512,2,-0.31934,-0.93115,0.07617,1.466,-0.481,-1.328
2026-05-19 10:46:31.712,1071131168,25712,1,0.59644,-0.03564,-0.46777,6.573,-27.924,-20.885
2026-05-19 10:46:31.712,1071131168,25712,2,-0.35229,-0.93799,0.09644,0.061,-11.924,2.473
2026-05-19 10:46:31.912,1071131368,25912,1,0.78589,-0.00732,-0.58081,42.252,-38.511,-1.099
2026-05-19 10:46:31.912,1071131368,25912,2,-0.30322,-0.92529,0.11719,9.733,-8.412,-2.679
2026-05-19 10:46:31.112,1071130568,26112,1,4.00977,-2.00977,-6.2168,-52.061,57.267,-35.908
2026-05-19 10:46:31.112,1071130568,26112,2,-0.27612,-0.92041,0.21338,9.611,-31.053,-9.55
2026-05-19 10:46:31.312,1071130768,26312,1,0.20825,0.08936,-0.51709,-114.802,37.725,-32.756
2026-05-19 10:46:31.312,1071130768,26312,2,-0.27832,-0.89966,0.27246,-9.527,-14.267,21.244
2026-05-19 10:46:32.512,1071131968,26512,1,0.14209,0.07324,-0.85034,9.771,-6.679,6.725
2026-05-19 10:46:32.512,1071131968,26512,2,-0.44019,-0.8894,0.22607,-24.725,-41.985,33.573
2026-05-19 10:46:32.712,1071132168,26712,1,0.24976,0.01196,-1.17407,-13.481,-48.267,-3.931
2026-05-19 10:46:32.712,1071132168,26712,2,0.06104,-1.11499,0.19751,7.679,9.656,1.191
2026-05-19 10:46:32.912,1071132368,26912,1,0.21313,0.10474,-0.90308,0.565,0.756,9.176
2026-05-19 10:46:32.912,1071132368,26912,2,-0.35352,-0.89502,0.19629,-3.397,-5.863,0.107
2026-05-19 10:46:32.112,1071131568,27112,1,0.21289,0.10913,-0.89648,0.924,3.366,-1.374
2026-05-19 10:46:32.112,1071131568,27112,2,-0.35596,-0.88428,0.21436,-2.275,-0.092,1.656
2026-05-19 10:46:32.312,1071131768,27312,1,0.21191,0.10791,-0.91284,-0.626,1.267,
2026-05-19 10:46:32.312,1071131768,27312,2,-0.36182,-0.89404,0.21191,-1.924,-0.183,1.275
2026-05-19 10:46:33.512,1071132968,27512,1,0.20581,0.11353,-0.90015,-0.534,0.847,-0.656
2026-05-19 10:46:33.512,1071132968,27512,2,-0.35327,-0.89111,0.19946,0.275,-1.038,0.649
2026-05-19 10:46:33.730,1071133186,27730,1,0.21362,0.11792,-0.90869,-1.008,1.687,-0.107
2026-05-19 10:46:33.730,1071133186,27730,2,-0.36377,-0.88916,0.21094,-1.924,-0.191,0.947
2026-05-19 10:46:33.930,1071133386,27930,1,0.20996,0.11377,-0.90479,-0.412,1.023,-0.542
2026-05-19 10:46:33.930,1071133386,27930,2,-0.36694,-0.89014,0.21069,-1.725,0.359,0.977
2026-05-19 10:46:33.133,1071132589,28133,1,0.20654,0.11597,-0.91113,-0.427,1.221,-0.321
2026-05-19 10:46:33.133,1071132589,28133,2,-0.36157,-0.88647,0.2041,-1.374,0.008,0.679
2026-05-19 10:46:33.333,1071132789,28333,1,0.20288,0.11548,-0.90845,-0.473,1.336,0.282
2026-05-19 10:46:33.333,1071132789,28333,2,-0.35815,-0.89209,0.20728,-1.344,0.328,0.71
2026-05-19 10:46:34.533,1071133989,28533,1,0.20752,0.11572,-0.89893,-0.656,1.023,-0.573
2026-05-19 10:46:34.533,1071133989,28533,2,-0.35669,-0.88916,0.2041,-1.641,0.076,0.733
2026-05-19 10:46:34.733,1071134189,28733,1,0.20679,0.11597,-0.90601,-0.344,0.824,-0.458
2026-05-19 10:46:34.733,1071134189,28733,2,-0.36401,-0.88745,0.2041,-1.466,0.344,0.748
2026-05-19 10:46:34.933,1071134389,28933,1,0.20386,0.11206,-0.90796,-0.29,1.275,-0.496
2026-05-19 10:46:34.933,1071134389,28933,2,-0.36597,-0.88965,0.20117,-1.489,0.496,0.748
2026-05-19 10:46:34.133,1071133589,29133,1,0.20776,0.11548,-0.91064,-0.397,1.366,-0.481
2026-05-19 10:46:34.133,1071133589,29133,2,-0.36182,-0.88306,0.20264,-1.58,0.29,0.847
2026-05-19 10:46:34.333,1071133789,29333,1,0.20654,0.11597,-0.91284,-0.29,1.282,-0.412
2026-05-19 10:46:34.333,1071133789,29333,2,-0.36035,-0.88672,0.2063,-1.534,0.13,0.542
2026-05-19 10:46:35.533,1071134989,29533,1,0.20313,0.11206,-0.90869,-0.405,1.321,-0.427
2026-05-19 10:46:35.533,1071134989,29533,2,-0.35791,-0.89063,0.20361,-1.412,0.466,0.534
2026-05-19 10:46:35.733,1071135189,29733,1,0.20825,0.11987,-0.90625,-0.42,1.008,-0.496
2026-05-19 10:46:35.733,1071135189,29733,2,-0.36108,-0.89233,0.20166,-1.389,0.26,0.565
2026-05-19 10:46:35.933,1071135389,29933,1,0.20264,0.11865,-0.89136,0.176,2.641,-0.641
2026-05-19 10:46:35.933,1071135389,29933,2,-0.36255,-0.88672,0.20557,-1.672,0.092,0.962
2026-05-19 10:46:35.133,1071134589,30133,1,0.21069,0.11694,-0.9104,-0.214,1.267,-0.275
2026-05-19 10:46:35.133,1071134589,30133,2,-0.36035,-0.88794,0.21045,-1.336,0.466,0.718
2026-05-19 10:46:35.333,1071134789,30333,1,0.19751,0.11816,-0.91162,0.176,0.931,-0.511
2026-05-19 10:46:35.333,1071134789,30333,2,-0.36108,-0.8811,0.20679,-1.55,0.443,0.595
2026-05-19 10:46:36.533,1071135989,30533,1,0.20874,0.11255,-0.90625,-0.336,0.931,-0.466
2026-05-19 10:46:36.533,1071135989,30533,2,-0.35889,-0.88501,0.19336,-1.237,0.405,0.565
2026-05-19 10:46:36.733,1071136189,30733,1,0.19995,0.12549,-0.91895,-0.214,1.473,-0.489
2026-05-19 10:46:36.733,1071136189,30733,2,-0.36353,-0.89429,0.2019,-1.153,0.55,0.527
2026-05-19 10:46:36.933,1071136389,30933,1,0.20435,0.12061,-0.90039,-0.382,0.802,-0.634
2026-05-19 10:46:36.933,1071136389,30933,2,-0.36865,-0.89136,0.20264,-1.145,0.71,0.298
2026-05-19 10:46:36.133,1071135589,31133,1,0.20752,0.11743,-0.90405,-0.611,1.084,-0.458
2026-05-19 10:46:36.133,1071135589,31133,2,-0.36719,-0.88501,0.20776,-1.237,0.618,0.374
2026-05-19 10:46:36.333,1071135789,31333,1,0.2041,0.11572,-0.90405,-0.519,1.023,-0.397
2026-05-19 10:46:36.333,1071135789,31333,2,-0.36353,-0.89038,0.19287,-1.282,0.641,0.687
2026-05-19 10:46:37.533,1071136989,31533,1,0.20483,0.11938,-0.90527,-0.031,1.229,-0.473
2026-05-19 10:46:37.533,1071136989,31533,2,-0.36255,-0.88672,0.20288,-1.206,0.542,0.695
2026-05-19 10:46:37.733,1071137189,31733,1,0.20679,0.11792,-0.90479,-0.13,1.076,-0.42
2026-05-19 10:46:37.733,1071137189,31733,2,-0.36353,-0.88306,0.20776,-1.382,0.466,0.519
2026-05-19 10:46:37.933,1071137389,31933,1,0.20825,-0.16821,-1.35376,17.634,-159.939,80.947
2026-05-19 10:46:37.933,1071137389,31933,2,-0.36963,-0.84668,0.32202,24.366,-22.878,0.489
2026-05-19 10:46:37.133,1071136589,32133,1,0.03345,0.0083,-0.92798,5.176,-4.672,-1.985
2026-05-19 10:46:37.133,1071136589,32133,2,-0.53931,-1.29126,0.36743,-37.626,-10.282,-50.527
2026-05-19 10:46:37.333,1071136789,32333,1,0.03442,0.00098,-0.9353,0.58,2.26,1.603
2026-05-19 10:46:37.333,1071136789,32333,2,0.04419,-0.72583,0.09058,14.053,-27.13,-63.114
2026-05-19 10:46:38.533,1071137989,32533,1,0.02856,-0.00195,-0.927,-0.74,1.405,-0.366
2026-05-19 10:46:38.533,1071137989,32533,2,0.12402,-0.7915,0.01123,-5.924,47.603,20.71
2026-05-19 10:46:38.760,1071138216,32760,1,0.0835,0.00708,-0.9248,-1.038,-1.008,-1.137
2026-05-19 10:46:38.760,1071138216,32760,2,-0.26514,-1.02295,0.19385,16.87,50.45,72.672
2026-05-19 10:46:38.960,1071138416,32960,1,0.02783,-0.00317,-0.93164,-1.267,-0.473,-1.374
2026-05-19 10:46:38.960,1071138416,32960,2,-0.37573,-1.32471,0.23315,-18.641,-2.198,-48.405
2026-05-19 10:46:38.160,1071137616,33160,1,0.03979,0.00879,-0.93188,-0.084,2.099,-0.122
2026-05-19 10:46:38.160,1071137616,33160,2,-0.03638,-0.61279,-0.05493,8.573,-44.656,-23.023
2026-05-19 10:46:38.360,1071137816,33360,1,0.03076,0.00391,-0.93213,-1.794,1.679,-0.794
2026-05-19 10:46:38.360,1071137816,33360,2,-0.18359,-1.30225,0.33545,37.015,20.901,134.885
2026-05-19 10:46:39.560,1071139016,33560,1,0.0271,0.01123,-0.92676,-0.947,0.908,-1.412
2026-05-19 10:46:39.560,1071139016,33560,2,-0.35693,-1.37158,0.56885,-25.74,-24.405,-27.153
2026-05-19 10:46:39.760,1071139216,33760,1,0.03271,0.02515,-0.92529,-0.473,1.29,0.389
2026-05-19 10:46:39.760,1071139216,33760,2,-0.03052,-0.59155,0.16797,-9.641,-50.038,-33.191
2026-05-19 10:46:39.960,1071139416,33960,1,0.02515,0.02344,-0.92847,-1.962,1.153,-0.092
2026-05-19 10:46:39.960,1071139416,33960,2,-0.32593,-0.91797,0.36621,54.244,95.809,63.206
2026-05-19 10:46:39.160,1071138616,34160,1,0.02979,0.0188,-0.92285,-1.275,0.939,-0.191
2026-05-19 10:46:39.160,1071138616,34160,2,-0.31836,-0.95337,0.28979,-72.649,-18.695,-25.649
2026-05-19 10:46:39.360,1071138816,34360,1,0.02637,0.03076,-0.93359,-0.389,1.366,-0.969
2026-05-19 10:46:39.360,1071138816,34360,2,-0.27026,-0.85205,0.29297,-0.237,-19.237,-0.198
2026-05-19 10:46:40.560,1071140016,34560,1,0.02612,0.01709,-0.98682,21.061,-7.664,5.779
2026-05-19 10:46:40.560,1071140016,34560,2,-0.33667,-0.90405,0.30933,-14.779,0.832,63.771
2026-05-19 10:46:40.760,1071140216,34760,1,0.05859,0.02173,-0.96753,-0.374,1.58,-13.611
2026-05-19 10:46:40.760,1071140216,34760,2,-0.45947,-0.84546,0.28003,-70.832,-29.679,10.931
2026-05-19 10:46:40.960,1071140416,34960,1,0.16357,0.13306,-0.80786,-177.153,60.176,-39.885
2026-05-19 10:46:40.960,1071140416,34960,2,-0.39453,-0.89404,0.10181,-20.519,32.267,-4.389
2026-05-19 10:46:40.160,1071139616,35160,1,0.1106,0.03833,-0.93921,15.939,48.0,13.405
2026-05-19 10:46:40.160,1071139616,35160,2,-0.43335,-0.87769,0.09229,-13.473,-7.191,7.947
2026-05-19 10:46:40.360,1071139816,35360,1,0.24219,-0.04492,-0.81812,44.504,112.595,10.748
2026-05-19 10:46:40.360,1071139816,35360,2,-0.42969,-0.8833,0.04419,-13.328,1.313,-2.412
2026-05-19 10:46:41.560,1071141016,35560,1,0.7915,-0.01343,-0.87427,-120.748,7.664,23.305
2026-05-19 10:46:41.560,1071141016,35560,2,-0.45972,-0.87622,0.0083,12.473,-2.847,7.015
2026-05-19 10:46:41.791,1071141247,35791,1,0.2998,-0.02173,-0.30029,70.397,24.366,-35.168
2026-05-19 10:46:41.791,1071141247,35791,2,-0.48096,-0.85938,-0.00439,8.939,-2.611,2.153
2026-05-19 10:46:41.991,1071141447,35991,1,0.66943,0.0896,-0.67261,9.191,5.237,14.855
2026-05-19 10:46:41.991,1071141447,35991,2,-0.44727,-0.87402,-0.00708,3.13,-2.122,5.221
2026-05-19 10:46:41.191,1071140647,36191,1,0.75098,-0.09497,-0.82666,70.687,8.947,29.45
2026-05-19 10:46:41.191,1071140647,36191,2,-0.46826,-0.86401,0.02002,-13.099,10.122,4.107
2026-05-19 10:46:41.391,1071140847,36391,1,0.39966,-0.14673,-0.3291,-34.137,-13.489,-21.282
2026-05-19 10:46:41.391,1071140847,36391,2,-0.49878,-0.84326,-0.00854,12.038,1.275,-5.008
2026-05-19 10:46:42.598,1071142054,36598,1,0.52466,0.07764,-1.16333,-44.122,-76.977,-27.672
2026-05-19 10:46:42.598,1071142054,36598,2,-0.50171,-0.85449,0.04785,4.817,-3.55,12.351
2026-05-19 10:46:42.843,1071142299,36843,1,0.57202,-0.12939,-0.80469,29.16,-65.481,21.13
2026-05-19 10:46:42.843,1071142299,36843,2,-0.51733,-0.8291,0.03247,-12.153,4.534,-7.901
2026-05-19 10:46:42.043,1071141499,37043,1,0.41235,-0.1106,-0.44189,-36.802,76.794,-13.061
2026-05-19 10:46:42.043,1071141499,37043,2,-0.49219,-0.85767,0.03687,5.771,0.313,2.763
2026-05-19 10:46:42.243,1071141699,37243,1,0.55469,-0.03271,-1.08594,-11.954,-24.313,-2.504
2026-05-19 10:46:42.243,1071141699,37243,2,-0.50171,-0.85059,0.0498,3.015,1.481,2.527
2026-05-19 10:46:42.443,1071141899,37443,1,0.43408,-0.14551,-0.56348,25.176,-72.176,32.473
2026-05-19 10:46:42.443,1071141899,37443,2,-0.51343,-0.84375,0.052,-7.511,-3.916,2.168
2026-05-19 10:46:43.643,1071143099,37643,1,0.40479,-0.12158,-0.88379,-23.374,122.573,-20.305
2026-05-19 10:46:43.643,1071143099,37643,2,-0.48193,-0.86523,0.05176,-6.595,-0.58,-2.664
2026-05-19 10:46:43.843,1071143299,37843,1,0.50439,-0.12793,-0.87305,5.55,-2.099,5.298
2026-05-19 10:46:43.843,1071143299,37843,2,-0.49365,-0.85449,0.05762,-4.099,-0.122,-1.137
2026-05-19 10:46:43.072,1071142528,38072,1,0.32153,-0.125,-1.04736,74.534,-8.137,7.015
2026-05-19 10:46:43.072,1071142528,38072,2,-0.48706,-0.85571,0.0332,-0.809,1.344,1.145
2026-05-19 10:46:43.280,1071142736,38280,1,0.39868,0.00366,-1.03003,-77.626,-241.634,8.237
2026-05-19 10:46:43.280,1071142736,38280,2,-0.49268,-0.85669,0.03906,0.389,-2.168,-1.794
2026-05-19 10:46:44.480,1071143936,38480,1,0.14014,0.03125,-0.94458,-40.534,25.992,-1.916
2026-05-19 10:46:44.480,1071143936,38480,2,-0.47192,-0.86646,0.04248,-0.779,0.489,4.908
2026-05-19 10:46:44.680,1071144136,38680,1,0.15747,0.10571,-0.91821,3.076,2.031,-0.13
2026-05-19 10:46:44.680,1071144136,38680,2,-0.50195,-0.8479,0.03662,-1.855,-0.336,5.595
2026-05-19 10:46:44.880,1071144336,38880,1,0.02979,0.02344,-0.91919,24.969,-18.237,3.939
2026-05-19 10:46:44.880,1071144336,38880,2,-0.46729,-0.86621,0.05518,-1.802,-1.099,-2.076
2026-05-19 10:46:44.080,1071143536,39080,1,0.01294,-0.02661,-0.92627,3.0,0.176,2.908
2026-05-19 10:46:44.080,1071143536,39080,2,-0.45459,-0.86938,0.05688,-4.748,-0.015,-4.221
2026-05-19 10:46:44.280,1071143736,39280,1,0.02173,-0.00732,-0.93628,-3.031,1.71,-0.053
2026-05-19 10:46:44.280,1071143736,39280,2,-0.47241,-0.86255,0.04932,-1.802,0.603,1.939
2026-05-19 10:46:45.480,1071144936,39480,1,0.03052,-0.00537,-0.94019,1.557,1.122,-0.924
2026-05-19 10:46:45.480,1071144936,39480,2,-0.4563,-0.87622,0.05835,2.076,0.565,-4.389
2026-05-19 10:46:45.680,1071145136,39680,1,0.02051,-0.01025,-0.9292,1.443,0.313,-0.565
2026-05-19 10:46:45.680,1071145136,39680,2,-0.46729,-0.86719,0.05469,-0.802,1.527,4.496
2026-05-19 10:46:45.880,1071145336,39880,1,0.02002,-0.01245,-0.92578,-0.443,0.87,-0.672
2026-05-19 10:46:45.880,1071145336,39880,2,-0.4585,-0.87109,0.06348,-0.656,0.58,-2.382
2026-05-19 10:46:45.080,1071144536,40080,1,0.02075,-0.01318,-0.92285,-0.374,1.725,-0.26
2026-05-19 10:46:45.080,1071144536,40080,2,-0.47241,-0.86182,0.05542,-1.679,1.824,1.824
2026-05-19 10:46:45.280,1071144736,40280,1,0.02002,-0.01831,-0.92749,-0.588,1.122,-0.435
2026-05-19 10:46:45.280,1071144736,40280,2,-0.46802,-0.86914,0.05713,-2.229,0.023,0.092
2026-05-19 10:46:46.480,1071145936,40480,1,0.01831,-0.01465,-0.93262,-0.229,1.84,-0.542
2026-05-19 10:46:46.480,1071145936,40480,2,-0.46924,-0.86206,0.07227,0.847,1.168,1.687
2026-05-19 10:46:46.680,1071146136,40680,1,0.021,-0.01782,-0.92212,-0.771,1.26,-0.511
2026-05-19 10:46:46.680,1071146136,40680,2,-0.46973,-0.86694,0.06714,0.55,1.26,0.71
2026-05-19 10:46:46.880,1071146336,40880,1,0.02637,-0.01514,-0.93628,0.053,0.893,-0.595
2026-05-19 10:46:46.880,1071146336,40880,2,-0.45239,-0.88208,0.06567,-3.275,7.137,3.405
2026-05-19 10:46:46.080,1071145536,41080,1,0.0105,-0.01953,-0.92334,2.397,-1.55,-0.336
2026-05-19 10:46:46.080,1071145536,41080,2,-0.56934,-1.12012,0.02173,-48.809,-32.16,-72.435
2026-05-19 10:46:46.280,1071145736,41280,1,0.01709,-0.02246,-0.93579,0.687,-0.206,-0.794
2026-05-19 10:46:46.280,1071145736,41280,2,0.08032,-0.47827,-0.19946,7.382,-6.023,-10.58
2026-05-19 10:46:47.548,1071147004,41548,1,0.0105,-0.03394,-0.92944,-1.527,-1.55,1.611
2026-05-19 10:46:47.548,1071147004,41548,2,-0.37036,-1.01392,0.19263,21.359,37.206,18.55
2026-05-19 10:46:47.748,1071147204,41748,1,0.00806,-0.02637,-0.94043,-0.595,-0.664,-0.298
2026-05-19 10:46:47.748,1071147204,41748,2,-0.43408,-1.01709,0.17554,21.58,7.282,33.466
2026-05-19 10:46:47.948,1071147404,41948,1,0.01953,-0.02612,-0.9375,0.168,1.87,-0.267
2026-05-19 10:46:47.948,1071147404,41948,2,-0.47388,-0.9187,0.18677,-8.489,-5.771,-11.267
2026-05-19 10:46:47.148,1071146604,42148,1,0.02173,-0.02515,-0.9375,-1.053,1.099,-0.206
2026-05-19 10:46:47.148,1071146604,42148,2,-0.47852,-0.84277,0.14502,-2.0,-0.977,5.489
2026-05-19 10:46:47.348,1071146804,42348,1,0.01367,-0.01685,-0.92358,-0.802,0.74,-0.107
2026-05-19 10:46:47.348,1071146804,42348,2,-0.47168,-0.8457,0.1416,-3.573,-0.763,-2.595
2026-05-19 10:46:48.548,1071148004,42548,1,0.01367,-0.021,-0.93042,-0.405,1.122,-0.656
2026-05-19 10:46:48.548,1071148004,42548,2,-0.47461,-0.84448,0.15161,-7.595,-0.656,-0.702
2026-05-19 10:46:48.748,1071148204,42748,1,0.01782,-0.02466,-0.92773,-0.099,0.954,-0.489
2026-05-19 10:46:48.748,1071148204,42748,2,-0.46582,-0.84961,0.13745,-3.122,2.084,0.053
2026-05-19 10:46:48.948,1071148404,42948,1,0.02051,-0.01831,-0.91943,-0.374,1.405,-0.511
2026-05-19 10:46:48.948,1071148404,42948,2,-0.48096,-0.8418,0.13184,1.924,-2.176,2.198
2026-05-19 10:46:48.148,1071147604,43148,1,0.01392,-0.01953,-0.92261,-0.305,0.74,-0.313
2026-05-19 10:46:48.148,1071147604,43148,2,-0.48169,-0.85034,0.11865,4.229,0.176,1.0
2026-05-19 10:46:48.348,1071147804,43348,1,0.00903,-0.02148,-0.92896,-0.42,0.771,-0.115
2026-05-19 10:46:48.348,1071147804,43348,2,-0.59326,-0.81396,0.13794,-32.321,-68.687,-23.061
2026-05-19 10:46:49.548,1071149004,43548,1,0.01953,-0.02148,-0.92676,-0.229,0.71,1.221
2026-05-19 10:46:49.548,1071149004,43548,2,-0.24976,-0.84082,-0.76465,-14.824,-34.565,-35.115
2026-05-19 10:46:49.748,1071149204,43748,1,0.01416,-0.021,-0.92676,-0.924,4.305,-0.84
2026-05-19 10:46:49.748,1071149204,43748,2,-0.39136,-0.88477,0.39136,-81.145,-139.183,-38.046
2026-05-19 10:46:49.961,1071149417,43961,1,0.01196,-0.03027,-0.93384,-1.427,-0.351,4.534
2026-05-19 10:46:49.961,1071149417,43961,2,-0.37329,-0.80664,0.11353,-69.481,-106.221,-26.229
2026-05-19 10:46:49.168,1071148624,44168,1,0.00146,-0.0022,-0.94824,0.405,1.344,-2.817
2026-05-19 10:46:49.168,1071148624,44168,2,-0.41504,-1.11768,1.05859,4.137,58.023,9.115
2026-05-19 10:46:49.368,1071148824,44368,1,0.01978,-0.02197,-0.92773,0.382,4.458,-0.649
2026-05-19 10:46:49.368,1071148824,44368,2,-0.30615,-1.03174,0.8374,-53.809,-78.084,-31.076
2026-05-19 10:46:50.568,1071150024,44568,1,0.01392,-0.02271,-0.92798,-0.42,-4.382,0.511
2026-05-19 10:46:50.568,1071150024,44568,2,-0.23706,-1.25537,1.18945,-35.939,-18.382,-12.832
2026-05-19 10:46:50.768,1071150224,44768,1,-0.01221,-0.01245,-0.93115,-0.687,2.84,-1.962
2026-05-19 10:46:50.768,1071150224,44768,2,-0.33545,-0.86621,0.3479,-109.756,-134.443,-42.145
2026-05-19 10:46:50.968,1071150424,44968,1,0.02856,-0.03247,-0.93286,1.168,2.74,-0.122
2026-05-19 10:46:50.968,1071150424,44968,2,-0.30371,-0.97241,0.64819,-81.649,-91.885,-36.16
2026-05-19 10:46:50.168,1071149624,45168,1,-0.01221,-0.0127,-0.94336,-0.626,1.389,-0.924
2026-05-19 10:46:50.168,1071149624,45168,2,-0.35913,-0.92407,0.18848,58.702,29.45,50.618
2026-05-19 10:46:50.368,1071149824,45368,1,0.00854,-0.01636,-0.92627,-0.466,1.092,-0.275
2026-05-19 10:46:50.368,1071149824,45368,2,-0.45947,-0.84277,0.21631,-23.527,8.817,11.015
2026-05-19 10:46:51.568,1071151024,45568,1,0.01685,-0.01587,-0.92822,-2.977,3.809,0.069
2026-05-19 10:46:51.568,1071151024,45568,2,-0.47144,-0.83765,0.16968,-0.122,-4.84,-7.725
2026-05-19 10:46:51.791,1071151247,45791,1,0.01782,-0.0144,-0.92383,-1.588,1.298,-0.427
2026-05-19 10:46:51.791,1071151247,45791,2,-0.45459,-0.84937,0.19238,1.298,-2.573,-3.985
2026-05-19 10:46:51.991,1071151447,45991,1,0.02344,-0.01245,-0.92627,-0.855,0.061,-0.527
2026-05-19 10:46:51.991,1071151447,45991,2,-0.44971,-0.85107,0.19458,-7.954,-0.382,-1.794
2026-05-19 10:46:51.191,1071150647,46191,1,0.02466,0.00073,-0.92651,-12.397,10.534,1.641
2026-05-19 10:46:51.191,1071150647,46191,2,-0.44995,-0.8606,0.18677,-6.595,1.038,-0.74
2026-05-19 10:46:51.391,1071150847,46391,1,0.04248,-0.03198,-0.93213,3.244,1.206,-0.565
2026-05-19 10:46:51.391,1071150847,46391,2,-0.44604,-0.85596,0.16748,-5.0,1.519,-0.214
2026-05-19 10:46:52.591,1071152047,46591,1,0.05322,-0.03833,-0.93481,5.0,2.473,0.229
2026-05-19 10:46:52.591,1071152047,46591,2,-0.44336,-0.86426,0.15137,0.45,-0.771,0.038
2026-05-19 10:46:52.791,1071152247,46791,1,0.05493,-0.11987,-0.93628,55.725,30.664,54.359
2026-05-19 10:46:52.791,1071152247,46791,2,-0.43945,-0.85913,0.15601,-2.176,0.779,1.634
2026-05-19 10:46:52.048,1071151504,47048,1,0.16528,-0.17285,-0.74341,250.13,32.908,40.481
2026-05-19 10:46:52.048,1071151504,47048,2,-0.44604,-0.85181,0.13623,-10.466,-1.603,-2.481
2026-05-19 10:46:52.248,1071151704,47248,1,0.41821,-0.64624,-0.42871,-250.137,22.573,-9.863
2026-05-19 10:46:52.248,1071151704,47248,2,-0.41553,-0.88379,0.09326,-4.405,2.641,1.557
2026-05-19 10:46:52.448,1071151904,47448,1,-0.01099,-1.81323,0.61206,182.511,-82.328,-250.137
2026-05-19 10:46:52.448,1071151904,47448,2,-0.55176,-0.76367,0.12817,3.794,-0.985,2.534
2026-05-19 10:46:53.648,1071153104,47648,1,0.41333,-0.69141,-1.50146,185.664,96.87,58.733
2026-05-19 10:46:53.648,1071153104,47648,2,-0.41577,-0.85327,0.07544,2.198,-8.534,2.313
2026-05-19 10:46:53.848,1071153304,47848,1,0.5166,-1.06152,0.17749,131.893,144.84,-222.611
2026-05-19 10:46:53.848,1071153304,47848,2,-0.44263,-0.8689,0.13379,-5.435,-2.321,2.29
2026-05-19 10:46:53.048,1071152504,48048,1,0.63281,0.04199,-1.49463,-28.076,27.191,19.458
2026-05-19 10:46:53.048,1071152504,48048,2,-0.44678,-0.87061,0.15918,-0.702,-2.992,0.275
2026-05-19 10:46:53.248,1071152704,48248,1,0.36816,-0.80884,-0.16919,-12.214,16.809,-68.229
2026-05-19 10:46:53.248,1071152704,48248,2,-0.44995,-0.85889,0.14526,-7.748,1.344,-0.145
2026-05-19 10:46:53.448,1071152904,48448,1,0.35352,-0.92578,-0.60669,63.794,30.916,41.397
2026-05-19 10:46:53.448,1071152904,48448,2,-0.46436,-0.85986,0.15796,2.046,1.992,0.389
2026-05-19 10:46:54.648,1071154104,48648,1,0.2644,-0.85229,-0.29614,-63.16,1.916,-1.58
2026-05-19 10:46:54.648,1071154104,48648,2,-0.45361,-0.85742,0.13232,-2.809,4.634,-1.931
2026-05-19 10:46:54.848,1071154304,48848,1,0.42603,-0.56714,-0.64624,-140.168,-117.374,-72.824
2026-05-19 10:46:54.848,1071154304,48848,2,-0.45093,-0.89429,0.13354,-23.794,9.756,-17.321
2026-05-19 10:46:54.048,1071153504,49048,1,0.16431,-0.20605,-0.62256,-189.374,-114.42,-87.672
2026-05-19 10:46:54.048,1071153504,49048,2,0.09277,-0.73267,0.31738,-150.672,-58.176,12.206
2026-05-19 10:46:54.248,1071153704,49248,1,0.03979,0.07886,-0.84448,-20.962,12.634,-5.924
2026-05-19 10:46:54.248,1071153704,49248,2,-0.30225,-0.64258,0.12646,91.489,-93.45,109.962
2026-05-19 10:46:54.448,1071153904,49448,1,0.04272,0.01636,-0.92505,-30.382,-17.053,8.107
2026-05-19 10:46:54.448,1071153904,49448,2,-0.45288,-0.81738,0.17969,-6.107,6.84,17.008
2026-05-19 10:46:55.648,1071155104,49648,1,0.10254,0.04541,-0.92993,-0.87,1.206,-0.229
2026-05-19 10:46:55.648,1071155104,49648,2,-0.45068,-0.85107,0.17261,-1.74,0.107,0.206
2026-05-19 10:46:55.848,1071155304,49848,1,0.10913,0.0459,-0.927,-0.832,1.252,-0.382
2026-05-19 10:46:55.848,1071155304,49848,2,-0.45117,-0.85327,0.17188,-1.504,0.282,0.58
2026-05-19 10:46:55.079,1071154535,50079,1,0.10156,0.04614,-0.91577,-0.557,1.153,-0.466
2026-05-19 10:46:55.079,1071154535,50079,2,-0.45386,-0.84912,0.17334,-1.504,0.183,0.573
2026-05-19 10:46:55.279,1071154735,50279,1,0.11133,0.05273,-0.927,-0.511,1.55,-0.618
2026-05-19 10:46:55.279,1071154735,50279,2,-0.45361,-0.85034,0.18018,-1.504,-0.107,0.679
2026-05-19 10:46:56.479,1071155935,50479,1,0.10645,0.05542,-0.92651,-0.687,1.29,-0.557
2026-05-19 10:46:56.479,1071155935,50479,2,-0.45239,-0.84546,0.18115,-1.511,0.443,0.817
2026-05-19 10:46:56.679,1071156135,50679,1,0.10034,0.05493,-0.92358,-0.733,1.435,-0.458
2026-05-19T11:21:42.983486,,,,,,,,,
