datetime,epoch_ms,ts_millis,mpu_id,ax,ay,az,gx,gy,gz
2026-06-14 15:04:46.659,3333026115,597658,1,0.93579,-0.0791,0.52319,-0.084,5.603,1.809
2026-06-14T15:04:52.984435,,,,,,,,,
2026-06-14 15:04:46.659,3333026115,597658,1,0.93579,-0.0791,0.52319,-0.084,5.603,1.809
2026-06-14 15:04:46.659,3333026115,597658,2,1.03223,0.08228,-0.10205,1.298,2.687,-1.672
2026-06-14 15:04:54.713,3333034169,605713,1,0.89453,-0.12598,0.52979,-2.321,1.473,-1.489
2026-06-14 15:04:54.713,3333034169,605713,2,1.03784,0.11133,-0.13208,-2.878,-1.443,-1.794
2026-06-14 15:04:55.295,3333034751,607294,1,0.89722,-0.13062,0.56226,-2.992,3.496,1.366
2026-06-14 15:04:55.295,3333034751,607294,2,1.05615,0.10083,-0.10498,4.466,1.71,1.611
2026-06-14 15:04:56.494,3333035950,607494,1,0.89185,-0.12378,0.55469,8.092,0.237,2.809
2026-06-14 15:04:56.494,3333035950,607494,2,1.04541,0.12061,-0.11597,5.893,-0.061,-0.74
2026-06-14 15:04:56.743,3333036199,607743,1,0.89014,-0.06689,0.54028,3.756,1.809,-2.038
2026-06-14 15:04:56.743,3333036199,607743,2,1.05078,0.10229,-0.13208,3.458,-7.496,5.092
2026-06-14 15:04:57.432,3333036888,608432,1,0.91699,-0.03418,0.5437,6.534,-0.321,3.672
2026-06-14 15:04:57.432,3333036888,608432,2,1.00977,0.11206,-0.15137,3.733,-2.443,-1.504
2026-06-14 15:04:57.793,3333037249,608793,1,0.89673,-0.03784,0.52588,2.618,0.16,1.947
2026-06-14 15:04:57.793,3333037249,608793,2,1.05127,0.12451,-0.14648,11.252,6.321,-2.374
2026-06-14 15:04:57.216,3333036672,609215,1,0.92554,-0.03613,0.50854,5.504,-2.13,3.069
2026-06-14 15:04:57.216,3333036672,609215,2,1.01758,0.08228,-0.17114,-1.412,-5.099,0.458
2026-06-14 15:04:58.448,3333037904,609448,1,0.94409,-0.02271,0.51538,12.321,-0.336,3.489
2026-06-14 15:04:58.448,3333037904,609448,2,1.0166,0.08984,-0.20557,8.947,4.786,-0.649
2026-06-14 15:04:58.680,3333038136,609680,1,0.927,-0.04492,0.4873,5.618,2.038,2.664
2026-06-14 15:04:58.680,3333038136,609680,2,1.01807,0.08667,-0.20093,1.481,3.168,0.771
2026-06-14 15:04:58.880,3333038336,609880,1,0.92041,-0.03198,0.52051,1.672,2.382,1.107
2026-06-14 15:04:58.880,3333038336,609880,2,1.01343,0.0686,-0.17896,2.489,-0.58,1.771
2026-06-14 15:04:58.104,3333037560,610104,1,0.91357,-0.03857,0.50122,4.374,1.008,1.626
2026-06-14 15:04:58.104,3333037560,610104,2,1.03467,0.09351,-0.09644,1.427,5.534,-3.649
2026-06-14 15:04:59.005,3333038461,611005,1,0.89038,0.05737,0.55591,1.557,3.58,-5.321
2026-06-14 15:04:59.005,3333038461,611005,2,1.03296,0.09131,-0.09766,2.176,3.679,-3.153
2026-06-14 15:04:59.211,3333038667,611211,1,0.90234,0.06982,0.55078,-7.153,5.26,0.519
2026-06-14 15:04:59.211,3333038667,611211,2,1.03394,0.10376,-0.10693,-1.412,3.046,1.008
2026-06-14 15:04:59.411,3333038867,611411,1,0.89502,0.06152,0.58032,-1.458,5.122,1.412
2026-06-14 15:04:59.411,3333038867,611411,2,1.03564,0.11182,-0.1106,11.137,2.664,-4.13
2026-06-14 15:05:01.972,3333041428,612972,1,0.88135,-0.08276,0.58374,2.84,1.382,1.069
2026-06-14 15:05:01.972,3333041428,612972,2,1.03198,0.10278,-0.1709,-0.763,-2.107,-0.573
2026-06-14 15:05:02.806,3333042262,613806,1,0.91943,-0.05151,0.51807,-7.916,-0.321,-4.237
2026-06-14 15:05:02.806,3333042262,613806,2,1.01123,0.08154,-0.146,10.924,1.725,-2.473
2026-06-14 15:05:03.455,3333042911,614455,1,0.96704,-0.03784,0.50635,3.443,4.397,3.008
2026-06-14 15:05:03.455,3333042911,614455,2,1.02441,0.10962,-0.16968,-0.74,-0.947,2.221
2026-06-14 15:05:03.015,3333042471,615015,1,0.93311,-0.02563,0.51343,3.496,1.023,1.664
2026-06-14 15:05:03.015,3333042471,615015,2,1.02124,0.09375,-0.18018,-7.603,3.87,2.282
2026-06-14 15:05:03.215,3333042671,615215,1,0.94116,-0.03101,0.5144,-3.626,1.977,-0.924
2026-06-14 15:05:03.215,3333042671,615215,2,1.00391,0.09155,-0.1709,7.893,0.771,-2.55
2026-06-14 15:05:03.415,3333042871,615415,1,0.93091,-0.01099,0.51001,-12.168,10.55,-2.267
2026-06-14 15:05:03.415,3333042871,615415,2,1.01123,0.06836,-0.16846,-3.466,3.931,0.42
2026-06-14 15:05:04.615,3333044071,615615,1,0.90503,-0.01538,0.52832,-1.931,1.183,4.366
2026-06-14 15:05:04.615,3333044071,615615,2,1.02881,0.0979,-0.1665,-2.015,-1.084,3.099
2026-06-14 15:05:04.815,3333044271,615815,1,1.03906,-0.05054,0.43604,16.084,-15.496,4.237
2026-06-14 15:05:04.815,3333044271,615815,2,1.03491,0.07031,-0.18774,13.863,2.924,-0.405
2026-06-14 15:05:04.015,3333043471,616015,1,0.91504,-0.03418,0.53247,-10.298,16.115,0.74
2026-06-14 15:05:04.015,3333043471,616015,2,1.01904,0.0874,-0.12842,-3.145,10.298,-2.298
2026-06-14 15:05:04.286,3333043742,616285,1,0.88403,-0.02686,0.58228,7.374,5.649,3.191
2026-06-14 15:05:04.286,3333043742,616285,2,1.03955,0.10059,-0.1001,-7.008,5.405,-4.344
2026-06-14 15:05:05.613,3333045069,616612,1,0.85962,-0.03174,0.59863,3.153,6.42,-2.779
2026-06-14 15:05:05.613,3333045069,616612,2,1.02148,0.13403,-0.08765,8.458,5.908,-4.122
2026-06-14 15:05:05.816,3333045272,616816,1,0.87793,-0.01929,0.59985,4.443,2.267,-5.16
2026-06-14 15:05:05.816,3333045272,616816,2,1.03564,0.14038,-0.05835,-4.389,2.863,2.42
2026-06-14 15:05:05.024,3333044480,617024,1,0.87183,-0.00366,0.61182,0.42,0.267,-1.504
2026-06-14 15:05:05.024,3333044480,617024,2,1.03369,0.12183,-0.06885,-4.321,-1.321,0.595
2026-06-14 15:05:05.224,3333044680,617224,1,0.86426,0.00903,0.62231,4.702,-4.466,3.298
2026-06-14 15:05:05.224,3333044680,617224,2,1.00977,0.09424,-0.1189,-16.916,-4.954,2.489
2026-06-14 15:05:06.477,3333045933,617477,1,0.89795,-0.06152,0.57373,-1.153,0.473,5.595
2026-06-14 15:05:06.477,3333045933,617477,2,1.03418,0.09058,-0.10718,20.756,-4.305,-0.099
2026-06-14 15:05:06.720,3333046176,617720,1,0.87305,-0.07666,0.58472,-8.305,2.802,-2.229
2026-06-14 15:05:06.720,3333046176,617720,2,1.01929,0.08667,-0.13135,5.557,-1.046,-2.168
2026-06-14 15:05:06.920,3333046376,617920,1,0.90771,-0.05859,0.54272,-10.061,7.405,-2.824
2026-06-14 15:05:06.920,3333046376,617920,2,1.03271,0.07861,-0.14038,-1.321,6.504,-1.847
2026-06-14 15:05:06.120,3333045576,618120,1,0.88525,-0.073,0.57178,9.191,3.481,6.374
2026-06-14 15:05:06.120,3333045576,618120,2,1.02295,0.10083,-0.13892,2.618,-0.771,1.504
2026-06-14 15:05:06.406,3333045862,618406,1,0.89136,-0.06494,0.5752,1.275,-1.466,-0.198
2026-06-14 15:05:06.406,3333045862,618406,2,1.03271,0.08325,-0.12866,1.061,3.45,0.794
2026-06-14 15:05:07.617,3333047073,618617,1,0.88232,-0.08203,0.56396,3.847,-1.344,-1.84
2026-06-14 15:05:07.617,3333047073,618617,2,1.0127,0.10669,-0.16357,-18.771,-16.748,-5.718
2026-06-14 15:05:07.846,3333047302,618846,1,0.90088,-0.05176,0.55298,4.87,-0.489,1.443
2026-06-14 15:05:07.846,3333047302,618846,2,1.01514,0.09888,-0.1687,7.718,3.221,-1.351
2026-06-14 15:05:07.244,3333046700,619244,1,0.92188,-0.00122,0.552,23.992,-1.466,-2.153
2026-06-14 15:05:07.244,3333046700,619244,2,1.01538,0.11304,-0.17603,-2.908,-1.015,-0.817
2026-06-14 15:05:08.464,3333047920,619464,1,0.90771,-0.0271,0.54565,1.298,2.702,1.985
2026-06-14 15:05:08.464,3333047920,619464,2,1.03369,0.06519,-0.11987,14.435,17.519,-6.595
2026-06-14 15:05:08.767,3333048223,619767,1,0.9126,-0.07764,0.55859,7.924,14.718,18.229
2026-06-14 15:05:08.767,3333048223,619767,2,0.94287,0.23511,-0.15039,39.115,23.221,-25.962
2026-06-14 15:05:08.967,3333048423,619967,1,0.82007,0.1311,0.54834,-9.244,-1.008,-9.916
2026-06-14 15:05:08.967,3333048423,619967,2,1.21362,0.07935,-0.03979,-14.458,5.168,21.695
2026-06-14 15:05:08.222,3333047678,620222,1,0.88892,-0.13916,0.5332,42.519,-35.137,20.443
2026-06-14 15:05:08.222,3333047678,620222,2,0.90381,0.19409,-0.12866,-12.947,-18.038,-16.947
2026-06-14 15:05:09.423,3333048879,620423,1,0.99756,-0.03711,0.46851,116.038,-38.565,52.183
2026-06-14 15:05:09.423,3333048879,620423,2,1.12012,0.04199,-0.21924,-3.183,-8.038,3.198
2026-06-14 15:05:09.626,3333049082,620626,1,0.90747,-0.10718,0.44385,-24.847,-2.573,-9.84
2026-06-14 15:05:09.626,3333049082,620626,2,1.04736,0.08032,-0.2644,16.824,22.511,4.809
2026-06-14 15:05:09.826,3333049282,620826,1,0.96606,-0.03638,0.45557,-12.611,4.985,6.092
2026-06-14 15:05:09.826,3333049282,620826,2,1.04468,0.04907,-0.25513,-21.26,-10.954,1.802
2026-06-14 15:05:09.097,3333048553,621097,1,0.70825,-0.2312,0.55298,-29.702,32.298,-18.244
2026-06-14 15:05:09.097,3333048553,621097,2,0.91211,0.14063,-0.16162,53.153,5.26,-16.061
2026-06-14 15:05:09.321,3333048777,621321,1,0.89478,-0.052,0.54175,-27.641,-1.649,-12.992
2026-06-14 15:05:09.321,3333048777,621321,2,0.98804,0.07129,-0.28076,10.908,-6.45,7.771
2026-06-14 15:05:10.521,3333049977,621521,1,0.99951,-0.06714,0.41968,-11.435,0.122,-1.786
2026-06-14 15:05:10.521,3333049977,621521,2,0.9917,0.07251,-0.28687,3.145,7.046,-0.359
2026-06-14 15:05:10.721,3333050177,621721,1,0.96631,-0.05078,0.43335,0.015,7.26,2.748
2026-06-14 15:05:10.721,3333050177,621721,2,0.96606,0.06421,-0.28076,0.038,6.122,3.328
2026-06-14 15:05:10.941,3333050397,621941,1,0.94458,-0.09497,0.45361,-2.87,2.748,-0.939
2026-06-14 15:05:10.941,3333050397,621941,2,0.9917,0.05005,-0.25708,-0.977,6.183,-0.802
2026-06-14 15:05:10.152,3333049608,622151,1,0.96484,-0.08862,0.43335,0.481,4.679,-2.229
2026-06-14 15:05:10.152,3333049608,622151,2,1.0,0.04614,-0.24438,10.527,9.634,-2.061
2026-06-14 15:05:10.351,3333049807,622351,1,0.97095,-0.04077,0.4375,0.87,6.031,-1.275
2026-06-14 15:05:10.351,3333049807,622351,2,0.99707,0.05566,-0.23389,6.16,6.565,-0.313
2026-06-14 15:05:11.653,3333051109,622653,1,0.95044,-0.06665,0.46289,4.84,4.969,1.87
2026-06-14 15:05:11.653,3333051109,622653,2,0.99512,0.07422,-0.28198,-7.42,-4.137,7.298
2026-06-14 15:05:11.865,3333051321,622865,1,0.96387,-0.052,0.44604,5.244,-2.084,0.336
2026-06-14 15:05:11.865,3333051321,622865,2,0.99512,0.07495,-0.2395,2.45,2.969,-2.481
2026-06-14 15:05:11.065,3333050521,623065,1,0.94946,-0.03931,0.45166,3.038,1.496,3.046
2026-06-14 15:05:11.065,3333050521,623065,2,0.99634,0.06787,-0.24683,2.176,3.763,3.992
2026-06-14 15:05:11.265,3333050721,623265,1,0.94873,-0.07471,0.45068,-0.84,1.107,3.359
2026-06-14 15:05:11.265,3333050721,623265,2,0.99438,0.05737,-0.24829,-1.099,-0.405,0.107
2026-06-14 15:05:12.548,3333052004,623548,1,0.95117,-0.06689,0.45972,3.687,1.168,1.359
2026-06-14 15:05:12.548,3333052004,623548,2,0.99194,0.05444,-0.25439,0.061,2.153,-0.405
2026-06-14 15:05:12.748,3333052204,623748,1,0.94946,-0.06982,0.47144,1.71,1.359,-0.802
2026-06-14 15:05:12.748,3333052204,623748,2,0.99072,0.05396,-0.2522,0.336,2.443,-0.397
2026-06-14 15:05:12.969,3333052425,623969,1,0.94458,-0.06348,0.46143,2.641,0.252,0.84
2026-06-14 15:05:12.969,3333052425,623969,2,0.99072,0.06201,-0.25635,0.489,0.603,-0.496
2026-06-14 15:05:12.251,3333051707,624251,1,0.9502,-0.06836,0.45703,0.733,2.084,0.313
2026-06-14 15:05:12.251,3333051707,624251,2,0.99146,0.05957,-0.25391,1.221,1.664,0.496
2026-06-14 15:05:13.451,3333052907,624451,1,0.95386,-0.06616,0.45679,1.176,3.237,1.42
2026-06-14 15:05:13.451,3333052907,624451,2,0.99194,0.05786,-0.25928,-1.076,1.901,0.229
2026-06-14 15:05:13.651,3333053107,624651,1,0.95483,-0.07202,0.45386,0.45,1.885,1.0
2026-06-14 15:05:13.651,3333053107,624651,2,1.00317,0.05615,-0.25,1.725,3.046,-0.695
2026-06-14 15:05:13.902,3333053358,624902,1,0.93774,-0.09009,0.47437,-3.13,3.374,1.26
2026-06-14 15:05:13.902,3333053358,624902,2,0.9895,0.05591,-0.23828,9.695,1.481,-4.351
2026-06-14 15:05:13.174,3333052630,625174,1,0.93481,-0.08545,0.46069,3.176,3.137,3.939
2026-06-14 15:05:13.174,3333052630,625174,2,1.01147,0.04663,-0.23438,-0.786,-0.321,0.656
2026-06-14 15:05:13.374,3333052830,625374,1,0.91772,-0.08716,0.48511,0.542,5.076,0.084
2026-06-14 15:05:13.374,3333052830,625374,2,1.00928,0.04712,-0.23535,-0.466,-1.756,-0.458
2026-06-14 15:05:14.605,3333054061,625604,1,0.94043,-0.07104,0.4751,5.237,1.588,2.13
2026-06-14 15:05:14.605,3333054061,625604,2,1.00146,0.03394,-0.22925,-0.595,3.985,0.885
2026-06-14 15:05:14.905,3333054361,625905,1,0.95288,-0.08765,0.4729,-3.916,3.718,-3.458
2026-06-14 15:05:14.905,3333054361,625905,2,1.00171,0.03491,-0.23511,-2.672,2.756,1.183
2026-06-14 15:05:14.105,3333053561,626105,1,0.95923,-0.07861,0.47949,5.084,3.275,1.092
2026-06-14 15:05:14.105,3333053561,626105,2,0.99316,0.05005,-0.23633,-1.832,0.321,-0.947
2026-06-14 15:05:14.305,3333053761,626305,1,0.94409,-0.04443,0.44727,12.008,-0.168,3.137
2026-06-14 15:05:14.305,3333053761,626305,2,1.00586,0.06641,-0.20459,5.435,11.0,-2.611
2026-06-14 15:05:15.529,3333054985,626528,1,0.93555,-0.06323,0.50098,3.389,3.412,-0.252
2026-06-14 15:05:15.529,3333054985,626528,2,0.98901,0.04712,-0.21436,10.45,3.664,-5.084
2026-06-14 15:05:15.728,3333055184,626728,1,0.93945,-0.08545,0.4707,-7.45,-0.206,-9.427
2026-06-14 15:05:15.728,3333055184,626728,2,1.02295,0.12134,-0.12427,2.496,-4.908,1.389
2026-06-14 15:05:15.928,3333055384,626928,1,0.9585,-0.06567,0.46313,1.206,1.985,-2.015
2026-06-14 15:05:15.928,3333055384,626928,2,0.99756,0.03394,-0.19312,3.397,3.496,0.893
2026-06-14 15:05:15.128,3333054584,627128,1,0.93872,-0.04199,0.50732,-8.412,4.282,-4.634
2026-06-14 15:05:15.128,3333054584,627128,2,1.02979,0.07593,-0.19409,-11.817,-1.038,2.802
2026-06-14 15:05:15.355,3333054811,627355,1,0.94287,-0.0354,0.49756,-6.237,1.718,-4.137
2026-06-14 15:05:15.355,3333054811,627355,2,1.07813,0.06006,-0.19189,-24.977,11.786,-2.29
2026-06-14 15:05:16.560,3333056016,627560,1,0.93555,-0.03882,0.45557,15.069,-5.504,2.237
2026-06-14 15:05:16.560,3333056016,627560,2,1.01929,0.05542,-0.18701,2.031,2.26,-5.198
2026-06-14 15:05:16.760,3333056216,627760,1,0.94409,-0.02026,0.49219,5.916,-1.023,3.969
2026-06-14 15:05:16.760,3333056216,627760,2,1.02393,0.13843,-0.10522,-23.565,29.863,-3.443
2026-06-14 15:05:16.990,3333056446,627990,1,0.94434,-0.0188,0.42334,-3.214,-12.244,-6.305
2026-06-14 15:05:16.990,3333056446,627990,2,1.09326,0.11621,0.03833,14.947,3.13,3.634
2026-06-14 15:05:17.465,3333056921,628465,1,0.99805,-0.02686,0.37231,8.855,1.45,7.084
2026-06-14 15:05:17.465,3333056921,628465,2,1.02979,0.1167,-0.02319,7.664,-6.74,1.954
2026-06-14 15:05:17.665,3333057121,628665,1,0.95483,0.01123,0.39624,41.58,-19.053,9.534
2026-06-14 15:05:17.665,3333057121,628665,2,1.04663,0.0896,-0.04541,9.038,3.58,-3.939
2026-06-14 15:05:17.036,3333056492,629036,1,0.98584,-0.03125,0.36841,-1.534,3.023,2.252
2026-06-14 15:05:17.036,3333056492,629036,2,1.04712,0.07495,-0.06934,6.206,0.916,-2.779
2026-06-14 15:05:17.236,3333056692,629236,1,0.98975,-0.02075,0.3894,1.496,3.847,1.008
2026-06-14 15:05:17.236,3333056692,629236,2,1.02808,0.09863,-0.05933,2.382,0.832,-0.504
2026-06-14 15:05:18.436,3333057892,629436,1,0.99243,-0.02075,0.37427,-3.405,2.718,-2.748
2026-06-14 15:05:18.436,3333057892,629436,2,1.03955,0.08276,-0.07104,1.26,0.664,0.947
2026-06-14 15:05:18.656,3333058112,629656,1,0.99414,-0.01099,0.37817,1.863,0.748,0.397
2026-06-14 15:05:18.656,3333058112,629656,2,1.03784,0.07373,-0.0979,-1.565,1.221,1.092
2026-06-14 15:05:18.883,3333058339,629883,1,0.99316,-0.01074,0.38477,1.366,3.626,-0.298
2026-06-14 15:05:18.883,3333058339,629883,2,1.04297,0.09229,-0.0979,-4.145,5.26,-1.832
2026-06-14 15:05:18.083,3333057539,630083,1,0.98584,-0.02124,0.37378,1.092,4.679,-0.649
2026-06-14 15:05:18.083,3333057539,630083,2,1.03589,0.073,-0.10181,2.397,3.55,-1.168
2026-06-14 15:05:18.283,3333057739,630283,1,0.97705,-0.01001,0.38843,9.496,0.824,2.298
2026-06-14 15:05:18.283,3333057739,630283,2,1.03516,0.08594,-0.08374,3.252,1.168,-0.718
2026-06-14 15:05:19.483,3333058939,630483,1,0.97754,0.00391,0.37964,4.595,2.344,0.718
2026-06-14 15:05:19.483,3333058939,630483,2,1.03955,0.09717,-0.0957,3.076,1.588,-0.603
2026-06-14 15:05:19.762,3333059218,630762,1,0.98682,0.00391,0.38379,1.221,2.099,1.008
2026-06-14 15:05:19.762,3333059218,630762,2,1.03442,0.08691,-0.08765,-0.634,1.504,0.023
2026-06-14 15:05:19.962,3333059418,630962,1,0.98779,-0.01489,0.38745,0.519,2.74,0.893
2026-06-14 15:05:19.962,3333059418,630962,2,1.03418,0.07837,-0.09546,0.344,2.969,-0.672
2026-06-14 15:05:19.221,3333058677,631221,1,0.99707,0.00415,0.38013,-2.16,3.87,-1.687
2026-06-14 15:05:19.221,3333058677,631221,2,1.04224,0.08423,-0.07666,-1.618,1.878,0.13
2026-06-14 15:05:20.452,3333059908,631452,1,0.99561,-0.01392,0.36426,-6.763,4.84,-0.748
2026-06-14 15:05:20.452,3333059908,631452,2,1.03564,0.07397,-0.08887,-1.565,1.061,0.13
2026-06-14 15:05:20.652,3333060108,631652,1,0.97852,-0.01294,0.38135,-3.397,5.748,0.817
2026-06-14 15:05:20.652,3333060108,631652,2,1.04297,0.07959,-0.09399,-1.061,-0.542,0.107
2026-06-14 15:05:20.852,3333060308,631852,1,0.9873,-0.01782,0.3894,-2.496,3.786,-0.885
2026-06-14 15:05:20.852,3333060308,631852,2,1.0354,0.07764,-0.08838,1.588,2.038,-0.267
2026-06-14 15:05:20.062,3333059518,632062,1,0.99194,-0.00195,0.37305,5.672,1.176,5.878
2026-06-14 15:05:20.062,3333059518,632062,2,1.02759,0.10449,-0.08594,-11.336,-3.031,-1.84
2026-06-14 15:05:20.308,3333059764,632308,1,0.98901,-0.01514,0.38525,4.595,1.702,2.008
2026-06-14 15:05:20.308,3333059764,632308,2,1.03174,0.13281,-0.09814,-16.397,-6.313,-4.885
2026-06-14 15:05:21.508,3333060964,632508,1,0.98267,-0.02246,0.38696,-1.824,2.282,-1.412
2026-06-14 15:05:21.508,3333060964,632508,2,1.03882,0.08643,-0.07324,-0.031,3.382,0.046
2026-06-14 15:05:21.785,3333061241,632785,1,0.99829,-0.02612,0.36768,8.374,0.573,2.359
2026-06-14 15:05:21.785,3333061241,632785,2,1.05493,0.10669,-0.07983,3.412,1.26,-0.405
2026-06-14 15:05:21.014,3333060470,633014,1,0.98804,0.00049,0.36206,-1.527,2.321,
2026-06-14 15:05:21.014,3333060470,633014,2,1.03735,0.08203,-0.09668,-0.557,3.641,0.511
2026-06-14 15:05:21.214,3333060670,633214,1,0.98901,-0.00391,0.38623,14.634,1.336,2.229
2026-06-14 15:05:21.214,3333060670,633214,2,1.02197,0.11353,-0.10864,-10.71,2.824,3.496
2026-06-14 15:05:22.507,3333061963,633507,1,0.98486,0.03564,0.38184,11.328,1.908,-1.298
2026-06-14 15:05:22.507,3333061963,633507,2,1.03467,0.09058,-0.08521,-3.031,-1.229,0.672
2026-06-14 15:05:22.707,3333062163,633707,1,0.99561,-0.03003,0.36255,5.496,5.45,3.542
2026-06-14 15:05:22.707,3333062163,633707,2,1.03027,0.07788,-0.11963,0.908,-2.038,-1.321
2026-06-14 15:05:22.907,3333062363,633907,1,0.99048,-0.03467,0.38696,-2.298,2.443,-1.542
2026-06-14 15:05:22.907,3333062363,633907,2,1.03882,0.09229,-0.10254,3.618,1.985,-3.664
2026-06-14 15:05:22.146,3333061602,634146,1,0.96851,-0.00366,0.43311,3.29,5.473,-0.855
2026-06-14 15:05:22.146,3333061602,634146,2,1.05005,0.125,-0.10693,-37.679,-17.634,0.603
2026-06-14 15:05:22.346,3333061802,634346,1,0.99365,0.00269,0.37939,2.74,-3.908,-6.328
2026-06-14 15:05:22.346,3333061802,634346,2,1.02563,0.14526,-0.08862,1.779,0.863,-1.076
2026-06-14 15:05:23.546,3333063002,634546,1,0.98071,0.01001,0.39624,-8.374,1.427,-1.58
2026-06-14 15:05:23.546,3333063002,634546,2,1.03955,0.09082,-0.09375,17.74,7.687,1.031
2026-06-14 15:05:23.753,3333063209,634753,1,0.98682,0.00317,0.39233,6.084,0.534,5.298
2026-06-14 15:05:23.753,3333063209,634753,2,1.02539,0.11328,-0.11157,-11.26,-1.779,-0.29
2026-06-14 15:05:23.955,3333063411,634955,1,0.97241,-0.01294,0.39673,-2.26,2.985,1.107
2026-06-14 15:05:23.955,3333063411,634955,2,1.0437,0.11523,-0.08716,-0.71,-1.038,-0.87
2026-06-14 15:05:23.155,3333062611,635155,1,0.98535,-0.00854,0.40503,-2.191,2.427,-1.359
2026-06-14 15:05:23.155,3333062611,635155,2,1.03003,0.10791,-0.09595,1.221,1.893,-0.672
2026-06-14 15:05:24.581,3333064037,635581,1,0.979,-0.00488,0.38501,0.756,1.229,0.672
2026-06-14 15:05:24.581,3333064037,635581,2,1.03027,0.10229,-0.1189,1.099,1.634,-0.489
2026-06-14 15:05:24.781,3333064237,635781,1,0.99023,0.0022,0.3877,-0.969,2.405,0.527
2026-06-14 15:05:24.781,3333064237,635781,2,1.03125,0.10864,-0.11353,1.023,1.313,0.122
2026-06-14 15:05:24.062,3333063518,636061,1,0.98096,-0.0061,0.38696,1.672,2.099,1.069
2026-06-14 15:05:24.062,3333063518,636061,2,1.02759,0.1062,-0.12036,0.496,1.435,0.122
2026-06-14 15:05:24.261,3333063717,636261,1,0.9812,-0.01025,0.3855,0.779,2.084,0.786
2026-06-14 15:05:24.261,3333063717,636261,2,1.02759,0.10498,-0.13159,-0.336,0.611,0.069
2026-06-14 15:05:25.461,3333064917,636461,1,0.98584,-0.01123,0.38135,0.55,2.924,1.008
2026-06-14 15:05:25.461,3333064917,636461,2,1.02246,0.09888,-0.12573,0.664,1.214,-0.031
2026-06-14 15:05:25.691,3333065147,636691,1,0.98511,-0.01318,0.38306,2.244,0.573,1.672
2026-06-14 15:05:25.691,3333065147,636691,2,1.03271,0.1001,-0.13794,0.275,0.611,0.13
2026-06-14 15:05:25.891,3333065347,636891,1,0.97754,-0.01074,0.39014,1.221,2.023,0.931
2026-06-14 15:05:25.891,3333065347,636891,2,1.02954,0.09546,-0.12354,1.153,0.931,
2026-06-14 15:05:25.115,3333064571,637115,1,0.99341,-0.01611,0.37646,3.481,4.153,-0.855
2026-06-14 15:05:25.115,3333064571,637115,2,1.02661,0.09912,-0.11768,-0.618,3.779,-0.748
2026-06-14 15:05:25.342,3333064798,637342,1,0.98633,-0.00342,0.39331,-0.557,1.992,0.847
2026-06-14 15:05:25.342,3333064798,637342,2,1.03076,0.10645,-0.11523,-0.359,3.221,-0.328
2026-06-14 15:05:26.542,3333065998,637542,1,0.99829,-0.00586,0.38354,2.122,6.275,1.031
2026-06-14 15:05:26.542,3333065998,637542,2,1.05054,0.10938,-0.08887,2.916,12.046,-0.718
2026-06-14 15:05:26.832,3333066288,637832,1,1.00757,-0.01294,0.38135,-0.336,35.748,0.42
2026-06-14 15:05:26.832,3333066288,637832,2,1.0293,0.17944,0.15088,-24.13,64.939,-20.618
2026-06-14 15:05:26.189,3333065645,638189,1,0.60864,-0.05298,0.73145,-12.863,105.893,6.672
2026-06-14 15:05:26.189,3333065645,638189,2,0.90356,0.26196,0.42725,-12.053,72.13,-21.183
2026-06-14 15:05:27.445,3333066901,638444,1,0.23511,-0.02759,0.98828,14.122,82.939,4.336
2026-06-14 15:05:27.445,3333066901,638444,2,0.85474,0.30811,0.63037,-5.107,56.252,-9.565
2026-06-14 15:05:27.644,3333067100,638644,1,0.03369,-0.03906,1.08984,-0.084,55.305,5.58
2026-06-14 15:05:27.644,3333067100,638644,2,0.77637,0.26611,0.78442,-15.305,28.679,-3.099
2026-06-14 15:05:27.844,3333067300,638844,1,-0.09619,0.01685,1.08057,13.267,33.061,6.718
2026-06-14 15:05:27.844,3333067300,638844,2,0.65332,0.25366,0.8877,-13.557,23.351,-2.336
2026-06-14 15:05:27.072,3333066528,639072,1,-0.16162,0.02515,1.07983,0.275,25.58,2.137
2026-06-14 15:05:27.072,3333066528,639072,2,0.59302,0.24683,0.91821,-4.473,15.321,-11.328
2026-06-14 15:05:27.272,3333066728,639272,1,-0.22876,0.02734,1.02417,2.962,16.679,-1.466
2026-06-14 15:05:27.272,3333066728,639272,2,0.52832,0.21265,0.9541,-1.687,8.267,-2.504
2026-06-14 15:05:28.557,3333068013,639557,1,-0.25488,0.03979,1.00928,0.137,3.893,1.015
2026-06-14 15:05:28.557,3333068013,639557,2,0.54565,0.21997,0.95898,-2.588,2.229,0.74
2026-06-14 15:05:28.787,3333068243,639787,1,-0.2522,0.02783,1.00439,4.252,4.107,-0.244
2026-06-14 15:05:28.787,3333068243,639787,2,0.54736,0.20459,0.96362,-1.756,2.145,-0.16
2026-06-14 15:05:28.987,3333068443,639987,1,-0.26245,0.01587,0.99121,1.176,6.412,1.779
2026-06-14 15:05:28.987,3333068443,639987,2,0.53247,0.21143,0.95313,-0.847,4.496,1.099
2026-06-14 15:05:28.187,3333067643,640187,1,-0.28467,0.01782,1.00195,-0.16,5.55,0.947
2026-06-14 15:05:28.187,3333067643,640187,2,0.53052,0.21509,0.95825,-0.679,3.649,0.153
2026-06-14 15:05:28.387,3333067843,640387,1,-0.29419,0.00464,0.99634,1.061,3.305,-0.771
2026-06-14 15:05:28.387,3333067843,640387,2,0.53979,0.21313,0.97852,-3.427,1.237,-0.634
2026-06-14 15:05:29.590,3333069046,640590,1,-0.29468,0.00513,0.99512,1.557,2.733,-1.74
2026-06-14 15:05:29.590,3333069046,640590,2,0.53979,0.2019,0.96558,1.015,-0.275,-1.252
2026-06-14 15:05:29.790,3333069246,640790,1,-0.2832,0.01147,0.98779,1.595,2.237,-1.122
2026-06-14 15:05:29.790,3333069246,640790,2,0.53906,0.19678,0.97192,-1.359,-0.962,-0.069
2026-06-14 15:05:29.026,3333068482,641026,1,-0.36475,0.00952,1.13354,-3.702,-22.191,0.366
2026-06-14 15:05:29.026,3333068482,641026,2,0.63257,0.22363,0.91895,18.137,-58.321,11.489
2026-06-14 15:05:29.256,3333068712,641256,1,-0.11133,-0.00806,1.09766,-11.29,-93.74,-5.962
2026-06-14 15:05:29.256,3333068712,641256,2,0.82471,0.22363,0.60034,39.908,-84.221,20.282
2026-06-14 15:05:30.463,3333069919,641463,1,0.33618,-0.04834,0.87183,0.634,-114.733,0.992
2026-06-14 15:05:30.463,3333069919,641463,2,0.98145,0.23853,0.3252,42.168,-70.611,24.031
2026-06-14 15:05:30.663,3333070119,641663,1,0.67798,-0.04541,0.69824,-5.679,-77.183,2.733
2026-06-14 15:05:30.663,3333070119,641663,2,1.03857,0.17261,0.17822,11.733,-62.122,29.595
2026-06-14 15:05:30.863,3333070319,641863,1,0.85327,-0.08569,0.55786,-4.099,-38.481,-2.504
2026-06-14 15:05:30.863,3333070319,641863,2,1.05664,0.06006,-0.06934,-5.878,-31.916,14.672
2026-06-14 15:05:30.092,3333069548,642092,1,0.95215,-0.04712,0.5022,-1.679,-18.198,-7.16
2026-06-14 15:05:30.092,3333069548,642092,2,1.33032,-0.09106,-0.20044,-40.511,-66.802,6.168
2026-06-14 15:05:30.292,3333069748,642292,1,0.94287,-0.03589,0.47559,-7.206,-10.618,-8.282
2026-06-14 15:05:30.292,3333069748,642292,2,1.00928,0.08887,-0.25342,-19.305,-8.725,0.206
2026-06-14 15:05:31.492,3333070948,642492,1,0.96509,-0.02271,0.45605,0.015,-1.626,-2.947
2026-06-14 15:05:31.492,3333070948,642492,2,0.99561,0.08496,-0.2627,3.405,-0.664,-1.87
2026-06-14 15:05:31.809,3333071265,642809,1,0.94653,-0.02637,0.47412,7.809,3.084,9.885
2026-06-14 15:05:31.809,3333071265,642809,2,0.9856,0.08374,-0.28589,5.412,3.282,-0.855
2026-06-14 15:05:31.009,3333070465,643009,1,0.93286,-0.03687,0.4856,4.588,4.053,0.443
2026-06-14 15:05:31.009,3333070465,643009,2,0.98999,0.07886,-0.26123,0.397,3.863,-0.099
2026-06-14 15:05:31.209,3333070665,643209,1,0.94775,-0.03711,0.48413,-2.832,2.145,-1.893
2026-06-14 15:05:31.209,3333070665,643209,2,0.98779,0.07642,-0.26611,-1.252,0.015,1.389
2026-06-14 15:05:32.461,3333071917,643461,1,0.94971,-0.03613,0.48145,2.069,1.214,2.298
2026-06-14 15:05:32.461,3333071917,643461,2,0.98999,0.07715,-0.26074,0.748,2.733,-0.275
2026-06-14 15:05:32.682,3333072138,643682,1,0.93311,-0.05127,0.49243,0.023,2.679,1.71
2026-06-14 15:05:32.682,3333072138,643682,2,0.98193,0.073,-0.26636,1.237,0.641,-0.618
2026-06-14 15:05:32.882,3333072338,643882,1,0.95386,-0.04468,0.47046,2.046,-0.328,-0.603
2026-06-14 15:05:32.882,3333072338,643882,2,0.98413,0.07983,-0.27246,0.145,1.45,-0.977
2026-06-14 15:05:32.082,3333071538,644082,1,0.95117,-0.03516,0.46899,1.42,1.771,-0.794
2026-06-14 15:05:32.082,3333071538,644082,2,0.98267,0.07495,-0.28613,-0.122,0.412,-0.389
2026-06-14 15:05:32.315,3333071771,644315,1,0.94897,-0.0332,0.47339,0.305,2.389,-0.252
2026-06-14 15:05:32.315,3333071771,644315,2,0.98047,0.07495,-0.27124,0.237,1.534,-0.901
2026-06-14 15:05:33.674,3333073130,644674,1,0.94604,-0.04004,0.47559,1.748,1.496,-0.481
2026-06-14 15:05:33.674,3333073130,644674,2,0.99365,0.02881,-0.27637,-7.71,-0.702,-0.969
2026-06-14 15:05:33.977,3333073433,644977,1,0.94238,-0.03052,0.47046,-0.985,3.145,-1.084
2026-06-14 15:05:33.977,3333073433,644977,2,0.98315,0.09155,-0.28442,-1.466,2.344,0.305
2026-06-14 15:05:34.423,3333073879,645423,1,0.94482,-0.02661,0.47485,2.206,1.947,1.489
2026-06-14 15:05:34.423,3333073879,645423,2,0.98193,0.08154,-0.27661,0.649,1.618,-0.359
2026-06-14 15:05:34.804,3333074260,645803,1,0.94116,-0.04224,0.47241,1.244,1.328,1.443
2026-06-14 15:05:34.804,3333074260,645803,2,0.97949,0.07715,-0.2832,0.786,0.725,0.038
2026-06-14 15:05:34.027,3333073483,646027,1,0.95581,-0.03247,0.47144,1.069,1.206,-0.115
2026-06-14 15:05:34.027,3333073483,646027,2,0.98071,0.0791,-0.27466,0.55,0.87,0.061
2026-06-14 15:05:34.227,3333073683,646227,1,0.95605,-0.03638,0.45581,1.267,1.053,0.702
2026-06-14 15:05:34.227,3333073683,646227,2,0.97974,0.07715,-0.28687,1.573,0.458,0.16
2026-06-14 15:05:35.427,3333074883,646427,1,0.95898,-0.03442,0.4541,1.008,0.992,1.16
2026-06-14 15:05:35.427,3333074883,646427,2,0.97632,0.07959,-0.28345,0.847,1.397,-0.26
2026-06-14 15:05:35.627,3333075083,646627,1,0.95313,-0.03955,0.45337,1.634,2.0,0.969
2026-06-14 15:05:35.627,3333075083,646627,2,0.98096,0.07007,-0.30371,0.015,1.038,-1.084
2026-06-14 15:05:35.869,3333075325,646869,1,0.95581,-0.0166,0.46362,4.832,2.656,1.145
2026-06-14 15:05:35.869,3333075325,646869,2,0.97461,0.07495,-0.29028,2.588,2.046,-1.427
2026-06-14 15:05:35.069,3333074525,647069,1,0.95166,-0.03149,0.46021,1.275,1.969,2.214
2026-06-14 15:05:35.069,3333074525,647069,2,0.98071,0.08057,-0.28345,0.756,2.435,-0.748
2026-06-14 15:05:35.269,3333074725,647269,1,0.95972,-0.03125,0.43921,2.542,2.336,1.053
2026-06-14 15:05:35.269,3333074725,647269,2,0.98315,0.08008,-0.29443,0.183,1.489,-0.076
2026-06-14 15:05:36.504,3333075960,647504,1,0.96167,-0.03394,0.45166,-0.282,2.496,0.008
2026-06-14 15:05:36.504,3333075960,647504,2,0.98389,0.07471,-0.28784,-0.389,1.771,0.13
2026-06-14 15:05:36.840,3333076296,647839,1,0.94897,-0.02515,0.45532,0.008,2.053,0.267
2026-06-14 15:05:36.840,3333076296,647839,2,0.97681,0.0835,-0.28467,-0.573,2.229,0.29
2026-06-14 15:05:36.080,3333075536,648080,1,0.9541,-0.03149,0.45947,,3.443,0.42
2026-06-14 15:05:36.080,3333075536,648080,2,0.97803,0.07861,-0.27881,-0.466,4.473,0.145
2026-06-14 15:05:36.297,3333075753,648297,1,0.95605,-0.03784,0.46899,0.366,4.458,0.718
2026-06-14 15:05:36.297,3333075753,648297,2,0.97632,0.08691,-0.2832,-0.947,3.504,-0.573
2026-06-14 15:05:37.497,3333076953,648497,1,0.94653,-0.03906,0.4729,1.832,4.252,0.687
2026-06-14 15:05:37.497,3333076953,648497,2,0.98926,0.08228,-0.27734,0.481,2.74,-0.855
2026-06-14 15:05:37.697,3333077153,648697,1,0.94507,-0.03101,0.48413,1.359,2.466,-0.191
2026-06-14 15:05:37.697,3333077153,648697,2,0.98828,0.08521,-0.27197,1.267,1.145,-0.763
2026-06-14 15:05:37.960,3333077416,648960,1,0.9458,-0.03784,0.48413,1.87,2.198,0.809
2026-06-14 15:05:37.960,3333077416,648960,2,0.98071,0.0813,-0.2854,0.817,1.466,-0.557
2026-06-14 15:05:37.160,3333076616,649160,1,0.95288,-0.02856,0.47681,1.45,1.84,0.458
2026-06-14 15:05:37.160,3333076616,649160,2,0.97607,0.08594,-0.26636,0.649,1.595,-0.863
2026-06-14 15:05:37.360,3333076816,649360,1,0.94775,-0.03247,0.47925,1.298,2.641,0.244
2026-06-14 15:05:37.360,3333076816,649360,2,0.97925,0.0813,-0.27319,0.305,1.802,-0.267
2026-06-14 15:05:38.607,3333078063,649607,1,0.94653,-0.03052,0.47266,1.679,2.321,0.168
2026-06-14 15:05:38.607,3333078063,649607,2,0.98438,0.08325,-0.27295,1.061,2.687,-1.0
2026-06-14 15:05:38.818,3333078274,649818,1,0.95142,-0.01294,0.48022,1.405,2.885,0.214
2026-06-14 15:05:38.818,3333078274,649818,2,0.98022,0.08789,-0.28247,0.847,1.992,-0.29
2026-06-14 15:05:38.018,3333077474,650018,1,0.94458,-0.03101,0.47754,0.931,2.183,1.298
2026-06-14 15:05:38.018,3333077474,650018,2,0.9856,0.08447,-0.26978,-0.229,1.542,0.16
2026-06-14 15:05:38.218,3333077674,650218,1,0.95508,-0.04272,0.47412,0.282,2.221,0.687
2026-06-14 15:05:38.218,3333077674,650218,2,0.98828,0.07983,-0.28882,-0.13,1.817,0.695
2026-06-14 15:05:39.492,3333078948,650492,1,0.95264,-0.02954,0.46777,-1.763,2.626,-0.42
2026-06-14 15:05:39.492,3333078948,650492,2,0.98999,0.07764,-0.27148,-0.908,2.015,0.397
2026-06-14 15:05:39.692,3333079148,650692,1,0.93896,-0.02856,0.47192,-1.542,2.901,-0.023
2026-06-14 15:05:39.692,3333079148,650692,2,0.9895,0.07983,-0.27905,-0.252,0.511,0.389
2026-06-14 15:05:39.975,3333079431,650975,1,0.94385,-0.03394,0.4668,1.924,-0.107,0.076
2026-06-14 15:05:39.975,3333079431,650975,2,0.96045,0.07837,-0.26587,0.504,1.115,0.008
2026-06-14 15:05:39.175,3333078631,651175,1,0.94629,-0.04077,0.4668,0.145,1.183,1.137
2026-06-14 15:05:39.175,3333078631,651175,2,0.98364,0.08008,-0.28345,1.053,0.725,-0.282
2026-06-14 15:05:39.388,3333078844,651388,1,0.95264,-0.03369,0.46118,2.573,1.786,0.992
2026-06-14 15:05:39.388,3333078844,651388,2,0.9834,0.07935,-0.28857,1.389,2.817,-0.427
2026-06-14 15:05:40.744,3333080200,651744,1,0.93823,-0.03857,0.47266,1.679,4.244,1.351
2026-06-14 15:05:40.744,3333080200,651744,2,0.97778,0.07202,-0.28271,1.763,2.824,-0.382
2026-06-14 15:05:40.988,3333080444,651988,1,0.95264,-0.03955,0.46802,2.069,3.847,1.298
2026-06-14 15:05:40.988,3333080444,651988,2,0.97632,0.07959,-0.28369,2.076,1.71,-1.084
2026-06-14 15:05:40.284,3333079740,652284,1,0.9519,-0.04395,0.48901,1.374,2.405,1.527
2026-06-14 15:05:40.284,3333079740,652284,2,0.97998,0.07666,-0.28979,0.244,0.397,-0.435
2026-06-14 15:05:41.510,3333080966,652510,1,0.9563,-0.04102,0.4541,-0.962,2.87,-0.099
2026-06-14 15:05:41.510,3333080966,652510,2,0.98511,0.07544,-0.29321,-0.053,2.55,-0.687
2026-06-14 15:05:41.710,3333081166,652710,1,0.95435,-0.03149,0.47388,-2.687,3.618,-0.763
2026-06-14 15:05:41.710,3333081166,652710,2,0.97754,0.07935,-0.28223,0.87,3.046,0.153
2026-06-14 15:05:41.910,3333081366,652910,1,0.95044,-0.0354,0.46924,1.435,3.504,0.756
2026-06-14 15:05:41.910,3333081366,652910,2,0.97266,0.07715,-0.26807,0.618,0.298,-1.42
2026-06-14 15:05:41.173,3333080629,653173,1,0.95508,-0.05127,0.45972,1.443,0.817,4.206
2026-06-14 15:05:41.173,3333080629,653173,2,0.95605,0.07959,-0.28052,2.344,0.565,-0.084
2026-06-14 15:05:41.378,3333080834,653378,1,0.96216,-0.05322,0.44165,3.427,1.13,2.565
2026-06-14 15:05:41.378,3333080834,653378,2,0.98096,0.08887,-0.29834,1.649,-0.366,-1.55
2026-06-14 15:05:42.578,3333082034,653578,1,0.95386,-0.03418,0.46729,0.802,4.534,0.153
2026-06-14 15:05:42.578,3333082034,653578,2,0.97803,0.09204,-0.29663,0.107,3.328,-0.893
2026-06-14 15:05:42.778,3333082234,653778,1,0.96143,-0.03149,0.45117,,6.733,-1.053
2026-06-14 15:05:42.778,3333082234,653778,2,1.00098,0.09082,-0.27075,-2.145,9.443,-0.168
2026-06-14 15:05:42.043,3333081499,654043,1,0.9187,-0.0293,0.50537,-0.16,9.282,0.832
2026-06-14 15:05:42.043,3333081499,654043,2,0.98145,0.08643,-0.2439,-1.885,3.893,0.71
2026-06-14 15:05:42.243,3333081699,654243,1,0.92456,-0.02808,0.50854,-0.489,0.756,0.947
2026-06-14 15:05:42.243,3333081699,654243,2,0.99609,0.09204,-0.24194,-1.511,-0.718,0.985
2026-06-14 15:05:43.443,3333082899,654443,1,0.93579,-0.04126,0.49194,-1.557,-0.153,
2026-06-14 15:05:43.443,3333082899,654443,2,0.9917,0.08936,-0.26318,-0.038,1.29,0.031
2026-06-14 15:05:43.643,3333083099,654643,1,0.95093,-0.03711,0.48584,1.527,3.733,1.527
2026-06-14 15:05:43.643,3333083099,654643,2,1.0166,0.09668,-0.22876,1.198,12.374,-2.031
2026-06-14 15:05:43.848,3333083304,654848,1,0.97803,-0.04175,0.46265,-0.588,25.725,1.359
2026-06-14 15:05:43.848,3333083304,654848,2,1.04272,0.11572,-0.24243,35.962,40.145,-11.076
2026-06-14 15:05:43.048,3333082504,655048,1,0.87646,-0.05176,0.53418,-2.153,69.099,3.603
2026-06-14 15:05:43.048,3333082504,655048,2,1.02881,0.16016,0.08081,-15.221,75.16,-25.756
2026-06-14 15:05:43.272,3333082728,655272,1,0.47705,-0.00391,0.78833,-1.626,105.504,16.076
2026-06-14 15:05:43.272,3333082728,655272,2,0.96021,0.13843,0.39795,-35.725,81.267,-26.084
2026-06-14 15:05:44.478,3333083934,655478,1,0.19434,-0.13379,0.97119,9.397,92.893,21.298
2026-06-14 15:05:44.478,3333083934,655478,2,0.92285,0.26489,0.58423,-19.649,69.863,-11.351
2026-06-14 15:05:44.690,3333084146,655690,1,-0.09302,-0.06519,1.07397,13.069,72.611,7.763
2026-06-14 15:05:44.690,3333084146,655690,2,0.68921,0.20142,0.79712,-11.13,60.885,-12.87
2026-06-14 15:05:44.892,3333084348,655892,1,-0.25659,-0.04712,1.04712,6.611,43.519,2.412
2026-06-14 15:05:44.892,3333084348,655892,2,0.55688,0.19043,0.96875,-6.679,26.939,-6.282
2026-06-14 15:05:44.113,3333083569,656113,1,-0.3877,-0.04321,1.03516,7.214,19.412,-0.275
2026-06-14 15:05:44.113,3333083569,656113,2,0.51147,0.1875,0.98706,0.176,11.908,-6.55
2026-06-14 15:05:44.313,3333083769,656313,1,-0.36719,-0.0127,0.96558,2.878,4.855,-2.473
2026-06-14 15:05:44.313,3333083769,656313,2,0.50952,0.19482,0.98193,3.336,0.092,-3.878
2026-06-14 15:05:45.513,3333084969,656513,1,-0.4126,-0.02393,1.01733,2.435,-8.611,-2.885
2026-06-14 15:05:45.513,3333084969,656513,2,0.54541,0.20288,0.96484,10.557,-29.305,0.137
2026-06-14 15:05:45.716,3333085172,656716,1,-0.36572,-0.01587,1.11938,-0.427,-50.863,-2.305
2026-06-14 15:05:45.716,3333085172,656716,2,0.68311,0.24438,0.84033,25.443,-68.679,12.87
2026-06-14 15:05:45.916,3333085372,656916,1,-0.08252,0.00342,1.05518,1.137,-99.779,-2.557
2026-06-14 15:05:45.916,3333085372,656916,2,0.94556,0.22778,0.38745,42.061,-96.511,27.122
2026-06-14 15:05:45.270,3333084726,657270,1,0.60938,-0.00537,0.70605,-5.336,-86.634,-3.626
2026-06-14 15:05:45.270,3333084726,657270,2,1.04883,0.10376,-0.00586,5.702,-57.565,29.725
2026-06-14 15:05:46.535,3333085991,657534,1,0.91895,-0.0564,0.52026,-1.16,-41.802,2.519
2026-06-14 15:05:46.535,3333085991,657534,2,1.03979,0.0564,-0.18457,10.557,-29.985,5.244
2026-06-14 15:05:46.776,3333086232,657776,1,0.93481,-0.01855,0.49414,8.13,-20.84,6.038
2026-06-14 15:05:46.776,3333086232,657776,2,0.9834,0.15479,-0.23511,-29.817,-23.405,-3.802
2026-06-14 15:05:46.976,3333086432,657976,1,0.97266,-0.03638,0.46606,-7.847,-6.458,-8.786
2026-06-14 15:05:46.976,3333086432,657976,2,0.95215,0.11401,-0.32837,-7.794,-3.344,3.099
2026-06-14 15:05:46.266,3333085722,658266,1,0.95996,-0.03076,0.4646,1.649,1.603,0.725
2026-06-14 15:05:46.266,3333085722,658266,2,0.95361,0.11621,-0.34106,3.046,-2.008,-1.817
2026-06-14 15:05:47.466,3333086922,658466,1,0.95166,-0.01563,0.45996,1.947,1.924,0.214
2026-06-14 15:05:47.466,3333086922,658466,2,0.94214,0.12231,-0.33301,-0.542,0.336,0.267
2026-06-14 15:05:47.666,3333087122,658666,1,0.96826,-0.00391,0.44116,-0.344,2.214,2.023
2026-06-14 15:05:47.666,3333087122,658666,2,0.9541,0.11377,-0.35596,-1.206,0.779,6.725
2026-06-14 15:05:47.873,3333087329,658873,1,0.94678,-0.08423,0.46094,-5.595,4.489,-5.084
2026-06-14 15:05:47.873,3333087329,658873,2,0.93823,0.10791,-0.36157,-2.74,2.038,-2.412
2026-06-14 15:05:47.073,3333086529,659073,1,0.95581,-0.03052,0.46045,-0.573,2.84,-0.962
2026-06-14 15:05:47.073,3333086529,659073,2,0.94263,0.10034,-0.31592,-1.374,8.397,1.076
2026-06-14 15:05:47.273,3333086729,659273,1,0.94897,-0.05591,0.46509,0.107,4.603,3.939
2026-06-14 15:05:47.273,3333086729,659273,2,0.95068,0.11206,-0.34155,1.374,3.511,-0.344
2026-06-14 15:05:48.517,3333087973,659517,1,0.94531,-0.05859,0.46753,1.206,2.626,0.992
2026-06-14 15:05:48.517,3333087973,659517,2,0.94995,0.11279,-0.34155,1.038,2.099,-1.008
2026-06-14 15:05:48.717,3333088173,659717,1,0.94849,-0.0459,0.46558,0.74,2.366,-1.298
2026-06-14 15:05:48.717,3333088173,659717,2,0.94751,0.10889,-0.33691,0.817,2.924,-0.511
2026-06-14 15:05:48.929,3333088385,659929,1,0.94702,-0.04663,0.47192,1.45,2.29,0.908
2026-06-14 15:05:48.929,3333088385,659929,2,0.95459,0.10986,-0.33008,0.519,1.695,-0.466
2026-06-14 15:05:48.129,3333087585,660129,1,0.9436,-0.04492,0.47388,1.366,2.527,0.527
2026-06-14 15:05:48.129,3333087585,660129,2,0.9541,0.11865,-0.34595,0.298,1.84,0.053
2026-06-14 15:05:48.329,3333087785,660329,1,0.95044,-0.04199,0.45776,1.466,2.137,-0.122
2026-06-14 15:05:48.329,3333087785,660329,2,0.95776,0.10913,-0.33569,0.786,1.718,-0.16
2026-06-14 15:05:49.529,3333088985,660529,1,0.94434,-0.03638,0.47144,0.313,2.84,1.313
2026-06-14 15:05:49.529,3333088985,660529,2,0.95142,0.11084,-0.33374,0.565,1.038,0.168
2026-06-14 15:05:49.729,3333089185,660729,1,0.95313,-0.04297,0.46582,0.534,1.809,1.069
2026-06-14 15:05:49.729,3333089185,660729,2,0.94995,0.11279,-0.35156,0.046,1.527,0.298
2026-06-14 15:05:49.929,3333089385,660929,1,0.94604,-0.04468,0.47095,0.008,2.603,0.519
2026-06-14 15:05:49.929,3333089385,660929,2,0.95313,0.11035,-0.34033,-0.076,1.359,0.168
2026-06-14 15:05:49.129,3333088585,661129,1,0.95435,-0.04541,0.46802,0.198,2.702,0.527
2026-06-14 15:05:49.129,3333088585,661129,2,0.95679,0.10742,-0.33936,-0.191,1.924,0.992
2026-06-14 15:05:49.329,3333088785,661329,1,0.95288,-0.0437,0.46045,0.366,1.885,0.878
2026-06-14 15:05:49.329,3333088785,661329,2,0.94629,0.10718,-0.34131,-1.023,0.389,1.985
2026-06-14 15:05:50.545,3333090001,661545,1,0.95361,-0.06641,0.46313,-1.519,5.183,-3.137
2026-06-14 15:05:50.545,3333090001,661545,2,0.95337,0.09448,-0.35034,-1.023,2.107,-1.794
2026-06-14 15:05:50.745,3333090201,661745,1,0.94116,-0.02246,0.47192,15.901,1.344,3.443
2026-06-14 15:05:50.745,3333090201,661745,2,0.94531,0.11572,-0.33887,2.679,2.649,-0.702
2026-06-14 15:05:50.945,3333090401,661945,1,0.9436,-0.04761,0.48267,-1.45,3.42,3.061
2026-06-14 15:05:50.945,3333090401,661945,2,0.95337,0.10986,-0.35083,0.534,1.481,-0.679
2026-06-14 15:05:50.188,3333089644,662188,1,0.94751,-0.03882,0.46436,-4.198,-0.198,0.817
2026-06-14 15:05:50.188,3333089644,662188,2,0.9502,0.10669,-0.34229,-3.763,0.42,3.618
2026-06-14 15:05:50.416,3333089872,662415,1,0.95337,-0.0686,0.4624,-2.924,1.71,-3.756
2026-06-14 15:05:50.416,3333089872,662415,2,0.95947,0.10352,-0.33887,-5.626,1.481,2.641
2026-06-14 15:05:51.615,3333091071,662615,1,0.94336,-0.05322,0.46997,-3.924,3.534,-1.733
2026-06-14 15:05:51.615,3333091071,662615,2,0.94824,0.09497,-0.32886,-0.771,3.008,0.908
2026-06-14 15:05:51.815,3333091271,662815,1,0.948,-0.04248,0.48022,-1.809,3.397,1.282
2026-06-14 15:05:51.815,3333091271,662815,2,0.95386,0.08716,-0.33179,-1.885,3.748,1.351
2026-06-14 15:05:51.015,3333090471,663015,1,0.93579,-0.05542,0.48901,2.573,2.626,5.832
2026-06-14 15:05:51.015,3333090471,663015,2,0.96655,0.0874,-0.32935,1.58,5.542,0.931
2026-06-14 15:05:51.274,3333090730,663274,1,0.9231,-0.09521,0.46631,-7.092,13.221,-8.076
2026-06-14 15:05:51.274,3333090730,663274,2,0.97559,0.10376,-0.32886,3.527,0.733,-4.229
2026-06-14 15:05:52.474,3333091930,663474,1,0.92139,-0.05542,0.47559,-9.061,3.481,-3.573
2026-06-14 15:05:52.474,3333091930,663474,2,0.95435,0.07202,-0.302,-1.84,-4.626,0.038
2026-06-14 15:05:52.674,3333092130,663674,1,0.95264,-0.05273,0.5144,-7.534,4.176,-3.863
2026-06-14 15:05:52.674,3333092130,663674,2,1.01807,0.13525,-0.22144,3.534,-35.405,-11.405
2026-06-14 15:05:52.942,3333092398,663942,1,0.98047,0.02759,0.48657,-2.855,5.542,-2.916
2026-06-14 15:05:52.942,3333092398,663942,2,0.95947,0.07715,-0.32007,8.107,-1.534,-6.275
2026-06-14 15:05:52.142,3333091598,664142,1,0.93335,-0.06738,0.48071,-8.832,6.969,-3.824
2026-06-14 15:05:52.142,3333091598,664142,2,0.99854,0.08838,-0.28369,2.374,4.191,-2.282
2026-06-14 15:05:52.342,3333091798,664342,1,0.90991,-0.06396,0.49561,5.992,-2.046,0.763
2026-06-14 15:05:52.342,3333091798,664342,2,0.97754,0.13794,-0.29517,-5.649,4.916,8.344
2026-06-14 15:05:53.542,3333092998,664542,1,0.91846,-0.02246,0.52222,9.099,-2.382,-4.221
2026-06-14 15:05:53.542,3333092998,664542,2,0.9646,0.08594,-0.29224,-4.779,-3.634,-0.412
2026-06-14 15:05:53.742,3333093198,664742,1,0.98999,-0.03711,0.4458,16.924,-3.092,8.031
2026-06-14 15:05:53.742,3333093198,664742,2,0.96436,0.08887,-0.31836,9.45,4.603,-3.435
2026-06-14 15:05:53.942,3333093398,664942,1,0.92383,-0.05176,0.4978,14.405,2.191,5.145
2026-06-14 15:05:53.942,3333093398,664942,2,0.94434,0.13794,-0.32813,-1.687,-1.626,-1.542
2026-06-14 15:05:53.147,3333092603,665147,1,0.95093,-0.01587,0.44556,14.611,3.702,-4.313
2026-06-14 15:05:53.147,3333092603,665147,2,0.97534,0.10327,-0.34546,5.908,1.58,-6.45
2026-06-14 15:05:53.347,3333092803,665347,1,0.95044,-0.00317,0.47168,2.435,5.779,-1.015
2026-06-14 15:05:53.347,3333092803,665347,2,0.96289,0.1062,-0.32642,7.763,5.832,-4.107
2026-06-14 15:05:54.547,3333094003,665547,1,0.92065,0.00708,0.49756,10.733,4.916,-0.802
2026-06-14 15:05:54.547,3333094003,665547,2,0.95264,0.13916,-0.30542,-0.977,4.534,-6.183
2026-06-14 15:05:54.747,3333094203,665747,1,0.93604,0.04053,0.50098,1.496,2.496,1.275
2026-06-14 15:05:54.747,3333094203,665747,2,0.9646,0.14624,-0.30347,3.137,2.992,0.122
2026-06-14 15:05:54.947,3333094403,665947,1,0.9248,0.00269,0.50122,1.282,1.015,2.931
2026-06-14 15:05:54.947,3333094403,665947,2,0.96509,0.15137,-0.32324,-0.901,0.351,0.695
2026-06-14 15:05:54.147,3333093603,666147,1,0.94653,0.00439,0.49146,8.458,0.779,2.878
2026-06-14 15:05:54.147,3333093603,666147,2,0.96143,0.14746,-0.32129,8.061,2.122,-4.359
2026-06-14 15:05:55.552,3333095008,666552,1,0.94189,0.00659,0.49512,4.969,3.122,0.74
2026-06-14 15:05:55.552,3333095008,666552,2,0.95605,0.15942,-0.31543,1.534,1.481,-1.489
2026-06-14 15:05:55.752,3333095208,666752,1,0.93774,0.02222,0.48511,0.947,2.176,-3.427
2026-06-14 15:05:55.752,3333095208,666752,2,0.96362,0.12842,-0.32202,2.748,2.0,-2.565
2026-06-14 15:06:00.778,3333100234,671778,1,0.93701,-0.01343,0.47925,2.466,1.924,0.382
2026-06-14 15:06:00.778,3333100234,671778,2,0.94971,0.13159,-0.32837,0.107,1.45,-0.573
2026-06-14 15:06:02.940,3333102396,673939,1,0.93799,0.00757,0.49414,-2.847,3.573,0.618
2026-06-14 15:06:02.940,3333102396,673939,2,0.9519,0.13281,-0.32861,-0.573,2.168,1.557
2026-06-14 15:06:04.142,3333103598,676142,1,0.95117,-0.03638,0.4668,-1.565,2.733,0.42
2026-06-14 15:06:04.142,3333103598,676142,2,0.94141,0.11157,-0.34351,-0.435,1.878,0.397
2026-06-14 15:06:07.649,3333107105,678649,1,0.93628,-0.01074,0.4939,0.115,1.74,-0.496
2026-06-14 15:06:07.649,3333107105,678649,2,0.9541,0.12866,-0.33545,-0.611,1.038,0.16
2026-06-14 15:06:09.974,3333109430,680974,1,0.93311,-0.04053,0.50439,1.924,3.023,0.534
2026-06-14 15:06:09.974,3333109430,680974,2,0.95801,0.11646,-0.32349,0.481,1.771,-1.305
2026-06-14 15:06:11.159,3333110615,683158,1,0.92627,-0.04468,0.50781,1.282,1.229,3.076
2026-06-14 15:06:11.159,3333110615,683158,2,0.95923,0.12451,-0.29907,2.496,-1.42,0.038
2026-06-14 15:06:14.430,3333113886,685430,1,0.95923,-0.0166,0.48047,-26.756,12.885,-9.336
2026-06-14 15:06:14.430,3333113886,685430,2,0.95752,0.06396,-0.33179,-16.328,6.45,5.008
2026-06-14 15:06:16.572,3333116028,687572,1,0.96362,-0.00049,0.45557,-1.229,7.107,10.061
2026-06-14 15:06:16.572,3333116028,687572,2,0.99219,0.09204,-0.28076,10.542,3.55,-7.916
2026-06-14 15:06:18.843,3333118299,689842,1,0.93066,-0.0188,0.50537,1.076,2.427,1.901
2026-06-14 15:06:18.843,3333118299,689842,2,0.95117,0.1377,-0.31714,1.718,2.496,-1.008
2026-06-14 15:06:20.963,3333120419,691963,1,0.93408,-0.05078,0.49951,-0.649,2.908,-0.328
2026-06-14 15:06:20.963,3333120419,691963,2,0.95386,0.1311,-0.32715,-0.191,1.344,0.023
2026-06-14 15:06:22.133,3333121589,694133,1,0.92432,0.06226,0.48779,-18.634,-0.992,-5.626
2026-06-14 15:06:22.133,3333121589,694133,2,0.95361,0.18115,-0.33789,-9.618,-3.687,7.809
2026-06-14 15:06:25.590,3333125046,696590,1,0.9292,-0.03027,0.51489,4.023,9.473,1.847
2026-06-14 15:06:25.590,3333125046,696590,2,0.95972,0.11548,-0.26782,4.405,9.321,-1.298
2026-06-14 15:06:27.936,3333127392,698936,1,0.94141,-0.01001,0.4834,-11.55,12.656,-3.45
2026-06-14 15:06:27.936,3333127392,698936,2,0.96704,0.1228,-0.30688,-11.603,8.634,0.947
2026-06-14 15:06:29.088,3333128544,701088,1,0.92627,-0.01709,0.50635,-1.733,7.061,-0.802
2026-06-14 15:06:29.088,3333128544,701088,2,0.95947,0.12891,-0.30298,-7.542,3.115,-2.031
2026-06-14 15:06:31.309,3333130765,703309,1,0.9231,-0.02441,0.52832,3.282,6.802,0.038
2026-06-14 15:06:31.309,3333130765,703309,2,0.97729,0.13013,-0.22485,28.58,16.061,3.122
2026-06-14 15:06:34.446,3333133902,705446,1,0.91626,-0.0022,0.52075,3.069,1.504,1.603
2026-06-14 15:06:34.446,3333133902,705446,2,0.96411,0.1355,-0.30835,1.313,1.679,-0.809
2026-06-14 15:06:36.639,3333136095,707639,1,0.94849,-0.00269,0.46533,5.618,2.481,4.634
2026-06-14 15:06:36.639,3333136095,707639,2,0.95044,0.1377,-0.32251,4.115,5.137,-0.519
2026-06-14 15:06:38.799,3333138255,709799,1,0.92798,-0.00781,0.50903,-13.504,3.053,-1.947
2026-06-14 15:06:38.799,3333138255,709799,2,0.97485,0.12378,-0.29736,-9.573,1.198,5.046
2026-06-14 15:06:38.108,3333137564,710108,1,0.92407,-0.021,0.52222,6.962,1.55,4.847
2026-06-14 15:06:38.108,3333137564,710108,2,0.97192,0.12939,-0.27832,0.725,-0.687,-0.718
2026-06-14 15:06:39.965,3333139421,710965,1,0.92188,-0.02271,0.52856,-0.229,0.527,1.053
2026-06-14 15:06:39.965,3333139421,710965,2,0.97241,0.12402,-0.28174,0.214,1.756,1.198
2026-06-14 15:06:39.344,3333138800,711344,1,0.91699,-0.03638,0.52197,1.87,2.679,1.427
2026-06-14 15:06:39.344,3333138800,711344,2,0.98657,0.12402,-0.28101,1.916,3.771,-1.45
2026-06-14 15:06:40.557,3333140013,711557,1,0.90991,-0.03442,0.53516,4.435,4.16,1.397
2026-06-14 15:06:40.557,3333140013,711557,2,0.97925,0.13379,-0.28149,3.26,3.878,-1.901
2026-06-14 15:06:40.757,3333140213,711757,1,0.91187,-0.02808,0.53662,4.267,3.626,1.656
2026-06-14 15:06:40.757,3333140213,711757,2,0.97705,0.13354,-0.27905,3.13,2.153,-1.588
2026-06-14 15:06:40.957,3333140413,711957,1,0.92407,-0.02539,0.53369,1.947,1.733,1.771
2026-06-14 15:06:40.957,3333140413,711957,2,0.97974,0.13159,-0.2915,1.733,0.939,-0.725
2026-06-14 15:06:40.157,3333139613,712157,1,0.92798,-0.02222,0.52148,-2.405,1.015,0.092
2026-06-14 15:06:40.157,3333139613,712157,2,0.97461,0.1311,-0.28711,-0.885,1.771,0.817
2026-06-14 15:06:40.357,3333139813,712357,1,0.92041,-0.03613,0.52271,-0.214,1.229,0.405
2026-06-14 15:06:40.357,3333139813,712357,2,0.9707,0.125,-0.29321,-0.924,-1.023,0.771
2026-06-14 15:06:41.557,3333141013,712557,1,0.93726,-0.02002,0.51196,-0.847,1.198,-1.16
2026-06-14 15:06:41.557,3333141013,712557,2,0.97046,0.1228,-0.30298,-1.405,-0.229,0.687
2026-06-14 15:06:41.884,3333141340,712884,1,0.92676,-0.03906,0.50269,2.26,1.588,1.763
2026-06-14 15:06:41.884,3333141340,712884,2,0.96924,0.11938,-0.31079,-0.641,1.382,-0.183
2026-06-14 15:06:41.413,3333140869,713413,1,0.93555,-0.03491,0.48511,2.023,2.824,1.092
2026-06-14 15:06:41.413,3333140869,713413,2,0.96411,0.11987,-0.29883,1.031,2.786,-1.206
2026-06-14 15:06:42.613,3333142069,713613,1,0.93018,-0.02441,0.50757,1.496,3.611,0.595
2026-06-14 15:06:42.613,3333142069,713613,2,0.96655,0.13208,-0.30591,0.534,1.183,-0.519
2026-06-14 15:06:42.813,3333142269,713813,1,0.93506,-0.02441,0.49121,1.656,3.26,0.168
2026-06-14 15:06:42.813,3333142269,713813,2,0.96655,0.12402,-0.30347,0.244,1.618,-0.29
2026-06-14 15:06:42.158,3333141614,714158,1,0.93848,-0.01831,0.50171,2.389,1.756,0.069
2026-06-14 15:06:42.158,3333141614,714158,2,0.96436,0.12964,-0.32056,-0.153,2.374,0.351
2026-06-14 15:06:43.469,3333142925,714469,1,0.93213,-0.0271,0.49365,0.824,3.191,0.962
2026-06-14 15:06:43.469,3333142925,714469,2,0.96167,0.12622,-0.31909,3.435,0.802,-1.748
2026-06-14 15:06:43.682,3333143138,714682,1,0.9397,-0.02197,0.49951,1.756,2.145,2.176
2026-06-14 15:06:43.682,3333143138,714682,2,0.94995,0.12646,-0.30469,-1.649,1.618,-0.435
2026-06-14 15:06:43.012,3333142468,715012,1,0.94165,-0.02222,0.48926,-2.328,-1.664,0.496
2026-06-14 15:06:43.012,3333142468,715012,2,0.98511,0.13354,-0.29468,0.42,0.29,-1.137
2026-06-14 15:06:43.383,3333142839,715383,1,0.94067,-0.01758,0.48462,0.427,3.092,0.275
2026-06-14 15:06:43.383,3333142839,715383,2,0.96558,0.12476,-0.28979,-1.55,2.145,0.344
2026-06-14 15:06:44.741,3333144197,715741,1,0.92261,-0.04004,0.5061,-0.321,2.55,-2.076
2026-06-14 15:06:44.741,3333144197,715741,2,0.97119,0.13208,-0.30225,-0.405,1.015,-1.809
2026-06-14 15:06:44.130,3333143586,716130,1,0.95532,-0.01343,0.46997,10.977,2.015,4.611
2026-06-14 15:06:44.130,3333143586,716130,2,0.95947,0.14111,-0.31079,3.885,0.237,-1.351
2026-06-14 15:06:44.385,3333143841,716385,1,0.95093,-0.01733,0.47534,2.023,5.237,1.771
2026-06-14 15:06:44.385,3333143841,716385,2,0.9646,0.15942,-0.33594,-0.832,3.084,-2.069
2026-06-14 15:06:45.672,3333145128,716671,1,0.93481,-0.01733,0.50244,-3.069,4.824,-2.076
2026-06-14 15:06:45.672,3333145128,716671,2,0.95288,0.14111,-0.2981,2.634,4.29,-2.687
2026-06-14 15:06:45.871,3333145327,716871,1,0.93604,-0.00952,0.48584,2.023,2.305,-0.26
2026-06-14 15:06:45.871,3333145327,716871,2,0.95313,0.14819,-0.32617,-0.931,-0.962,-0.13
2026-06-14 15:06:45.071,3333144527,717071,1,0.94727,-0.00952,0.48291,0.359,-0.748,0.901
2026-06-14 15:06:45.071,3333144527,717071,2,0.94824,0.15259,-0.33081,-0.771,-0.611,0.198
2026-06-14 15:06:46.435,3333145891,717435,1,0.95923,-0.01563,0.47876,5.084,3.229,1.702
2026-06-14 15:06:46.435,3333145891,717435,2,0.94458,0.13989,-0.33447,2.71,4.267,-0.901
2026-06-14 15:06:46.659,3333146115,717659,1,0.95313,-0.021,0.46143,2.0,4.664,1.405
2026-06-14 15:06:46.659,3333146115,717659,2,0.93774,0.14551,-0.33765,1.847,5.969,-2.412
2026-06-14 15:06:46.917,3333146373,717917,1,0.95264,-0.01782,0.47241,2.137,2.389,-2.435
2026-06-14 15:06:46.917,3333146373,717917,2,0.94922,0.1499,-0.31372,-2.382,2.656,-0.466
2026-06-14 15:06:46.162,3333145618,718162,1,0.93872,-0.00195,0.48169,0.664,4.756,-1.939
2026-06-14 15:06:46.162,3333145618,718162,2,0.95972,0.15771,-0.31079,0.275,3.412,-1.458
2026-06-14 15:06:47.467,3333146923,718467,1,0.93652,-0.00488,0.48853,1.031,2.252,1.916
2026-06-14 15:06:47.467,3333146923,718467,2,0.94238,0.16382,-0.32422,0.947,0.344,-1.992
2026-06-14 15:06:47.867,3333147323,718867,1,0.97607,0.03516,0.47021,-14.779,0.656,1.153
2026-06-14 15:06:47.867,3333147323,718867,2,0.93384,0.15259,-0.29468,-2.725,9.13,4.687
2026-06-14 15:06:47.082,3333146538,719082,1,0.93042,-0.03735,0.5144,2.611,6.42,3.656
2026-06-14 15:06:47.082,3333146538,719082,2,0.97632,0.16772,-0.28198,0.191,-1.389,-2.145
2026-06-14 15:06:47.282,3333146738,719282,1,0.91138,-0.03589,0.50342,0.641,1.565,2.603
2026-06-14 15:06:47.282,3333146738,719282,2,0.979,0.15137,-0.29443,2.534,2.84,-4.496
2026-06-14 15:06:48.663,3333148119,719663,1,0.93066,0.02319,0.51758,17.748,-4.679,7.107
2026-06-14 15:06:48.663,3333148119,719663,2,0.96997,0.15234,-0.27197,-0.954,-0.656,2.099
2026-06-14 15:06:48.863,3333148319,719863,1,0.91772,-0.04126,0.50879,1.031,5.771,4.985
2026-06-14 15:06:48.863,3333148319,719863,2,0.97534,0.14429,-0.30127,8.947,0.565,-8.489
2026-06-14 15:06:48.063,3333147519,720063,1,0.92163,-0.02515,0.52515,5.916,0.634,-2.374
2026-06-14 15:06:48.063,3333147519,720063,2,0.95508,0.17554,-0.31494,-4.275,-2.84,3.412
2026-06-14 15:06:48.309,3333147765,720309,1,0.96191,-0.05151,0.5083,-17.145,1.168,-6.977
2026-06-14 15:06:48.309,3333147765,720309,2,0.96655,0.1416,-0.30273,-5.29,-0.863,1.71
2026-06-14 15:06:49.532,3333148988,720531,1,0.93335,-0.02808,0.48462,-4.725,6.496,0.641
2026-06-14 15:06:49.532,3333148988,720531,2,0.9624,0.1521,-0.33008,3.282,3.763,-3.473
2026-06-14 15:06:49.731,3333149187,720731,1,0.948,-0.00928,0.50781,-9.954,14.389,-0.435
2026-06-14 15:06:49.731,3333149187,720731,2,0.93262,0.13013,-0.29224,-1.603,9.13,-0.351
2026-06-14 15:06:49.931,3333149387,720931,1,0.92236,-0.021,0.52734,-3.893,9.023,-2.557
2026-06-14 15:06:49.931,3333149387,720931,2,0.95776,0.1521,-0.30469,-1.962,-2.099,-0.885
2026-06-14 15:06:49.131,3333148587,721131,1,0.91382,-0.02246,0.48413,3.634,-4.611,2.176
2026-06-14 15:06:49.131,3333148587,721131,2,0.98535,0.146,-0.28149,5.427,4.672,-1.992
2026-06-14 15:06:49.335,3333148791,721334,1,0.92358,-0.00977,0.51758,8.702,0.305,0.107
2026-06-14 15:06:49.335,3333148791,721334,2,0.94873,0.14941,-0.29395,1.931,1.061,-3.046
2026-06-14 15:06:50.534,3333149990,721534,1,0.85571,0.00415,0.55151,-0.481,2.71,1.817
2026-06-14 15:06:50.534,3333149990,721534,2,0.95313,0.15723,-0.32227,2.198,1.092,2.26
2026-06-14 15:06:50.734,3333150190,721734,1,0.96948,0.00342,0.47705,7.153,-3.237,1.405
2026-06-14 15:06:50.734,3333150190,721734,2,0.96289,0.15356,-0.33887,0.634,1.282,-1.511
2026-06-14 15:06:50.934,3333150390,721934,1,0.94507,0.00586,0.47852,-0.015,3.588,-0.221
2026-06-14 15:06:50.934,3333150390,721934,2,0.95679,0.14453,-0.32935,-1.672,3.58,1.733
2026-06-14 15:06:50.140,3333149596,722140,1,0.92017,-0.0022,0.50024,-6.908,2.656,5.649
2026-06-14 15:06:50.140,3333149596,722140,2,0.94434,0.14404,-0.32861,-3.229,0.099,0.779
2026-06-14 15:06:50.340,3333149796,722340,1,0.94067,-0.01001,0.4751,2.893,0.214,-0.672
2026-06-14 15:06:50.340,3333149796,722340,2,0.95923,0.14453,-0.31665,0.969,-0.145,-1.069
2026-06-14 15:06:51.540,3333150996,722540,1,0.95996,-0.01123,0.47388,0.534,4.557,1.092
2026-06-14 15:06:51.540,3333150996,722540,2,0.9541,0.14868,-0.33374,-1.733,3.534,0.496
2026-06-14 15:06:51.792,3333151248,722792,1,0.94263,0.00635,0.47412,3.153,2.298,0.153
2026-06-14 15:06:51.792,3333151248,722792,2,0.96094,0.14404,-0.33008,-3.015,1.13,0.588
2026-06-14 15:06:51.000,3333150456,722999,1,0.95435,-0.01758,0.47461,-0.366,4.046,-1.924
2026-06-14 15:06:51.000,3333150456,722999,2,0.95898,0.14502,-0.3269,-0.466,1.076,-1.611
2026-06-14 15:06:51.276,3333150732,723276,1,0.9541,0.02124,0.48633,10.183,-0.137,4.733
2026-06-14 15:06:51.276,3333150732,723276,2,0.94531,0.15356,-0.32178,1.855,2.328,-2.084
2026-06-14 15:06:52.516,3333151972,723516,1,0.94116,0.00854,0.48389,-3.893,3.366,0.458
2026-06-14 15:06:52.516,3333151972,723516,2,0.95264,0.1499,-0.29102,4.473,2.069,-1.397
2026-06-14 15:06:52.728,3333152184,723728,1,0.93799,-0.0166,0.48584,4.977,0.588,7.45
2026-06-14 15:06:52.728,3333152184,723728,2,0.9375,0.15625,-0.34058,0.695,2.313,-0.427
2026-06-14 15:06:52.928,3333152384,723928,1,0.94336,-0.02197,0.47607,1.771,-2.29,-3.244
2026-06-14 15:06:52.928,3333152384,723928,2,0.9563,0.13086,-0.32544,-0.496,-4.366,-0.168
2026-06-14 15:06:52.140,3333151596,724139,1,0.97437,-0.02173,0.42993,2.87,-0.649,2.267
2026-06-14 15:06:52.140,3333151596,724139,2,0.94263,0.14331,-0.38379,3.702,-1.542,-1.947
2026-06-14 15:06:52.358,3333151814,724358,1,1.00024,-0.01367,0.42236,-0.191,4.107,0.023
2026-06-14 15:06:52.358,3333151814,724358,2,0.9729,0.14771,-0.3396,-2.412,12.427,-0.26
2026-06-14 15:06:53.558,3333153014,724558,1,0.90405,-0.03687,0.52466,-2.595,17.0,-3.863
2026-06-14 15:06:53.558,3333153014,724558,2,0.96045,0.16553,-0.30078,-0.58,10.458,-3.885
2026-06-14 15:06:53.776,3333153232,724776,1,0.8855,-0.01636,0.55688,-0.267,6.802,1.206
2026-06-14 15:06:53.776,3333153232,724776,2,0.96509,0.15381,-0.27905,0.534,5.779,-0.168
2026-06-14 15:06:53.976,3333153432,724976,1,0.89966,-0.02051,0.55176,3.664,-0.427,0.832
2026-06-14 15:06:53.976,3333153432,724976,2,0.96875,0.14478,-0.27808,2.489,-1.55,0.466
2026-06-14 15:06:53.176,3333152632,725176,1,0.93042,-0.02173,0.51855,6.55,-1.786,2.191
2026-06-14 15:06:53.176,3333152632,725176,2,0.96045,0.14502,-0.29907,1.061,1.534,0.618
2026-06-14 15:06:54.429,3333153885,725429,1,0.92798,-0.02148,0.51172,-2.802,2.13,2.496
2026-06-14 15:06:54.429,3333153885,725429,2,0.95264,0.15259,-0.32788,0.611,1.214,2.901
2026-06-14 15:06:54.630,3333154086,725630,1,0.92554,-0.02466,0.51147,-0.496,1.71,-0.153
2026-06-14 15:06:54.630,3333154086,725630,2,0.96411,0.13281,-0.3252,-1.519,-0.191,1.939
2026-06-14 15:06:54.830,3333154286,725830,1,0.93945,-0.03833,0.48657,-6.099,2.427,-0.809
2026-06-14 15:06:54.830,3333154286,725830,2,0.96289,0.1333,-0.30908,-1.534,1.015,0.214
2026-06-14 15:06:54.030,3333153486,726030,1,0.93091,-0.04224,0.51147,-2.901,2.122,-0.626
2026-06-14 15:06:54.030,3333153486,726030,2,0.96289,0.14014,-0.31079,-0.26,3.435,-0.809
2026-06-14 15:06:54.244,3333153700,726244,1,0.93237,-0.03516,0.49951,-0.206,0.84,1.038
2026-06-14 15:06:54.244,3333153700,726244,2,0.95557,0.13965,-0.31738,1.084,0.565,-2.137
2026-06-14 15:06:55.444,3333154900,726444,1,0.94043,-0.04395,0.4939,2.313,0.756,1.099
2026-06-14 15:06:55.444,3333154900,726444,2,0.9541,0.1377,-0.30249,3.29,1.802,-2.191
2026-06-14 15:06:55.644,3333155100,726644,1,1.0127,-0.0083,0.41553,-4.412,2.084,4.023
2026-06-14 15:06:55.644,3333155100,726644,2,0.96997,0.13721,-0.31128,4.412,10.664,1.038
2026-06-14 15:06:55.896,3333155352,726896,1,0.91333,-0.06787,0.53638,3.076,6.702,-1.122
2026-06-14 15:06:55.896,3333155352,726896,2,0.95874,0.10718,-0.29102,3.313,0.344,-2.168
2026-06-14 15:06:55.096,3333154552,727096,1,0.94775,-0.04468,0.52563,3.885,3.351,6.702
2026-06-14 15:06:55.096,3333154552,727096,2,0.97607,0.13354,-0.302,4.107,10.901,3.031
2026-06-14 15:06:55.296,3333154752,727296,1,0.92139,-0.05347,0.56494,4.42,13.168,-3.481
2026-06-14 15:06:55.296,3333154752,727296,2,1.0083,0.15234,-0.23218,14.0,10.046,-5.573
2026-06-14 15:06:56.561,3333156017,727561,1,0.88989,-0.04199,0.521,27.947,-1.084,-4.649
2026-06-14 15:06:56.561,3333156017,727561,2,1.01855,0.13086,-0.24072,31.275,16.748,-15.458
2026-06-14 15:06:56.761,3333156217,727761,1,0.89844,-0.00146,0.58228,-3.962,16.107,6.244
2026-06-14 15:06:56.761,3333156217,727761,2,0.98364,0.1687,-0.20703,4.947,13.473,-4.282
2026-06-14 15:06:56.961,3333156417,727961,1,0.87305,0.05151,0.62036,1.305,13.435,3.405
2026-06-14 15:06:56.961,3333156417,727961,2,0.9646,0.14844,-0.15942,7.023,2.718,-4.168
2026-06-14 15:06:56.184,3333155640,728184,1,0.81567,-0.00977,0.65552,-15.176,5.924,0.214
2026-06-14 15:06:56.184,3333155640,728184,2,0.99463,0.15479,-0.18457,-6.718,1.786,4.962
2026-06-14 15:06:56.384,3333155840,728384,1,0.85132,0.00708,0.64355,9.977,-8.13,9.023
2026-06-14 15:06:56.384,3333155840,728384,2,0.99072,0.15845,-0.17212,-6.527,-1.824,8.718
2026-06-14 15:06:57.584,3333157040,728584,1,0.87036,-0.02466,0.6394,-6.015,0.214,-1.824
2026-06-14 15:06:57.584,3333157040,728584,2,1.00562,0.13574,-0.19409,-7.802,0.092,6.992
2026-06-14 15:06:57.874,3333157330,728873,1,0.87451,-0.03076,0.61499,-6.977,-3.221,-4.55
2026-06-14 15:06:57.874,3333157330,728873,2,0.98853,0.12061,-0.22363,-22.55,-8.267,14.076
2026-06-14 15:06:57.073,3333156529,729073,1,0.89063,-0.04663,0.56836,-15.252,-6.397,-12.282
2026-06-14 15:06:57.073,3333156529,729073,2,0.99829,0.06958,-0.21924,-15.466,-6.847,9.069
2026-06-14 15:06:57.273,3333156729,729273,1,0.92041,-0.05127,0.52759,-18.489,0.168,-3.344
2026-06-14 15:06:57.273,3333156729,729273,2,1.00537,0.10889,-0.24634,-9.634,1.893,9.374
2026-06-14 15:06:58.473,3333157929,729473,1,0.90015,-0.08423,0.56323,12.092,3.221,6.29
2026-06-14 15:06:58.473,3333157929,729473,2,0.99878,0.0874,-0.25854,12.206,1.107,-6.053
2026-06-14 15:06:58.814,3333158270,729814,1,0.90723,-0.03467,0.54102,18.267,-0.74,6.87
2026-06-14 15:06:58.814,3333158270,729814,2,0.98413,0.10962,-0.27075,14.794,0.412,-7.954
2026-06-14 15:06:58.014,3333157470,730014,1,0.91382,-0.01953,0.54028,14.412,1.573,5.962
2026-06-14 15:06:58.014,3333157470,730014,2,0.98145,0.12134,-0.27246,9.504,3.962,-5.214
2026-06-14 15:06:58.214,3333157670,730214,1,0.90234,-0.02002,0.54907,2.947,3.038,1.786
2026-06-14 15:06:58.214,3333157670,730214,2,0.97852,0.12012,-0.27246,0.26,1.137,-0.153
2026-06-14 15:06:58.414,3333157870,730414,1,0.90967,-0.03564,0.54517,-5.748,2.145,-3.298
2026-06-14 15:06:58.414,3333157870,730414,2,0.97681,0.11133,-0.27881,-5.527,-0.16,2.664
2026-06-14 15:06:59.614,3333159070,730614,1,0.91455,-0.0293,0.53491,-3.382,1.679,-1.855
2026-06-14 15:06:59.614,3333159070,730614,2,0.98022,0.09595,-0.27832,-2.977,0.863,1.534
2026-06-14 15:06:59.814,3333159270,730814,1,0.91699,-0.03101,0.54443,1.092,2.023,0.504
2026-06-14 15:06:59.814,3333159270,730814,2,0.97974,0.09839,-0.28296,0.992,2.092,-0.145
2026-06-14 15:06:59.053,3333158509,731053,1,0.9104,-0.03003,0.54492,2.725,2.611,1.221
2026-06-14 15:06:59.053,3333158509,731053,2,0.9873,0.10791,-0.28125,1.847,1.824,-1.221
2026-06-14 15:06:59.369,3333158825,731369,1,0.90942,-0.03101,0.54028,-2.214,3.061,1.092
2026-06-14 15:06:59.369,3333158825,731369,2,0.97681,0.10913,-0.28442,-2.244,1.534,0.496
2026-06-14 15:07:00.569,3333160025,731569,1,0.91797,-0.03833,0.53149,-6.115,4.084,-1.664
2026-06-14 15:07:00.569,3333160025,731569,2,0.98413,0.1062,-0.26172,0.328,3.405,-0.427
2026-06-14 15:07:00.769,3333160225,731769,1,0.90796,-0.06201,0.5354,-6.298,2.092,0.748
2026-06-14 15:07:00.769,3333160225,731769,2,0.96191,0.12036,-0.26514,-0.916,-3.137,1.221
2026-06-14 15:07:00.086,3333159542,732085,1,0.98975,-0.03125,0.44775,-12.42,0.107,3.656
2026-06-14 15:07:00.086,3333159542,732085,2,0.95605,0.10547,-0.2854,-2.931,2.397,1.817
2026-06-14 15:07:00.295,3333159751,732295,1,0.95752,-0.05713,0.47168,-4.023,5.908,0.939
2026-06-14 15:07:00.295,3333159751,732295,2,0.94067,0.10815,-0.30762,0.962,1.611,-3.756
2026-06-14 15:07:01.535,3333160991,732535,1,0.88721,-0.03857,0.60815,-13.618,8.611,-3.481
2026-06-14 15:07:01.535,3333160991,732535,2,0.96655,0.11157,-0.2439,-0.107,-3.511,0.771
2026-06-14 15:07:01.737,3333161193,732737,1,0.91748,-0.02148,0.521,-7.55,8.947,-0.725
2026-06-14 15:07:01.737,3333161193,732737,2,0.9729,0.10083,-0.32007,-1.649,-0.023,-0.565
2026-06-14 15:07:01.937,3333161393,732937,1,0.94751,-0.01294,0.47827,-26.305,12.267,-3.26
2026-06-14 15:07:01.937,3333161393,732937,2,0.95483,0.09937,-0.30615,-0.252,-0.191,-1.244
2026-06-14 15:07:01.153,3333160609,733152,1,1.0603,-0.01123,0.44946,9.153,-2.588,-4.969
2026-06-14 15:07:01.153,3333160609,733152,2,0.96191,0.0957,-0.35205,-3.45,3.557,-1.153
2026-06-14 15:07:01.383,3333160839,733383,1,0.92578,-0.03271,0.53394,14.13,-2.954,4.702
2026-06-14 15:07:01.383,3333160839,733383,2,0.98975,0.1106,-0.2998,1.786,4.351,-0.168
2026-06-14 15:07:02.583,3333162039,733583,1,0.88135,-0.01782,0.55444,4.954,-2.893,2.229
2026-06-14 15:07:02.583,3333162039,733583,2,0.9707,0.09912,-0.30933,0.321,1.763,-0.084
2026-06-14 15:07:02.874,3333162330,733874,1,0.92773,-0.01953,0.51733,1.115,1.298,-0.023
2026-06-14 15:07:02.874,3333162330,733874,2,0.97168,0.10571,-0.29468,0.107,0.809,-0.13
2026-06-14 15:07:02.097,3333161553,734097,1,0.93604,-0.01733,0.50757,2.641,1.725,0.748
2026-06-14 15:07:02.097,3333161553,734097,2,0.97534,0.10815,-0.30688,0.656,2.641,-0.718
2026-06-14 15:07:02.297,3333161753,734297,1,0.9248,-0.01221,0.51563,0.435,3.107,0.198
2026-06-14 15:07:02.297,3333161753,734297,2,0.97534,0.10815,-0.30273,0.679,1.092,-0.718
2026-06-14 15:07:03.497,3333162953,734497,1,0.93433,-0.00146,0.51758,1.176,1.55,0.641
2026-06-14 15:07:03.497,3333162953,734497,2,0.97119,0.11255,-0.29541,-0.389,0.298,-0.076
2026-06-14 15:07:03.726,3333163182,734726,1,0.92358,-0.0105,0.51782,0.282,2.053,0.252
2026-06-14 15:07:03.726,3333163182,734726,2,0.96997,0.11108,-0.28979,0.321,1.0,-0.168
2026-06-14 15:07:03.926,3333163382,734926,1,0.93066,-0.0144,0.52295,0.069,2.282,0.351
2026-06-14 15:07:03.926,3333163382,734926,2,0.97217,0.11108,-0.302,0.015,0.809,-0.214
2026-06-14 15:07:03.161,3333162617,735161,1,0.92896,-0.01221,0.50854,2.435,1.74,0.779
2026-06-14 15:07:03.161,3333162617,735161,2,0.97632,0.10376,-0.30713,0.992,1.046,-0.244
2026-06-14 15:07:03.394,3333162850,735394,1,0.927,-0.00757,0.51538,1.183,1.015,1.084
2026-06-14 15:07:03.394,3333162850,735394,2,0.97168,0.11694,-0.30762,0.695,0.885,-0.046
2026-06-14 15:07:04.594,3333164050,735594,1,0.92358,-0.01489,0.521,-2.702,3.015,-0.023
2026-06-14 15:07:04.594,3333164050,735594,2,0.97241,0.10498,-0.30908,-0.427,1.649,0.504
2026-06-14 15:07:04.794,3333164250,735794,1,0.92871,-0.02148,0.50049,-1.351,1.618,-1.336
2026-06-14 15:07:04.794,3333164250,735794,2,0.97827,0.10571,-0.31104,-2.427,1.534,1.13
2026-06-14 15:07:04.125,3333163581,736125,1,0.93774,-0.00928,0.49219,-4.771,3.786,-0.977
2026-06-14 15:07:04.125,3333163581,736125,2,0.96851,0.10669,-0.3186,-0.901,1.924,0.443
2026-06-14 15:07:04.325,3333163781,736325,1,0.93311,-0.01929,0.50879,-3.237,5.092,0.809
2026-06-14 15:07:04.325,3333163781,736325,2,0.97144,0.10791,-0.30615,-0.634,5.534,0.244
2026-06-14 15:07:05.525,3333164981,736525,1,0.92725,-0.03979,0.5144,2.977,3.145,0.847
2026-06-14 15:07:05.525,3333164981,736525,2,0.96606,0.10254,-0.27881,-0.145,8.901,-0.634
2026-06-14 15:07:05.725,3333165181,736725,1,0.90601,-0.05151,0.51172,2.153,1.855,0.336
2026-06-14 15:07:05.725,3333165181,736725,2,0.99512,0.11182,-0.28955,-1.359,5.527,-3.565
2026-06-14 15:07:05.925,3333165381,736925,1,0.91895,-0.02026,0.53271,8.015,-0.687,0.427
2026-06-14 15:07:05.925,3333165381,736925,2,0.97949,0.12402,-0.25122,-0.328,2.26,-2.977
2026-06-14 15:07:05.125,3333164581,737125,1,0.9231,0.02417,0.52002,1.908,6.435,2.786
2026-06-14 15:07:05.125,3333164581,737125,2,0.9834,0.12915,-0.25171,9.55,4.16,-1.038
2026-06-14 15:07:05.325,3333164781,737325,1,0.93164,-0.02173,0.53735,1.267,6.985,5.237
2026-06-14 15:07:05.325,3333164781,737325,2,0.95142,0.12744,-0.26416,-6.527,2.542,2.221
2026-06-14 15:07:06.525,3333165981,737525,1,0.9043,-0.02319,0.57202,12.656,-2.863,3.565
2026-06-14 15:07:06.525,3333165981,737525,2,0.98511,0.13452,-0.25098,3.977,-4.641,2.267
2026-06-14 15:07:06.725,3333166181,737725,1,0.92163,-0.03491,0.50659,1.435,-0.405,-2.908
2026-06-14 15:07:06.725,3333166181,737725,2,0.97803,0.13257,-0.27295,6.298,-4.725,-4.504
2026-06-14 15:07:06.925,3333166381,737925,1,0.90723,-0.00952,0.51563,5.977,-1.473,1.412
2026-06-14 15:07:06.925,3333166381,737925,2,0.97437,0.12939,-0.3064,3.229,-3.542,-1.344
2026-06-14 15:07:06.125,3333165581,738125,1,0.95703,-0.00073,0.47656,0.336,-0.061,
2026-06-14 15:07:06.125,3333165581,738125,2,0.97241,0.11572,-0.30908,-0.023,5.962,-1.053
2026-06-14 15:07:06.325,3333165781,738325,1,0.91235,-0.01929,0.51929,-4.84,3.359,-1.573
2026-06-14 15:07:06.325,3333165781,738325,2,0.97681,0.11499,-0.28711,-3.977,5.771,0.626
2026-06-14 15:07:07.525,3333166981,738525,1,0.9248,-0.021,0.51685,2.29,8.374,0.718
2026-06-14 15:07:07.525,3333166981,738525,2,0.96289,0.12842,-0.29639,0.664,1.992,-1.366
2026-06-14 15:07:07.725,3333167181,738725,1,0.93286,0.0022,0.50781,2.641,3.198,0.954
2026-06-14 15:07:07.725,3333167181,738725,2,0.97119,0.1394,-0.30273,-1.229,-0.015,0.412
2026-06-14 15:07:07.925,3333167381,738925,1,0.91797,-0.00757,0.52368,-0.374,2.458,1.954
2026-06-14 15:07:07.925,3333167381,738925,2,0.98096,0.12378,-0.28271,-1.45,-0.504,3.695
2026-06-14 15:07:07.125,3333166581,739125,1,0.91626,-0.02295,0.51855,-0.481,0.878,2.328
2026-06-14 15:07:07.125,3333166581,739125,2,0.97266,0.12158,-0.29883,-1.137,-4.489,0.924
2026-06-14 15:07:07.325,3333166781,739325,1,0.92578,-0.01831,0.50781,-4.504,-1.489,-3.55
2026-06-14 15:07:07.325,3333166781,739325,2,0.97363,0.13037,-0.30981,-2.252,-2.145,-0.885
2026-06-14 15:07:08.525,3333167981,739525,1,0.93555,-0.00684,0.49512,1.756,0.557,-2.321
2026-06-14 15:07:08.525,3333167981,739525,2,0.96704,0.1272,-0.28247,0.588,-0.565,-0.931
2026-06-14 15:07:08.725,3333168181,739725,1,0.94385,-0.00415,0.49438,9.13,-2.244,2.771
2026-06-14 15:07:08.725,3333168181,739725,2,0.96924,0.12915,-0.31421,3.87,1.885,-1.237
2026-06-14 15:07:08.925,3333168381,739925,1,0.96021,-0.00439,0.4856,-2.191,6.053,1.29
2026-06-14 15:07:08.925,3333168381,739925,2,0.95288,0.12256,-0.30811,5.542,4.282,-1.206
2026-06-14 15:07:08.125,3333167581,740125,1,0.94556,0.00635,0.49756,5.763,3.275,1.473
2026-06-14 15:07:08.125,3333167581,740125,2,0.96069,0.12378,-0.3208,-0.069,2.275,-0.634
2026-06-14 15:07:08.325,3333167781,740325,1,0.95264,-0.00757,0.47485,0.466,6.55,2.908
2026-06-14 15:07:08.325,3333167781,740325,2,0.95337,0.12744,-0.30518,5.29,7.336,-3.595
2026-06-14 15:07:09.525,3333168981,740525,1,0.93506,-0.00269,0.50586,1.084,5.435,1.702
2026-06-14 15:07:09.525,3333168981,740525,2,0.96436,0.12891,-0.30518,3.42,1.847,-1.985
2026-06-14 15:07:09.725,3333169181,740725,1,0.93335,-0.00317,0.50171,-0.382,3.763,-0.87
2026-06-14 15:07:09.725,3333169181,740725,2,0.96729,0.11426,-0.31104,0.794,2.725,0.214
2026-06-14 15:07:09.925,3333169381,740925,1,0.93164,0.00513,0.49927,-3.542,2.626,-1.031
2026-06-14 15:07:09.925,3333169381,740925,2,0.97656,0.12646,-0.31348,-3.908,1.977,2.649
2026-06-14 15:07:09.141,3333168597,741141,1,0.93896,-0.00757,0.5127,-1.794,1.145,-1.137
2026-06-14 15:07:09.141,3333168597,741141,2,0.9729,0.12329,-0.29395,-4.603,-0.435,1.542
2026-06-14 15:07:10.593,3333170049,741593,1,0.92871,,0.50562,-2.466,-1.954,1.061
2026-06-14 15:07:10.593,3333170049,741593,2,0.93701,0.12061,-0.29956,-6.84,-1.328,0.45
2026-06-14 15:07:10.815,3333170271,741815,1,0.92554,-0.01074,0.48242,6.359,-0.733,-0.153
2026-06-14 15:07:10.815,3333170271,741815,2,0.97119,0.12476,-0.33276,2.046,-6.595,-0.168
2026-06-14 15:07:10.015,3333169471,742015,1,0.9939,0.021,0.41113,3.534,1.779,3.687
2026-06-14 15:07:10.015,3333169471,742015,2,0.97803,0.12402,-0.32617,8.153,8.794,-1.748
2026-06-14 15:07:10.215,3333169671,742215,1,0.9231,-0.00635,0.49487,10.046,1.908,-0.756
2026-06-14 15:07:10.215,3333169671,742215,2,1.03687,0.10156,-0.34521,10.489,7.13,-5.924
2026-06-14 15:07:11.476,3333170932,742476,1,0.94971,0.03076,0.50146,2.641,-5.076,9.313
2026-06-14 15:07:11.476,3333170932,742476,2,0.93872,0.14746,-0.33154,-10.687,2.748,4.656
2026-06-14 15:07:11.676,3333171132,742676,1,0.95117,-0.02466,0.58911,-4.794,-4.649,6.328
2026-06-14 15:07:11.676,3333171132,742676,2,0.91431,0.15161,-0.29883,-13.58,-9.969,1.137
2026-06-14 15:07:11.876,3333171332,742876,1,0.89307,-0.03442,0.59668,-8.282,13.137,-1.931
2026-06-14 15:07:11.876,3333171332,742876,2,0.95044,0.15332,-0.34033,4.885,5.947,-3.344
2026-06-14 15:07:11.181,3333170637,743181,1,0.96387,0.03467,0.4668,23.641,-1.198,12.351
2026-06-14 15:07:11.181,3333170637,743181,2,0.95215,0.12769,-0.33276,-3.031,-2.885,1.908
2026-06-14 15:07:11.381,3333170837,743381,1,0.9126,0.02393,0.54834,-2.939,11.634,6.053
2026-06-14 15:07:11.381,3333170837,743381,2,0.98291,0.15942,-0.3374,-0.153,-3.076,2.496
2026-06-14 15:07:12.581,3333172037,743581,1,0.91479,0.00513,0.54443,-16.939,3.687,-5.061
2026-06-14 15:07:12.581,3333172037,743581,2,0.99268,0.11108,-0.23047,9.191,13.527,-4.481
2026-06-14 15:07:12.853,3333172309,743852,1,0.85742,-0.00879,0.57666,22.511,-8.115,13.824
2026-06-14 15:07:12.853,3333172309,743852,2,0.94312,0.13159,-0.30151,1.366,-6.863,1.168
2026-06-14 15:07:12.052,3333171508,744052,1,0.94067,-0.02393,0.50391,15.618,-9.046,4.931
2026-06-14 15:07:12.052,3333171508,744052,2,0.9812,0.11865,-0.26318,0.947,2.122,0.183
2026-06-14 15:07:13.640,3333173096,744640,1,0.93164,-0.03369,0.51221,-4.908,8.779,-2.031
2026-06-14 15:07:13.640,3333173096,744640,2,0.9834,0.09033,-0.27441,0.115,0.779,1.763
2026-06-14 15:07:13.183,3333172639,745183,1,0.92847,-0.0415,0.50439,0.748,2.351,1.389
2026-06-14 15:07:13.183,3333172639,745183,2,0.97876,0.10107,-0.2998,-1.084,1.809,0.489
2026-06-14 15:07:14.511,3333173967,745511,1,0.92114,-0.04688,0.52319,-1.145,1.344,-2.824
2026-06-14 15:07:14.511,3333173967,745511,2,0.97925,0.10718,-0.29932,-2.115,0.351,-0.244
2026-06-14 15:07:14.893,3333174349,745893,1,0.93555,-0.02319,0.50757,1.962,1.695,1.13
2026-06-14 15:07:14.893,3333174349,745893,2,0.97632,0.10156,-0.29639,2.176,2.076,0.267
2026-06-14 15:07:14.100,3333173556,746100,1,0.91675,-0.03882,0.51709,3.733,1.031,1.412
2026-06-14 15:07:14.100,3333173556,746100,2,0.97339,0.10303,-0.29688,1.443,1.427,-0.076
2026-06-14 15:07:14.300,3333173756,746300,1,0.92944,-0.04175,0.49658,2.794,0.267,0.466
2026-06-14 15:07:14.300,3333173756,746300,2,0.97217,0.10498,-0.30029,1.817,0.794,-0.672
2026-06-14 15:07:15.500,3333174956,746500,1,0.93286,-0.02856,0.50854,2.878,0.947,1.42
2026-06-14 15:07:15.500,3333174956,746500,2,0.97583,0.09253,-0.29883,0.702,2.229,-0.366
2026-06-14 15:07:15.047,3333174503,747047,1,0.93237,-0.03101,0.50537,1.328,3.649,1.55
2026-06-14 15:07:15.047,3333174503,747047,2,0.97437,0.10669,-0.30103,1.099,2.046,-1.679
2026-06-14 15:07:15.292,3333174748,747292,1,0.92554,-0.01807,0.5166,0.893,3.458,1.42
2026-06-14 15:07:15.292,3333174748,747292,2,0.96875,0.09253,-0.30249,-0.672,2.664,-0.336
2026-06-14 15:07:16.509,3333175965,747509,1,0.91553,-0.02954,0.51514,1.802,1.176,0.626
2026-06-14 15:07:16.509,3333175965,747509,2,0.96655,0.09204,-0.32031,4.511,-1.962,-2.802
2026-06-14 15:07:16.709,3333176165,747709,1,0.93799,-0.00635,0.50171,2.802,-1.45,2.954
2026-06-14 15:07:16.709,3333176165,747709,2,0.96655,0.1084,-0.32471,-1.321,1.534,-0.008
2026-06-14 15:07:16.166,3333175622,748166,1,0.94019,-0.0105,0.49316,0.168,2.29,-0.695
2026-06-14 15:07:16.166,3333175622,748166,2,0.96509,0.10278,-0.31079,-3.26,1.206,0.939
2026-06-14 15:07:17.536,3333176992,748536,1,0.95483,-0.02319,0.48071,-1.519,3.313,0.55
2026-06-14 15:07:17.536,3333176992,748536,2,0.96851,0.10547,-0.31201,-2.649,7.412,0.779
2026-06-14 15:07:17.796,3333177252,748796,1,0.92407,-0.02856,0.51636,4.443,3.847,2.359
2026-06-14 15:07:17.796,3333177252,748796,2,0.97705,0.08423,-0.31299,2.725,-0.885,-4.687
2026-06-14 15:07:17.339,3333176795,749339,1,0.91846,-0.02344,0.51929,9.565,-4.55,11.527
2026-06-14 15:07:17.339,3333176795,749339,2,0.93652,0.15967,-0.2749,-41.58,-17.282,-11.145
2026-06-14 15:07:18.632,3333178088,749632,1,0.9541,-0.06616,0.48413,-19.45,-1.603,-9.382
2026-06-14 15:07:18.632,3333178088,749632,2,0.95166,0.12964,-0.33618,-4.756,3.008,0.122
2026-06-14 15:07:18.077,3333177533,750077,1,0.93018,-0.07764,0.49585,12.336,2.702,6.046
2026-06-14 15:07:18.077,3333177533,750077,2,0.93726,0.16162,-0.33984,-5.718,5.107,2.122
2026-06-14 15:07:19.496,3333178952,750496,1,0.92725,-0.04761,0.48828,-8.16,7.618,-1.244
2026-06-14 15:07:19.496,3333178952,750496,2,0.96313,0.11646,-0.31323,-5.038,-0.344,-2.053
2026-06-14 15:07:19.972,3333179428,750971,1,0.91406,-0.05786,0.521,10.153,0.573,3.076
2026-06-14 15:07:19.972,3333179428,750971,2,0.95923,0.17114,-0.33081,7.908,-4.733,-8.221
2026-06-14 15:07:19.379,3333178835,751379,1,0.95728,-0.02441,0.45947,0.336,7.847,5.153
2026-06-14 15:07:19.379,3333178835,751379,2,0.95459,0.15576,-0.34253,4.092,7.099,-4.168
2026-06-14 15:07:20.700,3333180156,751700,1,0.93774,-0.03564,0.50757,6.55,3.221,4.13
2026-06-14 15:07:20.700,3333180156,751700,2,0.93726,0.1604,-0.33228,2.504,1.321,-0.321
2026-06-14 15:07:20.110,3333179566,752109,1,0.93457,-0.05859,0.48804,-0.427,1.832,-0.351
2026-06-14 15:07:20.110,3333179566,752109,2,0.9585,0.15479,-0.32324,0.748,5.023,-0.191
2026-06-14 15:07:21.495,3333180951,752495,1,0.91748,-0.08643,0.50488,-4.031,5.29,0.092
2026-06-14 15:07:21.495,3333180951,752495,2,0.95264,0.14038,-0.33496,-1.481,3.84,0.107
2026-06-14 15:07:21.010,3333180466,753010,1,0.92456,-0.08325,0.50049,-5.076,5.634,-2.847
2026-06-14 15:07:21.010,3333180466,753010,2,0.9519,0.14771,-0.31934,1.649,4.015,-1.695
2026-06-14 15:07:21.210,3333180666,753210,1,0.89233,-0.02808,0.552,-5.359,3.351,-6.328
2026-06-14 15:07:21.210,3333180666,753210,2,0.9729,0.146,-0.32397,-4.168,1.641,1.015
2026-06-14 15:07:21.410,3333180866,753410,1,0.94263,-0.01758,0.52075,0.84,1.115,-4.282
2026-06-14 15:07:21.410,3333180866,753410,2,0.95898,0.15015,-0.31152,-3.084,4.015,2.328
2026-06-14 15:07:22.758,3333182214,753758,1,0.92725,-0.052,0.51343,2.313,5.473,-2.023
2026-06-14 15:07:22.758,3333182214,753758,2,0.9646,0.15381,-0.29883,0.885,7.107,-0.076
2026-06-14 15:07:22.103,3333181559,754103,1,0.89502,-0.02197,0.5542,-4.115,4.221,2.412
2026-06-14 15:07:22.103,3333181559,754103,2,0.96704,0.14307,-0.2854,0.405,0.473,0.626
2026-06-14 15:07:23.439,3333182895,754439,1,0.90674,-0.06445,0.5498,-6.641,0.916,-3.924
2026-06-14 15:07:23.439,3333182895,754439,2,0.97632,0.13794,-0.30176,-2.405,1.191,2.153
2026-06-14 15:07:23.801,3333183257,754801,1,0.91235,-0.05957,0.52808,0.695,0.107,2.511
2026-06-14 15:07:23.801,3333183257,754801,2,0.97925,0.13623,-0.29956,2.87,-0.198,-0.42
2026-06-14 15:07:23.105,3333182561,755105,1,0.92871,-0.06226,0.51709,4.504,1.282,3.069
2026-06-14 15:07:23.105,3333182561,755105,2,0.9707,0.13086,-0.31812,2.893,-0.145,0.038
2026-06-14 15:07:23.333,3333182789,755332,1,0.92578,-0.05762,0.52563,1.16,0.779,-0.557
2026-06-14 15:07:23.333,3333182789,755332,2,0.95313,0.13232,-0.32251,-1.168,-0.137,2.328
2026-06-14 15:07:24.532,3333183988,755532,1,0.9375,-0.03027,0.49902,2.076,0.214,-0.267
2026-06-14 15:07:24.532,3333183988,755532,2,0.9563,0.10962,-0.3103,-3.893,2.55,3.267
2026-06-14 15:07:24.770,3333184226,755769,1,0.94165,-0.04248,0.51172,-6.16,3.939,-2.71
2026-06-14 15:07:24.770,3333184226,755769,2,0.95728,0.10156,-0.31323,-2.115,2.626,1.374
2026-06-14 15:07:24.006,3333183462,756006,1,0.91724,-0.04321,0.50659,-0.527,1.916,0.603
2026-06-14 15:07:24.006,3333183462,756006,2,0.97583,0.11377,-0.2937,2.305,0.58,-0.359
2026-06-14 15:07:24.206,3333183662,756206,1,0.9292,-0.08545,0.49463,-8.023,1.74,-0.824
2026-06-14 15:07:24.206,3333183662,756206,2,0.97192,0.11108,-0.31006,1.779,2.351,-2.832
2026-06-14 15:07:24.406,3333183862,756406,1,0.93506,-0.05103,0.52075,1.618,1.718,-3.221
2026-06-14 15:07:24.406,3333183862,756406,2,0.95874,0.12866,-0.3208,-1.985,1.794,-1.924
2026-06-14 15:07:25.685,3333185141,756685,1,0.92554,-0.0022,0.49365,3.214,6.061,6.397
2026-06-14 15:07:25.685,3333185141,756685,2,0.96851,0.13257,-0.30005,13.29,9.221,5.626
2026-06-14 15:07:25.905,3333185361,756905,1,0.92383,-0.07813,0.50903,6.542,8.718,3.74
2026-06-14 15:07:25.905,3333185361,756905,2,1.00391,0.10767,-0.28076,6.084,5.947,-2.153
2026-06-14 15:07:25.141,3333184597,757141,1,0.90845,-0.06567,0.54077,11.496,5.092,3.153
2026-06-14 15:07:25.141,3333184597,757141,2,0.97119,0.125,-0.27246,0.611,0.977,0.374
2026-06-14 15:07:25.341,3333184797,757341,1,0.89966,-0.06982,0.52393,-2.809,5.0,-2.588
2026-06-14 15:07:25.341,3333184797,757341,2,0.97681,0.09741,-0.30444,-5.901,-3.366,5.305
2026-06-14 15:07:26.642,3333186098,757642,1,0.91431,-0.04199,0.5498,0.55,-1.183,0.977
2026-06-14 15:07:26.642,3333186098,757642,2,0.96802,0.104,-0.30054,-1.229,-1.099,-0.237
2026-06-14 15:07:26.842,3333186298,757842,1,0.92627,-0.03491,0.51514,9.847,1.695,2.634
2026-06-14 15:07:26.842,3333186298,757842,2,0.95996,0.12451,-0.28418,1.511,2.275,-0.885
2026-06-14 15:07:26.042,3333185498,758042,1,0.92993,-0.06616,0.45996,14.802,-3.435,6.649
2026-06-14 15:07:26.042,3333185498,758042,2,0.94556,0.10498,-0.2854,3.389,2.908,-3.809
2026-06-14 15:07:26.392,3333185848,758392,1,0.94116,-0.03418,0.50562,-2.29,2.107,-1.916
2026-06-14 15:07:26.392,3333185848,758392,2,0.97241,0.11279,-0.30737,4.16,1.412,-0.221
2026-06-14 15:07:27.607,3333187063,758607,1,0.92139,-0.0293,0.53052,-4.191,2.473,1.267
2026-06-14 15:07:27.607,3333187063,758607,2,0.9812,0.1189,-0.30322,-0.595,-0.321,0.641
2026-06-14 15:07:27.848,3333187304,758847,1,0.93262,-0.05103,0.49536,-4.718,3.893,-1.595
2026-06-14 15:07:27.848,3333187304,758847,2,0.96021,0.11914,-0.28613,-4.137,3.115,1.878
2026-06-14 15:07:27.047,3333186503,759047,1,0.94214,-0.05762,0.51367,-0.137,2.183,1.107
2026-06-14 15:07:27.047,3333186503,759047,2,0.97681,0.1123,-0.29517,-0.649,7.26,1.588
2026-06-14 15:07:27.327,3333186783,759327,1,0.90479,-0.06274,0.55103,13.992,3.359,5.473
2026-06-14 15:07:27.327,3333186783,759327,2,0.98853,0.1106,-0.28247,4.092,7.595,-2.58
2026-06-14 15:07:28.631,3333188087,759631,1,0.89697,-0.05737,0.5415,1.985,5.641,1.351
2026-06-14 15:07:28.631,3333188087,759631,2,0.97729,0.10254,-0.27197,-1.802,2.099,0.489
2026-06-14 15:07:28.871,3333188327,759870,1,0.89624,-0.06494,0.55811,1.046,6.099,1.069
2026-06-14 15:07:28.871,3333188327,759870,2,0.98975,0.09863,-0.26709,2.351,6.26,0.534
2026-06-14 15:07:28.133,3333187589,760133,1,0.89429,-0.06934,0.5625,4.305,1.481,0.542
2026-06-14 15:07:28.133,3333187589,760133,2,0.98535,0.10156,-0.26099,1.924,1.534,-0.863
2026-06-14 15:07:28.333,3333187789,760333,1,0.90308,-0.05298,0.55518,3.924,0.908,0.641
2026-06-14 15:07:28.333,3333187789,760333,2,0.98584,0.09106,-0.29272,4.427,1.389,-8.229
2026-06-14 15:07:29.586,3333189042,760586,1,0.90503,-0.021,0.55566,-3.321,2.702,-1.992
2026-06-14 15:07:29.586,3333189042,760586,2,0.97437,0.11938,-0.27515,0.87,-1.893,1.931
2026-06-14 15:07:29.793,3333189249,760793,1,0.91699,-0.03955,0.52295,9.786,-5.229,4.344
2026-06-14 15:07:29.793,3333189249,760793,2,0.97412,0.12085,-0.29663,2.656,-4.55,-3.366
2026-06-14 15:07:29.993,3333189449,760993,1,0.9397,0.01196,0.5144,0.924,-3.198,-2.336
2026-06-14 15:07:29.993,3333189449,760993,2,0.95801,0.11914,-0.33228,-6.473,1.901,7.557
2026-06-14 15:07:29.193,3333188649,761193,1,0.94214,-0.06543,0.4978,-1.527,4.305,3.481
2026-06-14 15:07:29.193,3333188649,761193,2,0.9646,0.15918,-0.28369,0.878,1.656,-0.229
2026-06-14 15:07:30.507,3333189963,761507,1,0.91821,-0.05103,0.52197,2.282,4.885,2.847
2026-06-14 15:07:30.507,3333189963,761507,2,0.96143,0.12085,-0.32251,-2.794,-0.603,3.374
2026-06-14 15:07:30.096,3333189552,762096,1,0.93091,-0.03906,0.50122,0.397,2.557,-0.802
2026-06-14 15:07:30.096,3333189552,762096,2,0.95947,0.13135,-0.31543,1.214,0.992,-0.519
2026-06-14 15:07:31.682,3333191138,762682,1,0.94165,-0.03906,0.50171,2.405,2.183,1.137
2026-06-14 15:07:31.682,3333191138,762682,2,0.95605,0.13257,-0.31714,0.573,1.603,-0.176
2026-06-14 15:07:31.235,3333190691,763235,1,0.9353,-0.04102,0.49902,0.55,2.573,0.076
2026-06-14 15:07:31.235,3333190691,763235,2,0.95605,0.13037,-0.32129,0.611,1.969,-0.733
2026-06-14 15:07:32.535,3333191991,763535,1,0.92822,-0.04077,0.50513,2.038,2.504,0.603
2026-06-14 15:07:32.535,3333191991,763535,2,0.95532,0.13867,-0.33179,0.855,0.87,-1.229
2026-06-14 15:07:32.876,3333192332,763876,1,0.94043,-0.04175,0.49609,-0.015,3.206,0.267
2026-06-14 15:07:32.876,3333192332,763876,2,0.95166,0.13574,-0.31592,0.939,2.115,-0.359
2026-06-14 15:07:33.548,3333193004,764548,1,0.93433,-0.03296,0.4978,1.595,2.168,0.481
2026-06-14 15:07:33.548,3333193004,764548,2,0.95776,0.13428,-0.31665,-0.206,-0.023,0.176
2026-06-14 15:07:33.864,3333193320,764863,1,0.93872,-0.03076,0.5,1.489,0.588,0.061
2026-06-14 15:07:33.864,3333193320,764863,2,0.97021,0.14111,-0.32349,0.985,3.13,1.397
2026-06-14 15:07:33.137,3333192593,765136,1,0.94946,-0.03833,0.4751,3.374,2.679,-0.74
2026-06-14 15:07:33.137,3333192593,765136,2,0.95996,0.12695,-0.30664,0.794,8.092,0.916
2026-06-14 15:07:33.376,3333192832,765375,1,0.9231,-0.03296,0.50952,3.542,7.74,0.672
2026-06-14 15:07:33.376,3333192832,765375,2,0.96436,0.12549,-0.30664,0.115,3.198,1.29
2026-06-14 15:07:34.786,3333194242,765786,1,0.92773,-0.04395,0.53516,-5.221,4.237,0.061
2026-06-14 15:07:34.786,3333194242,765786,2,0.97388,0.13696,-0.29297,5.275,3.573,-2.534
2026-06-14 15:07:34.232,3333193688,766232,1,0.91113,0.00732,0.54443,-0.275,1.771,1.618
2026-06-14 15:07:34.232,3333193688,766232,2,0.96558,0.15063,-0.29663,-2.664,0.374,3.481
2026-06-14 15:07:35.456,3333194912,766456,1,0.91211,-0.05591,0.53833,-4.511,3.351,-3.13
2026-06-14 15:07:35.456,3333194912,766456,2,0.97607,0.12524,-0.29956,1.305,-2.817,-5.725
2026-06-14 15:07:35.656,3333195112,766656,1,0.92651,-0.00269,0.52637,2.763,-7.649,-3.435
2026-06-14 15:07:35.656,3333195112,766656,2,0.96582,0.13232,-0.32324,2.008,-3.427,-1.038
2026-06-14 15:07:35.876,3333195332,766876,1,0.92822,0.0127,0.49658,1.756,0.794,1.847
2026-06-14 15:07:35.876,3333195332,766876,2,0.95898,0.12793,-0.32056,1.641,-3.168,2.344
2026-06-14 15:07:35.113,3333194569,767112,1,0.9353,-0.01489,0.50049,-2.282,-0.748,0.763
2026-06-14 15:07:35.113,3333194569,767112,2,0.97534,0.1355,-0.33594,3.42,0.313,0.183
2026-06-14 15:07:35.312,3333194768,767312,1,0.95483,0.0127,0.49878,-0.443,1.366,0.756
2026-06-14 15:07:35.312,3333194768,767312,2,0.98047,0.13257,-0.31982,-4.641,6.168,0.931
2026-06-14 15:07:36.512,3333195968,767512,1,0.89722,-0.09058,0.51563,-27.992,10.863,0.382
2026-06-14 15:07:36.512,3333195968,767512,2,0.94385,0.11499,-0.24023,0.344,11.511,-4.076
2026-06-14 15:07:36.786,3333196242,767786,1,0.88525,-0.06348,0.56812,10.107,5.901,3.214
2026-06-14 15:07:36.786,3333196242,767786,2,0.97998,0.11084,-0.27051,2.55,-2.351,-4.26
2026-06-14 15:07:36.020,3333195476,768020,1,0.91626,-0.02612,0.53223,2.962,2.992,0.26
2026-06-14 15:07:36.020,3333195476,768020,2,0.98755,0.11743,-0.27808,2.206,2.626,-0.504
2026-06-14 15:07:36.248,3333195704,768248,1,0.91675,-0.03101,0.54492,3.092,3.061,-0.611
2026-06-14 15:07:36.248,3333195704,768248,2,0.97827,0.11987,-0.25854,1.954,4.664,-2.534
2026-06-14 15:07:37.448,3333196904,768448,1,0.91284,-0.01929,0.55933,0.015,3.405,0.206
2026-06-14 15:07:37.448,3333196904,768448,2,0.99072,0.12085,-0.25439,2.779,5.863,-1.305
2026-06-14 15:07:37.699,3333197155,768699,1,0.89819,-0.0332,0.56152,-4.229,5.122,-2.672
2026-06-14 15:07:37.699,3333197155,768699,2,0.97876,0.12207,-0.24658,-1.611,1.542,0.656
2026-06-14 15:07:37.935,3333197391,768935,1,0.89868,-0.02734,0.55566,1.847,2.634,-1.183
2026-06-14 15:07:37.935,3333197391,768935,2,0.9873,0.12305,-0.24561,-0.053,0.809,-0.435
2026-06-14 15:07:37.135,3333196591,769135,1,0.89551,-0.02319,0.56787,2.389,1.511,0.183
2026-06-14 15:07:37.135,3333196591,769135,2,0.9873,0.12622,-0.24585,1.962,0.412,-0.969
2026-06-14 15:07:37.335,3333196791,769335,1,0.89404,-0.02026,0.56934,0.649,2.053,-0.519
2026-06-14 15:07:37.335,3333196791,769335,2,0.98535,0.12817,-0.25537,-0.252,0.328,-0.214
2026-06-14 15:07:38.596,3333198052,769595,1,0.89429,-0.01392,0.56299,1.305,1.725,0.374
2026-06-14 15:07:38.596,3333198052,769595,2,0.98145,0.11621,-0.26489,-0.344,0.847,0.908
2026-06-14 15:07:38.991,3333198447,769991,1,0.90625,-0.01758,0.55566,-0.588,2.198,0.405
2026-06-14 15:07:38.991,3333198447,769991,2,0.98291,0.12451,-0.25928,-0.313,1.275,0.214
2026-06-14 15:07:38.258,3333197714,770258,1,0.90356,-0.02075,0.55054,0.389,1.908,0.397
2026-06-14 15:07:38.258,3333197714,770258,2,0.98828,0.11694,-0.26367,1.168,1.847,-0.313
2026-06-14 15:07:39.524,3333198980,770524,1,0.9104,-0.01489,0.55933,1.466,1.389,0.985
2026-06-14 15:07:39.524,3333198980,770524,2,0.98169,0.11377,-0.26807,0.702,1.305,0.534
2026-06-14 15:07:39.808,3333199264,770808,1,0.91357,-0.03003,0.53687,-0.618,2.504,2.137
2026-06-14 15:07:39.808,3333199264,770808,2,0.98047,0.10474,-0.26953,-0.947,1.038,1.427
2026-06-14 15:07:39.008,3333198464,771008,1,0.9209,-0.02173,0.53687,0.252,1.71,0.061
2026-06-14 15:07:39.008,3333198464,771008,2,0.99536,0.11304,-0.26733,0.481,0.069,-0.26
2026-06-14 15:07:39.236,3333198692,771236,1,0.90698,-0.03369,0.55029,3.55,1.344,0.611
2026-06-14 15:07:39.236,3333198692,771236,2,0.97046,0.10156,-0.27637,1.298,-2.389,-0.687
2026-06-14 15:07:40.438,3333199894,771438,1,0.9187,-0.01074,0.51758,0.466,2.221,-0.076
2026-06-14 15:07:40.438,3333199894,771438,2,0.97559,0.10742,-0.28442,6.824,0.244,-2.122
2026-06-14 15:07:40.647,3333200103,771647,1,0.9126,-0.0332,0.53467,9.405,-2.443,-3.458
2026-06-14 15:07:40.647,3333200103,771647,2,0.96606,0.11914,-0.27661,8.855,0.977,-5.328
2026-06-14 15:07:40.847,3333200303,771847,1,0.9126,-0.03662,0.54199,3.053,3.183,4.71
2026-06-14 15:07:40.847,3333200303,771847,2,0.97705,0.11572,-0.29248,-3.748,2.008,-0.214
2026-06-14 15:07:40.255,3333199711,772255,1,0.91943,-0.03833,0.53784,-3.336,3.282,-3.534
2026-06-14 15:07:40.255,3333199711,772255,2,0.98706,0.10938,-0.26685,-1.74,5.366,-0.412
2026-06-14 15:07:41.565,3333201021,772565,1,0.90698,-0.00586,0.56104,-1.511,6.527,-5.695
2026-06-14 15:07:41.565,3333201021,772565,2,0.98926,0.10791,-0.26904,-4.802,-0.504,-0.229
2026-06-14 15:07:41.765,3333201221,772765,1,0.91724,0.05151,0.53931,6.71,1.916,5.489
2026-06-14 15:07:41.765,3333201221,772765,2,0.98999,0.14429,-0.29224,-2.031,4.198,0.679
2026-06-14 15:07:41.965,3333201421,772965,1,0.89478,0.03467,0.53833,6.122,9.176,-7.328
2026-06-14 15:07:41.965,3333201421,772965,2,0.97363,0.13721,-0.22852,3.908,4.656,-3.527
2026-06-14 15:07:41.296,3333200752,773296,1,0.88428,0.04468,0.56494,3.832,2.069,5.893
2026-06-14 15:07:41.296,3333200752,773296,2,0.97754,0.14429,-0.25635,1.344,-2.237,0.824
2026-06-14 15:07:42.504,3333201960,773504,1,0.90015,0.03174,0.55151,-0.84,-0.542,4.832
2026-06-14 15:07:42.504,3333201960,773504,2,0.98242,0.14502,-0.26392,-1.992,0.038,3.58
2026-06-14 15:07:42.704,3333202160,773704,1,0.90039,0.00415,0.55078,-6.481,0.847,-0.435
2026-06-14 15:07:42.704,3333202160,773704,2,0.97729,0.13672,-0.2605,-6.023,-0.328,3.779
2026-06-14 15:07:42.010,3333201466,774010,1,0.91748,0.01099,0.53516,4.977,-5.015,1.534
2026-06-14 15:07:42.010,3333201466,774010,2,0.97778,0.12305,-0.27759,-0.702,3.137,3.534
2026-06-14 15:07:42.265,3333201721,774265,1,0.91528,-0.03564,0.54126,-5.031,4.298,3.748
2026-06-14 15:07:42.265,3333201721,774265,2,0.96924,0.11182,-0.28979,1.443,3.0,2.603
2026-06-14 15:07:43.514,3333202970,774514,1,0.91626,-0.02734,0.52417,-6.748,6.427,1.985
2026-06-14 15:07:43.514,3333202970,774514,2,0.98389,0.10571,-0.2627,-3.519,5.015,2.298
2026-06-14 15:07:43.910,3333203366,774910,1,0.8811,-0.04956,0.58081,13.382,-1.168,0.924
2026-06-14 15:07:43.910,3333203366,774910,2,0.97534,0.12769,-0.27026,4.42,-0.824,-0.908
2026-06-14 15:07:44.644,3333204100,775644,1,0.92969,0.00195,0.51782,0.092,-0.458,-0.145
2026-06-14 15:07:44.644,3333204100,775644,2,0.97559,0.11987,-0.2959,-1.618,2.649,0.053
2026-06-14 15:07:44.222,3333203678,776222,1,0.92407,-0.02783,0.52539,5.534,1.496,4.153
2026-06-14 15:07:44.222,3333203678,776222,2,0.97412,0.1272,-0.28784,5.115,3.252,-1.649
2026-06-14 15:07:45.579,3333205035,776578,1,0.93188,-0.02686,0.50781,0.595,1.435,0.87
2026-06-14 15:07:45.579,3333205035,776578,2,0.98511,0.09863,-0.30176,2.275,2.176,1.015
2026-06-14 15:07:45.206,3333204662,777206,1,0.92529,-0.03516,0.51709,5.115,1.092,1.718
2026-06-14 15:07:45.206,3333204662,777206,2,0.97168,0.11841,-0.30664,2.092,0.885,-1.099
2026-06-14 15:07:46.504,3333205960,777504,1,0.92725,-0.02222,0.51294,1.412,1.435,-1.26
2026-06-14 15:07:46.504,3333205960,777504,2,0.96265,0.12183,-0.29907,-0.359,1.916,0.137
2026-06-14 15:07:46.762,3333206218,777762,1,0.92822,-0.02515,0.51172,-0.29,2.863,-0.053
2026-06-14 15:07:46.762,3333206218,777762,2,0.96729,0.11597,-0.30127,-1.863,1.237,0.611
2026-06-14 15:07:46.983,3333206439,777983,1,0.92334,-0.021,0.52002,-1.87,2.863,-0.153
2026-06-14 15:07:46.983,3333206439,777983,2,0.97925,0.12085,-0.31006,-2.382,0.824,1.076
2026-06-14 15:07:46.206,3333205662,778206,1,0.91504,-0.03174,0.52808,-3.328,2.473,0.473
2026-06-14 15:07:46.206,3333205662,778206,2,0.96899,0.11914,-0.3147,-0.817,1.954,-0.26
2026-06-14 15:07:47.555,3333207011,778555,1,0.93091,-0.02661,0.50854,3.137,0.992,1.389
2026-06-14 15:07:47.555,3333207011,778555,2,0.96704,0.11841,-0.29883,2.336,2.397,0.298
2026-06-14 15:07:47.948,3333207404,778947,1,0.92651,-0.04419,0.49243,0.893,-1.305,0.496
2026-06-14 15:07:47.948,3333207404,778947,2,0.97876,0.12402,-0.32251,-14.313,-7.282,-0.763
2026-06-14 15:07:47.151,3333206607,779151,1,0.94849,-0.03589,0.4729,6.908,-0.489,3.863
2026-06-14 15:07:47.151,3333206607,779151,2,0.96362,0.1377,-0.32593,-0.771,3.267,-1.176
2026-06-14 15:07:47.366,3333206822,779366,1,0.9314,-0.03931,0.49854,-7.267,6.023,-2.29
2026-06-14 15:07:47.366,3333206822,779366,2,0.97046,0.11694,-0.2981,-5.084,1.458,4.046
2026-06-14 15:07:48.566,3333208022,779566,1,0.92529,-0.06348,0.50635,-8.527,5.565,-0.366
2026-06-14 15:07:48.566,3333208022,779566,2,0.97046,0.11133,-0.31812,-5.061,0.733,2.359
2026-06-14 15:07:48.904,3333208360,779903,1,0.93213,-0.08032,0.49072,6.939,2.557,-2.626
2026-06-14 15:07:48.904,3333208360,779903,2,0.96313,0.11084,-0.31689,11.298,0.832,-9.107
2026-06-14 15:07:48.146,3333207602,780146,1,0.92188,-0.02539,0.53247,15.534,-3.214,7.0
2026-06-14 15:07:48.146,3333207602,780146,2,0.95654,0.13672,-0.30933,10.473,2.382,-6.344
2026-06-14 15:07:48.346,3333207802,780346,1,0.93506,-0.0271,0.48633,3.015,-2.313,3.267
2026-06-14 15:07:48.346,3333207802,780346,2,0.95874,0.14258,-0.33545,-2.794,1.282,2.748
2026-06-14 15:07:49.673,3333209129,780673,1,0.94531,-0.04004,0.48267,-8.344,7.397,-4.626
2026-06-14 15:07:49.673,3333209129,780673,2,0.95972,0.12646,-0.31519,-8.534,4.443,4.008
2026-06-14 15:07:49.955,3333209411,780955,1,0.93408,-0.04126,0.50586,-2.542,2.053,-2.885
2026-06-14 15:07:49.955,3333209411,780955,2,0.96509,0.12524,-0.31665,-3.198,1.817,1.214
2026-06-14 15:07:49.155,3333208611,781155,1,0.93188,-0.03687,0.50952,0.122,4.656,0.092
2026-06-14 15:07:49.155,3333208611,781155,2,0.99731,0.13037,-0.22974,3.122,27.351,-1.733
2026-06-14 15:07:50.769,3333210225,781768,1,0.86816,-0.02661,0.57568,3.931,67.29,2.168
2026-06-14 15:07:50.769,3333210225,781768,2,0.99268,0.23779,0.2583,-30.878,90.641,-20.603
2026-06-14 15:07:50.136,3333209592,782136,1,0.23584,-0.07275,0.94067,-2.71,102.511,6.542
2026-06-14 15:07:50.136,3333209592,782136,2,0.93774,0.25073,0.56152,-9.641,87.489,-18.275
2026-06-14 15:07:50.347,3333209803,782347,1,-0.13159,-0.04175,1.0083,6.618,73.634,7.954
2026-06-14 15:07:50.347,3333209803,782347,2,0.5918,0.2417,0.78442,-4.802,63.863,-12.466
2026-06-14 15:07:51.547,3333211003,782547,1,-0.27515,-0.02441,1.0603,10.221,26.26,-0.885
2026-06-14 15:07:51.547,3333211003,782547,2,0.52686,0.21899,1.00732,-22.969,-1.145,2.336
2026-06-14 15:07:51.856,3333211312,782856,1,-0.30811,-0.08521,1.22729,2.847,8.504,-3.863
2026-06-14 15:07:51.856,3333211312,782856,2,0.39014,0.10767,0.73047,3.962,30.901,2.771
2026-06-14 15:07:51.073,3333210529,783073,1,-0.36084,0.04688,0.76855,-7.794,-40.344,0.275
2026-06-14 15:07:51.073,3333210529,783073,2,0.33203,0.02417,0.66455,-17.26,-31.855,22.008
2026-06-14 15:07:51.273,3333210729,783273,1,0.00317,-0.2019,0.95386,23.076,-63.802,29.992
2026-06-14 15:07:51.273,3333210729,783273,2,0.76245,0.29004,0.57861,10.229,-108.412,23.992
2026-06-14 15:07:52.510,3333211966,783510,1,0.27637,-0.00684,0.98511,16.626,-61.908,0.924
2026-06-14 15:07:52.510,3333211966,783510,2,0.99121,0.26929,0.50659,24.435,-26.954,8.26
2026-06-14 15:07:52.760,3333212216,783760,1,0.48706,0.00562,1.18652,-17.069,-21.137,-4.466
2026-06-14 15:07:52.760,3333212216,783760,2,1.37988,0.30566,0.44092,24.511,-22.145,2.954
2026-06-14 15:07:52.033,3333211489,784033,1,0.42358,-0.052,0.72119,-19.046,-16.466,-4.053
2026-06-14 15:07:52.033,3333211489,784033,2,0.97754,0.17993,0.36377,-21.679,-3.13,11.282
2026-06-14 15:07:52.233,3333211689,784233,1,0.60889,-0.10425,0.97876,-1.916,6.931,-6.824
2026-06-14 15:07:52.233,3333211689,784233,2,1.00732,0.16919,0.27734,5.176,4.092,-8.511
2026-06-14 15:07:53.434,3333212890,784434,1,0.55273,-0.07959,0.94092,-9.611,-3.031,-4.168
2026-06-14 15:07:53.434,3333212890,784434,2,1.06567,0.17188,0.31567,-0.137,-6.931,-2.885
2026-06-14 15:07:53.634,3333213090,784634,1,0.59668,0.02246,0.8313,2.947,-2.863,-2.702
2026-06-14 15:07:53.634,3333213090,784634,2,1.81421,0.3252,0.53516,-2.87,19.679,-15.229
2026-06-14 15:07:53.023,3333212479,785022,1,0.3186,-0.12109,1.02686,2.168,19.74,10.29
2026-06-14 15:07:53.023,3333212479,785022,2,0.82886,0.25439,0.60303,0.908,-11.962,12.863
2026-06-14 15:07:53.350,3333212806,785350,1,0.45483,0.01831,0.87158,21.344,-32.298,18.13
2026-06-14 15:07:53.350,3333212806,785350,2,0.74268,0.22266,0.42847,8.252,-20.16,14.55
2026-06-14 15:07:54.552,3333214008,785552,1,0.27515,-0.02637,0.78052,7.359,-40.244,14.817
2026-06-14 15:07:54.552,3333214008,785552,2,0.99268,0.14941,0.10693,-1.588,-69.847,16.504
2026-06-14 15:07:54.894,3333214350,785894,1,0.87256,-0.04443,0.66724,-30.649,-16.931,-11.405
2026-06-14 15:07:54.894,3333214350,785894,2,1.11353,0.08325,-0.07129,-9.718,-12.061,7.84
2026-06-14 15:07:54.128,3333213584,786128,1,0.87036,-0.10962,0.53662,-39.603,-18.771,-8.985
2026-06-14 15:07:54.128,3333213584,786128,2,1.02466,0.03271,-0.03418,-4.817,2.626,4.824
2026-06-14 15:07:54.383,3333213839,786383,1,0.86133,-0.13428,0.60742,-3.573,18.374,5.885
2026-06-14 15:07:54.383,3333213839,786383,2,1.04321,0.02759,-0.07007,0.031,-5.733,0.863
2026-06-14 15:07:55.583,3333215039,786583,1,0.84302,-0.14868,0.63159,7.275,4.901,-1.214
2026-06-14 15:07:55.583,3333215039,786583,2,1.05444,0.05859,-0.10474,-17.412,-10.496,-7.679
2026-06-14 15:07:55.060,3333214516,787059,1,0.85474,-0.09375,0.63599,3.985,3.229,-0.649
2026-06-14 15:07:55.060,3333214516,787059,2,1.03247,0.06421,-0.11499,-3.366,2.756,0.901
2026-06-14 15:07:55.296,3333214752,787296,1,0.86084,-0.08936,0.62427,1.427,4.908,-1.267
2026-06-14 15:07:55.296,3333214752,787296,2,1.12451,0.09375,-0.02197,7.183,30.092,-14.878
2026-06-14 15:07:56.532,3333215988,787532,1,0.86597,-0.04761,0.53955,13.878,47.176,15.336
2026-06-14 15:07:56.532,3333215988,787532,2,0.88867,0.12939,0.04956,-12.16,75.901,-8.137
2026-06-14 15:07:56.732,3333216188,787732,1,0.3418,-0.10693,0.6543,10.122,66.42,2.046
2026-06-14 15:07:56.732,3333216188,787732,2,0.83203,0.13599,0.12671,14.588,27.893,-10.557
2026-06-14 15:07:56.932,3333216388,787932,1,0.53516,-0.04028,0.82666,2.695,5.901,-0.634
2026-06-14 15:07:56.932,3333216388,787932,2,1.11353,0.18652,0.26318,19.893,-5.351,-4.527
2026-06-14 15:07:56.355,3333215811,788355,1,0.85986,-0.08765,0.93237,10.664,-41.443,-2.015
2026-06-14 15:07:56.355,3333215811,788355,2,1.22046,0.2373,0.14746,-1.458,-3.618,2.939
2026-06-14 15:07:57.669,3333217125,788669,1,0.77661,-0.08203,0.90479,2.229,20.221,-6.901
2026-06-14 15:07:57.669,3333217125,788669,2,1.104,0.2124,0.12378,-8.817,2.344,-0.344
2026-06-14 15:07:57.869,3333217325,788869,1,0.69824,-0.02417,0.74707,13.511,0.244,-2.756
2026-06-14 15:07:57.869,3333217325,788869,2,1.09058,0.16064,0.22437,-0.992,7.809,-11.267
2026-06-14 15:07:57.069,3333216525,789069,1,0.72388,0.05591,0.9104,3.344,10.053,5.779
2026-06-14 15:07:57.069,3333216525,789069,2,0.97119,0.28638,0.35229,-0.763,16.092,7.298
2026-06-14 15:07:58.483,3333217939,789483,1,0.61816,-0.05664,0.92505,2.664,-21.023,6.84
2026-06-14 15:07:58.483,3333217939,789483,2,1.02686,0.24585,0.26367,15.092,-25.275,20.763
2026-06-14 15:07:58.761,3333218217,789761,1,0.57202,-0.01782,0.66162,-18.374,-9.344,-0.13
2026-06-14 15:07:58.761,3333218217,789761,2,0.64673,0.07568,0.10913,-9.237,-45.71,23.351
2026-06-14 15:07:58.961,3333218417,789961,1,0.44482,-0.03076,0.44995,-2.321,-51.74,-5.29
2026-06-14 15:07:58.961,3333218417,789961,2,1.03809,0.05103,0.04126,-24.573,-38.687,20.298
2026-06-14 15:07:58.161,3333217617,790161,1,0.87793,-0.13721,0.54492,-15.0,-23.374,-3.634
2026-06-14 15:07:58.161,3333217617,790161,2,1.03467,0.08496,-0.18188,-8.267,-26.519,-9.29
2026-06-14 15:07:58.361,3333217817,790361,1,0.92114,-0.06812,0.56201,-24.252,-10.015,-12.939
2026-06-14 15:07:58.361,3333217817,790361,2,1.00317,0.05933,-0.26221,-2.481,-12.817,0.046
2026-06-14 15:07:59.690,3333219146,790689,1,0.96387,-0.07617,0.4668,1.137,-0.55,-1.053
2026-06-14 15:07:59.690,3333219146,790689,2,0.98853,0.08081,-0.29346,4.206,1.55,-1.084
2026-06-14 15:07:59.039,3333218495,791039,1,0.94165,-0.03638,0.47388,-0.321,4.519,-1.198
2026-06-14 15:07:59.039,3333218495,791039,2,0.97388,0.06787,-0.28101,-2.443,7.427,-2.099
2026-06-14 15:07:59.347,3333218803,791347,1,0.92017,-0.04956,0.51709,7.29,0.634,4.275
2026-06-14 15:07:59.347,3333218803,791347,2,0.9873,0.07813,-0.2644,3.58,-2.29,-4.855
2026-06-14 15:08:00.547,3333220003,791547,1,0.92065,-0.04565,0.51514,3.672,2.901,0.802
2026-06-14 15:08:00.547,3333220003,791547,2,0.99585,0.09766,-0.23413,-0.45,2.252,-2.183
2026-06-14 15:08:00.802,3333220258,791802,1,0.93188,-0.02246,0.51855,-0.183,3.588,-0.817
2026-06-14 15:08:00.802,3333220258,791802,2,0.99536,0.08765,-0.23657,-4.634,6.298,0.076
2026-06-14 15:08:00.212,3333219668,792212,1,0.91992,-0.06006,0.5376,-6.176,8.305,0.282
2026-06-14 15:08:00.212,3333219668,792212,2,1.00635,0.09106,-0.22192,-6.511,7.076,2.244
2026-06-14 15:08:00.412,3333219868,792412,1,0.93628,-0.06689,0.53735,-2.42,13.687,0.252
2026-06-14 15:08:00.412,3333219868,792412,2,0.53003,0.04712,0.05981,-2.588,66.221,-10.565
2026-06-14 15:08:01.820,3333221276,792820,1,0.49487,-0.01489,0.67114,10.473,41.557,14.122
2026-06-14 15:08:01.820,3333221276,792820,2,0.99927,0.2981,0.24731,73.45,51.313,-25.115
2026-06-14 15:08:01.093,3333220549,793093,1,0.57007,-0.12427,1.03125,-0.672,17.282,1.58
2026-06-14 15:08:01.093,3333220549,793093,2,1.21851,0.40381,0.31372,6.748,-19.969,-0.137
2026-06-14 15:08:01.293,3333220749,793293,1,1.09863,-0.20923,1.45142,-8.55,1.527,-5.672
2026-06-14 15:08:01.293,3333220749,793293,2,0.74219,0.18652,0.26465,4.382,-7.672,-2.374
2026-06-14 15:08:02.652,3333222108,793652,1,0.63257,-0.06177,0.93921,-11.42,0.901,-6.29
2026-06-14 15:08:02.652,3333222108,793652,2,1.7373,0.427,0.59375,2.214,49.924,-31.359
2026-06-14 15:08:02.082,3333221538,794082,1,0.46606,0.0481,0.9082,26.069,24.748,8.153
2026-06-14 15:08:02.082,3333221538,794082,2,0.94458,0.34863,0.5376,-8.58,24.656,-18.573
2026-06-14 15:08:02.282,3333221738,794282,1,0.6272,-0.02222,0.90942,12.198,-14.336,-13.756
2026-06-14 15:08:02.282,3333221738,794282,2,0.84473,0.34814,0.58032,-22.389,11.313,3.061
2026-06-14 15:08:03.482,3333222938,794482,1,0.62573,-0.00195,1.04028,-5.351,13.031,0.878
2026-06-14 15:08:03.482,3333222938,794482,2,0.57935,0.09497,0.29443,-9.542,-63.321,26.374
2026-06-14 15:08:03.797,3333223253,794797,1,0.33984,-0.11328,0.62915,15.847,-26.794,5.389
2026-06-14 15:08:03.797,3333223253,794797,2,0.96631,-0.04053,0.01147,-43.756,-73.573,5.603
2026-06-14 15:08:03.219,3333222675,795219,1,0.98242,-0.04834,0.45752,-3.634,-7.137,2.313
2026-06-14 15:08:03.219,3333222675,795219,2,1.04712,0.07959,-0.08252,8.145,-5.885,-1.031
2026-06-14 15:08:03.419,3333222875,795419,1,0.89404,-0.04517,0.55176,6.038,6.71,3.405
2026-06-14 15:08:03.419,3333222875,795419,2,1.06006,0.08789,-0.104,-8.824,15.198,-2.435
2026-06-14 15:08:04.620,3333224076,795620,1,0.85254,-0.06494,0.61719,-12.885,17.641,-3.55
2026-06-14 15:08:04.620,3333224076,795620,2,1.10205,0.11011,-0.03418,-4.534,25.939,-6.214
2026-06-14 15:08:04.857,3333224313,795856,1,0.68433,-0.07764,0.53394,-16.832,16.435,4.458
2026-06-14 15:08:04.857,3333224313,795856,2,0.70996,-0.00977,0.13013,-22.13,36.13,-9.267
2026-06-14 15:08:04.110,3333223566,796110,1,0.64453,-0.05347,0.63013,3.893,16.023,2.847
2026-06-14 15:08:04.110,3333223566,796110,2,0.87256,0.26392,0.3103,21.023,25.511,0.344
2026-06-14 15:08:04.382,3333223838,796382,1,0.66748,-0.06128,0.86499,11.565,13.374,0.954
2026-06-14 15:08:04.382,3333223838,796382,2,1.04126,0.21899,0.29004,20.13,-9.588,6.725
2026-06-14 15:08:05.582,3333225038,796582,1,0.74707,-0.06616,0.94995,-3.58,-17.679,-2.313
2026-06-14 15:08:05.582,3333225038,796582,2,1.16699,0.18628,0.17847,12.55,4.42,-10.046
2026-06-14 15:08:05.969,3333225425,796969,1,0.84424,-0.09131,0.84058,-3.511,19.084,-6.931
2026-06-14 15:08:05.969,3333225425,796969,2,1.00781,0.19019,0.16064,22.168,17.366,-15.26
2026-06-14 15:08:05.331,3333224787,797331,1,0.67822,0.03931,0.82178,13.527,14.374,9.031
2026-06-14 15:08:05.331,3333224787,797331,2,1.57031,0.39063,0.41528,-17.023,28.55,0.977
2026-06-14 15:08:06.629,3333226085,797629,1,0.57007,0.01367,1.01367,-4.771,35.771,7.084
2026-06-14 15:08:06.629,3333226085,797629,2,0.93945,0.26416,0.44727,-12.855,13.847,10.786
2026-06-14 15:08:06.829,3333226285,797829,1,0.62061,-0.06738,0.98022,-11.588,-25.527,1.053
2026-06-14 15:08:06.829,3333226285,797829,2,0.9729,0.17749,0.25708,6.183,-36.87,28.038
2026-06-14 15:08:06.170,3333225626,798170,1,0.53833,-0.07861,0.58057,-3.13,-24.282,-2.099
2026-06-14 15:08:06.170,3333225626,798170,2,0.63892,0.03979,0.13989,0.26,-48.985,21.71
2026-06-14 15:08:07.450,3333226906,798450,1,0.9187,-0.08301,0.63403,-10.534,-32.237,-4.435
2026-06-14 15:08:07.450,3333226906,798450,2,1.08032,0.06079,-0.19067,15.756,-31.084,-1.595
2026-06-14 15:08:07.650,3333227106,798650,1,0.95532,0.00073,0.47192,33.405,-27.282,7.137
2026-06-14 15:08:07.650,3333227106,798650,2,1.04883,0.03101,-0.19482,-6.313,-18.099,4.305
2026-06-14 15:08:07.907,3333227363,798907,1,0.98901,-0.04443,0.44141,-3.092,0.26,-1.153
2026-06-14 15:08:07.907,3333227363,798907,2,1.00049,0.05957,-0.25757,-1.786,-1.687,-1.702
2026-06-14 15:08:07.246,3333226702,799246,1,0.95508,-0.04517,0.44849,4.977,-1.519,-0.756
2026-06-14 15:08:07.246,3333226702,799246,2,0.98828,0.07837,-0.25439,0.298,-0.718,3.214
2026-06-14 15:08:08.446,3333227902,799446,1,0.97729,-0.04321,0.43628,1.718,2.45,-1.649
2026-06-14 15:08:08.446,3333227902,799446,2,1.00098,0.04883,-0.2583,-2.794,4.412,-1.473
2026-06-14 15:08:08.646,3333228102,799646,1,0.98389,-0.04858,0.4436,3.427,10.977,0.588
2026-06-14 15:08:08.646,3333228102,799646,2,1.04053,0.07886,-0.19263,0.321,22.084,-4.626
2026-06-14 15:08:08.932,3333228388,799932,1,0.98096,-0.03589,0.45288,-1.55,47.008,2.878
2026-06-14 15:08:08.932,3333228388,799932,2,1.04468,0.10181,0.05859,13.748,94.427,-17.527
2026-06-14 15:08:08.185,3333227641,800185,1,0.63721,-0.03857,0.58521,0.221,126.336,13.053
2026-06-14 15:08:08.185,3333227641,800185,2,1.04395,0.18774,0.32031,-20.756,114.023,-28.344
2026-06-14 15:08:08.385,3333227841,800385,1,0.1228,-0.09131,0.91235,6.359,134.298,27.664
2026-06-14 15:08:08.385,3333227841,800385,2,0.80615,0.2063,0.6123,-48.221,106.015,-29.0
2026-06-14 15:08:09.667,3333229123,800667,1,-0.38477,-0.06396,1.12695,19.374,65.16,10.748
2026-06-14 15:08:09.667,3333229123,800667,2,0.32788,0.29224,1.08276,-6.74,17.328,-9.069
2026-06-14 15:08:09.057,3333228513,801057,1,-0.5105,0.05103,1.00171,-4.511,-18.015,-8.481
2026-06-14 15:08:09.057,3333228513,801057,2,0.30151,0.28784,1.0293,3.496,-12.344,1.298
2026-06-14 15:08:10.430,3333229886,801430,1,-0.15088,0.01489,1.06909,-2.031,-12.321,1.168
2026-06-14 15:08:10.430,3333229886,801430,2,0.71875,0.22852,0.73438,18.634,-81.328,23.328
2026-06-14 15:08:10.916,3333230372,801916,1,0.30835,0.0354,0.93115,4.687,-106.443,7.191
2026-06-14 15:08:10.916,3333230372,801916,2,0.93018,0.07642,0.28442,28.198,-85.191,29.725
2026-06-14 15:08:10.162,3333229618,802162,1,0.65576,-0.03516,0.60986,-10.519,-65.374,-1.649
2026-06-14 15:08:10.162,3333229618,802162,2,1.07104,0.09229,-0.11255,6.267,-70.832,3.626
2026-06-14 15:08:10.384,3333229840,802383,1,0.99146,-0.06714,0.45288,-6.649,-10.008,2.267
2026-06-14 15:08:10.384,3333229840,802383,2,0.99146,0.12061,-0.18237,4.176,9.176,-2.13
2026-06-14 15:08:11.583,3333231039,802583,1,0.84448,-0.06128,0.57471,2.672,13.588,-3.031
2026-06-14 15:08:11.583,3333231039,802583,2,1.0293,0.11426,-0.09839,-9.389,14.221,-0.008
2026-06-14 15:08:11.864,3333231320,802864,1,0.89502,-0.05737,0.58203,0.534,17.282,-1.634
2026-06-14 15:08:11.864,3333231320,802864,2,1.12793,0.17041,-0.0293,8.992,59.87,-3.031
2026-06-14 15:08:11.164,3333230620,803164,1,0.59668,-0.12988,0.75879,-5.0,70.947,10.107
2026-06-14 15:08:11.164,3333230620,803164,2,0.93823,0.08545,0.14844,15.695,85.511,-17.534
2026-06-14 15:08:11.364,3333230820,803364,1,0.28394,-0.15552,0.85278,2.214,93.824,21.84
2026-06-14 15:08:11.364,3333230820,803364,2,0.88574,0.24048,0.5459,13.099,94.55,-28.519
2026-06-14 15:08:12.564,3333232020,803564,1,0.11206,-0.13794,1.04346,22.656,64.802,-0.16
2026-06-14 15:08:12.564,3333232020,803564,2,0.65015,0.30762,0.88525,-2.641,50.626,-19.511
2026-06-14 15:08:12.888,3333232344,803888,1,-0.13818,-0.05371,1.10522,-4.359,58.313,8.023
2026-06-14 15:08:12.888,3333232344,803888,2,0.50269,0.21655,0.9729,-16.443,29.0,-1.687
2026-06-14 15:08:12.088,3333231544,804088,1,-0.25537,0.00635,1.0769,-0.115,25.313,8.13
2026-06-14 15:08:12.088,3333231544,804088,2,0.40479,0.19946,1.01733,1.298,29.534,-1.908
2026-06-14 15:08:12.339,3333231795,804339,1,-0.42725,-0.01782,0.86719,7.733,33.282,6.519
2026-06-14 15:08:12.339,3333231795,804339,2,0.32813,0.22095,1.01147,-0.763,8.771,2.893
2026-06-14 15:08:13.593,3333233049,804593,1,-0.41748,-0.00854,1.02417,3.679,2.618,1.832
2026-06-14 15:08:13.593,3333233049,804593,2,0.31104,0.25293,1.10962,6.153,-26.992,-0.076
2026-06-14 15:08:13.857,3333233313,804856,1,-0.3457,-0.01318,1.13281,-9.092,-84.008,-4.672
2026-06-14 15:08:13.857,3333233313,804856,2,0.68042,0.25928,0.76538,24.557,-115.603,25.863
2026-06-14 15:08:13.056,3333232512,805056,1,0.11841,-0.03589,0.96997,-16.542,-102.466,-8.832
2026-06-14 15:08:13.056,3333232512,805056,2,0.95947,0.23267,0.44946,30.481,-126.855,36.366
2026-06-14 15:08:13.256,3333232712,805256,1,0.42261,-0.11499,0.79175,-24.115,-105.145,-18.969
2026-06-14 15:08:13.256,3333232712,805256,2,1.02808,0.12012,0.12109,-15.244,-101.496,32.13
2026-06-14 15:08:14.511,3333233967,805511,1,0.8584,-0.15039,0.52832,-17.267,-69.092,-3.229
2026-06-14 15:08:14.511,3333233967,805511,2,1.06055,0.01294,-0.23364,14.359,-45.145,0.328
2026-06-14 15:08:14.806,3333234262,805806,1,1.04126,0.00366,0.34814,32.504,-24.695,-5.611
2026-06-14 15:08:14.806,3333234262,805806,2,0.97729,-0.02539,-0.375,-23.328,-2.71,4.336
2026-06-14 15:08:14.035,3333233491,806035,1,1.02588,-0.01318,0.33447,9.481,-2.061,4.145
2026-06-14 15:08:14.035,3333233491,806035,2,0.95093,0.02539,-0.43604,1.748,2.099,14.954
2026-06-14 15:08:14.235,3333233691,806235,1,1.00537,-0.21606,0.33203,-10.519,20.885,-13.374
2026-06-14 15:08:14.235,3333233691,806235,2,0.97192,0.17944,-0.35107,13.924,23.969,-16.656
2026-06-14 15:08:15.558,3333235014,806558,1,0.87622,-0.10156,0.46582,-71.74,37.573,-18.168
2026-06-14 15:08:15.558,3333235014,806558,2,0.98291,0.10107,-0.31909,9.252,3.26,-12.489
2026-06-14 15:08:15.885,3333235341,806885,1,0.95239,-0.05615,0.43481,13.053,7.489,5.275
2026-06-14 15:08:15.885,3333235341,806885,2,0.93335,0.07666,-0.37695,13.473,-1.84,1.84
2026-06-14 15:08:15.085,3333234541,807085,1,1.02173,-0.04272,0.43945,25.031,2.382,5.015
2026-06-14 15:08:15.085,3333234541,807085,2,0.93848,0.12915,-0.33569,-2.237,2.702,0.061
2026-06-14 15:08:15.403,3333234859,807403,1,0.95288,-0.01929,0.44385,-12.695,6.802,-7.229
2026-06-14 15:08:15.403,3333234859,807403,2,0.92822,0.10254,-0.33228,-4.908,-0.534,2.863
2026-06-14 15:08:16.625,3333236081,807624,1,0.95337,-0.04614,0.4624,-1.74,-1.16,0.046
2026-06-14 15:08:16.625,3333236081,807624,2,0.95166,0.10376,-0.36108,-2.878,-3.26,1.099
2026-06-14 15:08:16.824,3333236280,807824,1,0.9668,-0.05347,0.43652,-1.504,-0.733,1.13
2026-06-14 15:08:16.824,3333236280,807824,2,0.95239,0.10425,-0.33813,0.74,-0.641,-2.634
2026-06-14 15:08:16.024,3333235480,808024,1,0.95776,-0.03589,0.42773,0.099,0.908,-0.496
2026-06-14 15:08:16.024,3333235480,808024,2,0.94409,0.11133,-0.36621,0.71,1.832,-1.916
2026-06-14 15:08:17.491,3333236947,808490,1,0.96826,-0.03076,0.42944,1.183,1.87,0.321
2026-06-14 15:08:17.491,3333236947,808490,2,0.93457,0.11328,-0.36523,2.038,1.092,-1.107
2026-06-14 15:08:17.832,3333237288,808832,1,0.9624,-0.02954,0.42163,2.008,2.351,0.336
2026-06-14 15:08:17.832,3333237288,808832,2,0.93726,0.11719,-0.37817,1.687,1.595,-0.252
2026-06-14 15:08:17.177,3333236633,809177,1,0.96729,-0.03027,0.41577,-1.641,1.885,-0.015
2026-06-14 15:08:17.177,3333236633,809177,2,0.93188,0.10962,-0.37646,-1.763,2.267,1.725
2026-06-14 15:08:17.396,3333236852,809396,1,0.96313,-0.03735,0.42188,-0.168,2.939,0.229
2026-06-14 15:08:17.396,3333236852,809396,2,0.94043,0.10889,-0.3623,-1.168,2.412,-0.206
2026-06-14 15:08:18.707,3333238163,809706,1,0.9646,-0.02124,0.43921,2.702,3.718,1.328
2026-06-14 15:08:18.707,3333238163,809706,2,0.93774,0.1123,-0.35889,3.519,2.458,-0.099
2026-06-14 15:08:18.120,3333237576,810120,1,0.95801,-0.04004,0.44507,5.397,0.405,3.191
2026-06-14 15:08:18.120,3333237576,810120,2,0.9458,0.11987,-0.37134,1.244,1.13,-0.58
2026-06-14 15:08:18.403,3333237859,810403,1,0.96997,-0.04541,0.42212,0.969,-0.603,-0.794
2026-06-14 15:08:18.403,3333237859,810403,2,0.93481,0.10645,-0.36865,0.038,-0.649,1.443
2026-06-14 15:08:19.714,3333239170,810714,1,0.96387,-0.04688,0.42627,1.405,0.321,0.855
2026-06-14 15:08:19.714,3333239170,810714,2,0.93701,0.10229,-0.39209,0.389,1.321,0.458
2026-06-14 15:08:19.299,3333238755,811299,1,0.96191,-0.04297,0.43311,2.305,3.779,-0.969
2026-06-14 15:08:19.299,3333238755,811299,2,0.93408,0.09644,-0.36963,-0.527,5.198,-0.153
2026-06-14 15:08:20.565,3333240021,811565,1,0.96094,-0.04224,0.43506,-0.107,5.779,0.687
2026-06-14 15:08:20.565,3333240021,811565,2,0.93359,0.10498,-0.36279,-0.924,5.382,-0.405
2026-06-14 15:08:20.787,3333240243,811787,1,0.9541,-0.04175,0.4519,-0.244,5.389,0.267
2026-06-14 15:08:20.787,3333240243,811787,2,0.94214,0.0957,-0.34863,-1.534,5.015,-0.748
2026-06-14 15:08:20.024,3333239480,812024,1,0.95654,-0.0332,0.45337,1.321,3.458,-0.786
2026-06-14 15:08:20.024,3333239480,812024,2,0.94458,0.10913,-0.36304,1.557,-0.351,-0.183
2026-06-14 15:08:20.299,3333239755,812299,1,0.95898,-0.03662,0.44458,3.511,1.748,0.466
2026-06-14 15:08:20.299,3333239755,812299,2,0.9458,0.10889,-0.35278,0.626,0.763,-0.901
2026-06-14 15:08:21.499,3333240955,812499,1,0.95776,-0.02832,0.45605,0.237,2.786,0.366
2026-06-14 15:08:21.499,3333240955,812499,2,0.94751,0.10913,-0.34985,0.29,3.649,0.168
2026-06-14 15:08:21.712,3333241168,812712,1,0.95898,-0.03442,0.45679,0.908,3.893,1.55
2026-06-14 15:08:21.712,3333241168,812712,2,0.94922,0.1145,-0.33716,0.893,4.252,-1.015
2026-06-14 15:08:21.056,3333240512,813056,1,0.93555,-0.04492,0.47949,-1.115,4.725,1.794
2026-06-14 15:08:21.056,3333240512,813056,2,0.95337,0.11914,-0.32788,-0.45,3.16,-0.023
2026-06-14 15:08:21.324,3333240780,813324,1,0.95459,-0.04321,0.47095,0.321,3.053,0.435
2026-06-14 15:08:21.324,3333240780,813324,2,0.95801,0.11377,-0.33301,-1.221,2.702,1.183
2026-06-14 15:08:22.524,3333241980,813524,1,0.93066,-0.05298,0.46704,-2.496,4.511,-0.641
2026-06-14 15:08:22.524,3333241980,813524,2,0.96143,0.104,-0.31372,-1.069,3.687,-0.695
2026-06-14 15:08:22.724,3333242180,813724,1,0.94727,-0.04199,0.48096,1.168,1.733,0.573
2026-06-14 15:08:22.724,3333242180,813724,2,0.96265,0.11084,-0.32446,0.237,1.87,0.206
2026-06-14 15:08:22.018,3333241474,814017,1,0.94458,-0.04663,0.47974,3.824,1.092,0.901
2026-06-14 15:08:22.018,3333241474,814017,2,0.96411,0.10913,-0.32251,0.672,0.641,-0.16
2026-06-14 15:08:22.253,3333241709,814253,1,0.95215,-0.0459,0.46777,0.321,1.504,0.45
2026-06-14 15:08:22.253,3333241709,814253,2,0.95947,0.11108,-0.31543,0.328,0.794,-0.237
2026-06-14 15:08:23.453,3333242909,814453,1,0.94629,-0.04736,0.4585,2.954,0.969,1.443
2026-06-14 15:08:23.453,3333242909,814453,2,0.96143,0.10571,-0.33911,0.405,1.229,0.931
2026-06-14 15:08:23.653,3333243109,814653,1,0.94482,-0.04663,0.47046,0.992,1.992,1.137
2026-06-14 15:08:23.653,3333243109,814653,2,0.95264,0.11157,-0.32788,0.107,1.527,-0.214
2026-06-14 15:08:23.906,3333243362,814906,1,0.9502,-0.05029,0.46997,3.374,0.924,0.992
2026-06-14 15:08:23.906,3333243362,814906,2,0.96045,0.09961,-0.33008,2.0,1.557,-1.229
2026-06-14 15:08:23.169,3333242625,815169,1,0.94702,-0.03711,0.46606,3.015,1.695,1.122
2026-06-14 15:08:23.169,3333242625,815169,2,0.95142,0.1084,-0.32837,0.458,0.351,-1.084
2026-06-14 15:08:23.369,3333242825,815369,1,0.95142,-0.04639,0.46387,2.115,1.275,1.023
2026-06-14 15:08:23.369,3333242825,815369,2,0.95752,0.10815,-0.33716,1.176,1.534,-1.153
2026-06-14 15:08:24.699,3333244155,815698,1,0.95215,-0.03662,0.45874,1.237,0.58,0.542
2026-06-14 15:08:24.699,3333244155,815698,2,0.95459,0.10205,-0.33374,1.031,0.718,-0.42
2026-06-14 15:08:24.050,3333243506,816050,1,0.95508,-0.03833,0.47095,0.412,1.687,0.298
2026-06-14 15:08:24.050,3333243506,816050,2,0.95166,0.1062,-0.34082,0.412,0.634,0.076
2026-06-14 15:08:24.263,3333243719,816263,1,0.95459,-0.04126,0.46826,1.489,1.313,0.634
2026-06-14 15:08:24.263,3333243719,816263,2,0.9502,0.10864,-0.35254,0.817,1.626,-0.412
2026-06-14 15:08:25.463,3333244919,816463,1,0.95483,-0.04614,0.45166,0.458,1.641,0.282
2026-06-14 15:08:25.463,3333244919,816463,2,0.95459,0.10693,-0.3374,-0.603,3.282,0.198
2026-06-14 15:08:25.717,3333245173,816717,1,0.95972,-0.04541,0.45508,0.328,4.519,0.015
2026-06-14 15:08:25.717,3333245173,816717,2,0.98364,0.10986,-0.35376,-1.847,9.893,1.695
2026-06-14 15:08:25.982,3333245438,816982,1,1.00977,-0.05078,0.41992,-3.031,13.015,-1.046
2026-06-14 15:08:25.982,3333245438,816982,2,1.04126,0.10376,-0.27466,5.092,31.603,0.748
2026-06-14 15:08:25.210,3333244666,817210,1,0.65942,0.0127,0.37793,1.26,64.038,-7.427
2026-06-14 15:08:25.210,3333244666,817210,2,0.88916,0.16382,0.2041,-6.008,66.069,-11.962
2026-06-14 15:08:26.619,3333246075,817619,1,0.47852,-0.05664,1.03906,6.099,35.634,15.595
2026-06-14 15:08:26.619,3333246075,817619,2,1.26538,0.44995,0.46045,14.366,-5.313,-0.206
2026-06-14 15:08:26.971,3333246427,817971,1,0.76538,-0.1521,1.3457,6.473,19.573,-1.687
2026-06-14 15:08:26.971,3333246427,817971,2,0.979,0.27808,0.36401,7.328,1.702,5.725
2026-06-14 15:08:26.358,3333245814,818358,1,0.63452,-0.0061,0.94629,-9.992,0.908,0.489
2026-06-14 15:08:26.358,3333245814,818358,2,0.92871,0.18408,0.33862,-25.924,8.328,21.115
2026-06-14 15:08:27.594,3333247050,818594,1,0.73608,-0.18091,1.01831,24.977,-12.458,3.008
2026-06-14 15:08:27.594,3333247050,818594,2,1.38501,0.37598,0.44775,4.084,59.13,-18.382
2026-06-14 15:08:27.883,3333247339,818883,1,0.4978,-0.11963,0.90503,4.817,28.611,-16.908
2026-06-14 15:08:27.883,3333247339,818883,2,0.93115,0.31836,0.49854,5.847,25.328,-1.382
2026-06-14 15:08:27.153,3333246609,819153,1,0.45972,-0.05347,1.12036,4.74,10.924,3.916
2026-06-14 15:08:27.153,3333246609,819153,2,0.91699,0.24048,0.63818,12.527,-20.809,10.13
2026-06-14 15:08:27.419,3333246875,819419,1,0.36011,0.02026,0.8291,4.298,-41.145,11.092
2026-06-14 15:08:27.419,3333246875,819419,2,0.6189,-0.03491,0.27173,-32.687,-104.672,38.282
2026-06-14 15:08:28.619,3333248075,819619,1,0.36108,-0.19922,0.4397,-5.55,-67.099,-20.13
2026-06-14 15:08:28.619,3333248075,819619,2,1.27197,0.20264,0.33447,23.412,-74.382,6.802
2026-06-14 15:08:28.890,3333248346,819890,1,0.97534,-0.03809,0.58032,-31.153,40.061,-7.092
2026-06-14 15:08:28.890,3333248346,819890,2,1.04736,0.08813,-0.05225,-3.573,21.863,-4.527
2026-06-14 15:08:28.100,3333247556,820100,1,0.80884,0.00024,0.64209,3.405,27.779,1.695
2026-06-14 15:08:28.100,3333247556,820100,2,1.08301,0.1167,0.12085,5.611,53.679,-9.847
2026-06-14 15:08:28.316,3333247772,820316,1,0.65356,-0.13501,0.7334,3.656,68.893,6.458
2026-06-14 15:08:28.316,3333247772,820316,2,0.93115,0.25293,0.25781,27.313,101.901,-21.244
2026-06-14 15:08:29.516,3333248972,820516,1,0.24976,-0.20215,1.07568,-7.779,81.412,-0.695
2026-06-14 15:08:29.516,3333248972,820516,2,0.9519,0.41504,0.33936,10.969,62.931,-29.924
2026-06-14 15:08:29.736,3333249192,820736,1,0.01904,-0.10718,0.97388,22.389,74.603,21.473
2026-06-14 15:08:29.736,3333249192,820736,2,0.60083,0.21997,0.90552,-33.74,59.679,-17.702
2026-06-14 15:08:29.954,3333249410,820954,1,-0.24072,-0.02881,1.11475,15.115,59.42,3.634
2026-06-14 15:08:29.954,3333249410,820954,2,0.4353,0.25586,0.99902,-14.351,27.771,-7.115
2026-06-14 15:08:29.195,3333248651,821195,1,-0.35596,-0.00977,1.01807,1.954,34.481,5.443
2026-06-14 15:08:29.195,3333248651,821195,2,0.36499,0.27344,1.00195,1.779,18.771,-5.527
2026-06-14 15:08:29.395,3333248851,821395,1,-0.36328,0.03369,0.98071,-5.771,-10.435,2.13
2026-06-14 15:08:29.395,3333248851,821395,2,0.34155,0.30444,1.0,1.985,-3.603,0.481
2026-06-14 15:08:30.659,3333250115,821659,1,-0.43994,-0.01953,0.9668,-4.695,6.817,5.916
2026-06-14 15:08:30.659,3333250115,821659,2,0.35132,0.32227,1.03394,2.847,-6.198,1.977
2026-06-14 15:08:30.859,3333250315,821859,1,-0.52563,-0.06372,1.09253,-9.092,-27.679,-1.916
2026-06-14 15:08:30.859,3333250315,821859,2,0.55811,0.30151,0.88159,14.168,-87.748,23.458
