datetime,epoch_ms,ts_millis,mpu_id,ax,ay,az,gx,gy,gz
NTP_NOT_SET,,33772,2,-0.62207,0.38159,0.70996,0.71,1.664,-0.504
NTP_NOT_SET,,33772,2,-0.62207,0.38159,0.70996,0.71,1.664,-0.504
NTP_NOT_SET,,53958,1,-0.02588,-0.27026,-0.91479,0.618,2.382,0.557
NTP_NOT_SET,,53958,1,-0.02588,-0.27026,-0.91479,0.618,2.382,0.557
NTP_NOT_SET,,53958,2,-0.62085,0.38599,0.71069,0.802,1.634,-0.382
NTP_NOT_SET,,53958,2,-0.62085,0.38599,0.71069,0.802,1.634,-0.382
NTP_NOT_SET,,69155,1,-0.02856,-0.2749,-0.90869,0.771,2.214,0.542
NTP_NOT_SET,,69155,1,-0.02856,-0.2749,-0.90869,0.771,2.214,0.542
NTP_NOT_SET,,69155,2,-0.62134,0.39673,0.70752,0.908,2.137,-0.901
NTP_NOT_SET,,79337,1,-0.02368,-0.28003,-0.92334,-0.573,3.824,0.939
NTP_NOT_SET,,79337,2,-0.62305,0.38794,0.71045,0.855,1.885,-0.718
2026-06-06T21:19:33.432779,,,,,,,,,
2026-06-06 21:19:33.375,2664312831,6375,1,-0.02295,-0.27563,-0.90747,0.664,2.282,0.588
2026-06-06 21:19:33.375,2664312831,6375,2,-0.61987,0.38354,0.7063,0.557,1.519,-0.458
2026-06-06 21:19:34.652,2664314108,6652,1,-0.02051,-0.27393,-0.91162,0.527,2.298,0.794
2026-06-06 21:19:34.652,2664314108,6652,2,-0.62964,0.38086,0.71094,0.412,1.481,-0.351
2026-06-06 21:19:34.852,2664314308,6852,1,-0.02222,-0.27148,-0.90723,0.443,2.252,0.504
2026-06-06 21:19:34.852,2664314308,6852,2,-0.62524,0.38574,0.69849,0.702,1.412,-0.412
2026-06-06 21:19:34.374,2664313830,7374,1,-0.02466,-0.28003,-0.90308,0.634,2.427,0.458
2026-06-06 21:19:34.374,2664313830,7374,2,-0.62231,0.39063,0.70898,0.687,1.534,-0.504
2026-06-06 21:19:35.675,2664315131,7675,1,-0.01685,-0.27319,-0.9187,0.565,2.405,0.687
2026-06-06 21:19:35.675,2664315131,7675,2,-0.6189,0.39087,0.70776,0.565,1.435,-0.527
2026-06-06 21:19:36.751,2664316207,8751,1,-0.02686,-0.27661,-0.91504,0.58,2.336,0.702
2026-06-06 21:19:36.751,2664316207,8751,2,-0.62354,0.39307,0.71631,0.595,1.679,-0.534
2026-06-06 21:19:36.466,2664315922,9466,1,-0.02344,-0.27832,-0.91284,0.595,2.435,0.626
2026-06-06 21:19:36.466,2664315922,9466,2,-0.61743,0.39063,0.71021,0.42,1.053,-0.656
2026-06-06 21:19:37.739,2664317195,9739,1,-0.02393,-0.27612,-0.91724,0.733,2.412,0.687
2026-06-06 21:19:37.739,2664317195,9739,2,-0.62378,0.38794,0.71606,0.557,1.809,-0.519
2026-06-06 21:19:37.010,2664316466,10010,1,-0.02808,-0.2793,-0.91577,0.573,2.267,0.626
2026-06-06 21:19:37.010,2664316466,10010,2,-0.61865,0.39209,0.70093,0.328,1.214,-0.611
2026-06-06 21:19:37.246,2664316702,10246,1,-0.02661,-0.28174,-0.91748,0.58,2.55,0.534
2026-06-06 21:19:37.246,2664316702,10246,2,-0.62524,0.38306,0.70874,0.954,1.924,-0.435
2026-06-06 21:19:37.513,2664316969,10513,1,-0.02222,-0.28345,-0.90112,0.893,2.389,0.802
2026-06-06 21:19:37.513,2664316969,10513,2,-0.61987,0.38989,0.71655,0.473,1.878,-0.412
2026-06-06 21:19:38.771,2664318227,10771,1,-0.01831,-0.2749,-0.90796,0.58,2.275,0.573
2026-06-06 21:19:38.771,2664318227,10771,2,-0.62329,0.39087,0.71143,0.42,1.847,-0.237
2026-06-06 21:19:38.106,2664317562,11106,1,-0.02222,-0.27759,-0.90527,0.771,2.351,0.679
2026-06-06 21:19:38.106,2664317562,11106,2,-0.61304,0.38477,0.71533,0.656,1.611,-0.45
2026-06-06 21:19:38.326,2664317782,11326,1,-0.02002,-0.27417,-0.9165,0.664,2.191,0.695
2026-06-06 21:19:38.326,2664317782,11326,2,-0.62573,0.38501,0.7168,0.511,1.611,-0.298
2026-06-06 21:19:38.560,2664318016,11560,1,-0.01489,-0.27441,-0.90967,0.756,2.344,0.511
2026-06-06 21:19:38.560,2664318016,11560,2,-0.62231,0.38379,0.7019,0.58,1.748,-0.412
2026-06-06 21:19:39.813,2664319269,11813,1,-0.01685,-0.2793,-0.9209,0.611,2.168,0.748
2026-06-06 21:19:39.813,2664319269,11813,2,-0.62842,0.39331,0.72119,0.55,1.458,-0.672
2026-06-06 21:19:39.013,2664318469,12013,1,-0.02026,-0.27368,-0.92065,0.489,2.328,0.71
2026-06-06 21:19:39.013,2664318469,12013,2,-0.61841,0.38794,0.70386,0.618,1.504,-0.405
2026-06-06 21:19:39.305,2664318761,12305,1,-0.02319,-0.27002,-0.91455,0.588,2.473,0.58
2026-06-06 21:19:39.305,2664318761,12305,2,-0.62305,0.38818,0.70996,0.565,1.687,-0.29
2026-06-06 21:19:39.576,2664319032,12576,1,-0.02466,-0.271,-0.86523,0.26,2.084,0.702
2026-06-06 21:19:39.576,2664319032,12576,2,-0.62134,0.38647,0.70483,0.527,-0.282,-0.763
2026-06-06 21:19:40.791,2664320247,12790,1,-0.01416,-0.27368,-0.90771,0.786,2.405,0.435
2026-06-06 21:19:40.791,2664320247,12790,2,-0.61621,0.38086,0.70972,0.466,1.344,-0.664
2026-06-06 21:19:40.092,2664319548,13092,1,-0.02563,-0.27002,-0.91064,0.603,2.275,0.695
2026-06-06 21:19:40.092,2664319548,13092,2,-0.62915,0.38843,0.69946,0.802,2.069,-0.511
2026-06-06 21:19:40.296,2664319752,13296,1,-0.02246,-0.28076,-0.91406,0.74,2.16,0.504
2026-06-06 21:19:40.296,2664319752,13296,2,-0.62769,0.38501,0.70459,0.756,1.863,-0.641
2026-06-06 21:19:41.622,2664321078,13622,1,-0.01953,-0.27344,-0.90967,0.588,2.153,0.542
2026-06-06 21:19:41.622,2664321078,13622,2,-0.62671,0.39014,0.70874,0.42,1.664,-0.397
2026-06-06 21:19:41.985,2664321441,13985,1,-0.01636,-0.27246,-0.90503,0.511,2.412,0.427
2026-06-06 21:19:41.985,2664321441,13985,2,-0.62671,0.38477,0.71021,0.664,2.061,-0.565
2026-06-06 21:19:41.253,2664320709,14252,1,-0.02173,-0.27661,-0.91772,0.794,2.282,0.664
2026-06-06T21:22:11.487319,,,,,,,,,
2026-06-06 21:22:11.320,2664470776,5320,1,0.97559,-0.13745,0.45923,39.198,-23.626,29.153
2026-06-06 21:22:11.320,2664470776,5320,2,1.04736,-0.19702,0.0127,32.557,-10.374,0.466
2026-06-06 21:22:12.520,2664471976,5520,1,0.95215,-0.09888,0.42822,21.954,-14.733,22.527
2026-06-06 21:22:12.520,2664471976,5520,2,1.06128,-0.21143,0.04297,14.137,-13.718,6.954
2026-06-06 21:22:12.720,2664472176,5720,1,0.97217,-0.11328,0.42358,0.137,2.595,12.771
2026-06-06 21:22:12.720,2664472176,5720,2,1.03687,-0.21704,0.08276,-10.206,4.611,8.656
2026-06-06 21:22:12.920,2664472376,5920,1,0.92017,-0.19897,0.43384,-16.977,16.58,10.916
2026-06-06 21:22:12.920,2664472376,5920,2,1.04199,-0.28833,0.00854,-36.473,8.069,1.687
2026-06-06 21:22:12.134,2664471590,6133,1,0.91406,-0.2981,0.46582,-22.427,16.779,-3.344
2026-06-06 21:22:12.134,2664471590,6133,2,1.00317,-0.28516,0.07861,-4.328,4.695,3.687
2026-06-06 21:22:12.382,2664471838,6382,1,0.90381,-0.25171,0.47803,10.634,2.092,4.221
2026-06-06 21:22:12.382,2664471838,6382,2,1.02832,-0.29712,0.05713,15.42,0.824,1.481
2026-06-06 21:22:13.609,2664473065,6608,1,0.90625,-0.27954,0.50317,14.939,4.107,13.198
2026-06-06 21:22:13.609,2664473065,6608,2,1.0293,-0.27661,0.06177,8.527,6.817,-0.351
2026-06-06 21:22:13.808,2664473264,6808,1,0.88477,-0.29248,0.52686,2.481,6.718,2.26
2026-06-06 21:22:13.808,2664473264,6808,2,1.00366,-0.30273,0.12573,-0.687,16.893,0.282
2026-06-06 21:22:13.008,2664472464,7008,1,0.82764,-0.34058,0.54639,-5.145,0.763,-8.847
2026-06-06 21:22:13.008,2664472464,7008,2,1.03052,-0.30078,0.14624,-0.634,-10.183,-20.397
2026-06-06 21:22:13.245,2664472701,7245,1,0.90088,-0.2522,0.49121,5.534,-10.626,-20.084
2026-06-06 21:22:13.245,2664472701,7245,2,1.0376,-0.24927,0.16724,-14.534,-3.42,-20.664
2026-06-06 21:22:13.445,2664472901,7445,1,0.92896,-0.19238,0.47827,-5.893,-3.763,-20.13
2026-06-06 21:22:13.445,2664472901,7445,2,1.073,-0.25146,0.16382,-8.863,-9.687,-6.305
2026-06-06 21:22:14.645,2664474101,7645,1,0.94214,-0.05298,0.41284,14.237,-1.45,-11.405
2026-06-06 21:22:14.645,2664474101,7645,2,1.12891,0.00635,0.03931,10.702,-7.55,-8.099
2026-06-06 21:22:14.877,2664474333,7876,1,0.92334,0.09351,0.37671,-3.282,4.153,-5.13
2026-06-06 21:22:14.877,2664474333,7876,2,1.04565,-0.03882,0.04688,-5.092,-6.344,6.351
2026-06-06 21:22:14.076,2664473532,8076,1,1.02686,-0.00854,0.39258,-11.557,-14.924,-7.71
2026-06-06 21:22:14.076,2664473532,8076,2,1.10547,-0.12866,0.05273,27.718,-12.092,9.534
2026-06-06 21:22:14.276,2664473732,8276,1,0.99438,-0.04004,0.36938,29.282,0.305,11.176
2026-06-06 21:22:14.276,2664473732,8276,2,1.05835,-0.12329,0.03735,-2.237,8.84,-10.557
2026-06-06 21:22:14.476,2664473932,8476,1,0.98657,-0.02368,0.37402,7.611,-4.015,6.794
2026-06-06 21:22:14.476,2664473932,8476,2,1.0791,-0.16284,0.01123,7.595,3.779,-0.725
2026-06-06 21:22:15.676,2664475132,8676,1,0.98047,-0.09668,0.3877,-2.611,5.344,5.214
2026-06-06 21:22:15.676,2664475132,8676,2,1.05737,-0.12817,0.02441,-6.382,-3.122,1.015
2026-06-06 21:22:15.876,2664475332,8876,1,0.96753,-0.09961,0.38135,-1.924,-2.008,-1.504
2026-06-06 21:22:15.876,2664475332,8876,2,1.03223,-0.13257,0.01343,-5.336,-4.664,-0.038
2026-06-06 21:22:15.085,2664474541,9085,1,1.00146,-0.08032,0.35229,-5.42,-0.405,-1.84
2026-06-06 21:22:15.085,2664474541,9085,2,1.06592,-0.13354,0.01611,-6.603,-0.802,1.099
2026-06-06 21:22:15.285,2664474741,9285,1,1.00513,-0.08179,0.36304,-1.328,4.908,0.809
2026-06-06 21:22:15.285,2664474741,9285,2,1.03931,-0.15552,0.01611,0.183,-1.237,0.969
2026-06-06 21:22:15.485,2664474941,9485,1,0.99634,-0.0752,0.35278,0.221,2.664,3.099
2026-06-06 21:22:15.485,2664474941,9485,2,1.05103,-0.12769,0.00244,-0.939,7.405,0.504
2026-06-06 21:22:16.685,2664476141,9685,1,0.9873,-0.09082,0.36768,-1.115,5.389,3.725
2026-06-06 21:22:16.685,2664476141,9685,2,1.06104,-0.1311,0.01343,0.962,-1.443,1.473
2026-06-06 21:22:16.885,2664476341,9885,1,0.97974,-0.09399,0.36865,0.954,4.947,0.702
2026-06-06 21:22:16.885,2664476341,9885,2,1.03906,-0.1377,-0.0249,2.366,-0.679,0.756
2026-06-06 21:22:16.085,2664475541,10085,1,0.98779,-0.10181,0.37573,-0.542,1.595,0.282
2026-06-06 21:22:16.085,2664475541,10085,2,1.04419,-0.13989,0.00366,2.542,0.29,1.198
2026-06-06 21:22:16.339,2664475795,10339,1,0.98657,-0.11084,0.37793,-0.595,2.901,0.458
2026-06-06 21:22:16.339,2664475795,10339,2,1.06177,-0.14893,,1.916,0.214,0.198
2026-06-06 21:22:17.539,2664476995,10539,1,0.98682,-0.09619,0.37646,2.321,-0.344,-0.565
2026-06-06 21:22:17.539,2664476995,10539,2,1.04663,-0.15186,0.01221,1.947,0.824,-0.504
2026-06-06 21:22:17.739,2664477195,10739,1,0.99292,-0.09399,0.36328,0.763,1.695,0.427
2026-06-06 21:22:17.739,2664477195,10739,2,1.05786,-0.14087,0.02271,2.397,3.176,-0.145
2026-06-06 21:22:17.019,2664476475,11019,1,0.9856,-0.10767,0.38062,0.824,2.214,-0.794
2026-06-06 21:22:17.019,2664476475,11019,2,1.04858,-0.15552,0.00806,2.366,0.748,0.542
2026-06-06 21:22:17.219,2664476675,11219,1,0.98511,-0.09839,0.37671,1.29,3.321,0.58
2026-06-06 21:22:17.219,2664476675,11219,2,1.05103,-0.14868,0.01733,2.115,1.481,-0.328
2026-06-06 21:22:17.460,2664476916,11459,1,0.98364,-0.10059,0.38159,0.779,3.046,0.641
2026-06-06 21:22:17.460,2664476916,11459,2,1.05322,-0.15552,0.02686,1.977,2.26,-0.771
2026-06-06 21:22:18.680,2664478136,11679,1,0.98877,-0.09668,0.37793,0.588,2.26,0.565
2026-06-06 21:22:18.680,2664478136,11679,2,1.04663,-0.14209,0.01465,0.359,1.412,-0.687
2026-06-06 21:22:18.879,2664478335,11879,1,0.98779,-0.09863,0.36865,0.344,2.015,0.115
2026-06-06 21:22:18.879,2664478335,11879,2,1.05176,-0.14868,0.0127,1.374,1.313,-0.603
2026-06-06 21:22:18.079,2664477535,12079,1,0.98804,-0.08911,0.37915,0.328,3.504,0.466
2026-06-06 21:22:18.079,2664477535,12079,2,1.04858,-0.15186,0.02466,0.145,1.969,-0.595
2026-06-06 21:22:18.279,2664477735,12279,1,0.98315,-0.09766,0.37988,0.58,2.885,0.702
2026-06-06 21:22:18.279,2664477735,12279,2,1.05762,-0.13428,0.02417,1.366,1.313,-0.42
2026-06-06 21:22:18.479,2664477935,12479,1,0.98608,-0.09375,0.3938,0.374,2.42,0.947
2026-06-06 21:22:18.479,2664477935,12479,2,1.0481,-0.14453,0.00781,0.557,0.992,0.122
2026-06-06 21:22:19.679,2664479135,12679,1,0.98218,-0.09399,0.38428,-0.527,2.069,1.504
2026-06-06 21:22:19.679,2664479135,12679,2,1.04126,-0.14697,0.01758,1.275,1.061,-0.038
2026-06-06 21:22:19.879,2664479335,12879,1,0.9895,-0.09814,0.38379,0.519,1.664,0.618
2026-06-06 21:22:19.879,2664479335,12879,2,1.06909,-0.146,0.0144,0.84,0.053,0.061
2026-06-06 21:22:19.079,2664478535,13079,1,0.99536,-0.09741,0.38013,-0.489,1.84,-3.84
2026-06-06 21:22:19.079,2664478535,13079,2,1.04199,-0.15283,-0.01538,-0.557,6.634,0.107
2026-06-06 21:22:19.279,2664478735,13279,1,0.99292,-0.08472,0.37964,-3.229,-5.0,-5.573
2026-06-06 21:22:19.279,2664478735,13279,2,1.05811,-0.17969,0.03149,-2.176,-1.405,1.328
2026-06-06 21:22:19.479,2664478935,13479,1,0.98389,-0.07446,0.35718,6.16,-3.565,-2.718
2026-06-06 21:22:19.479,2664478935,13479,2,1.03857,-0.16602,0.01929,3.328,4.0,-1.847
2026-06-06 21:22:20.679,2664480135,13679,1,1.00244,-0.06128,0.38159,11.0,-3.099,-0.954
2026-06-06 21:22:20.679,2664480135,13679,2,1.05151,-0.15527,0.03809,0.298,0.939,-3.206
2026-06-06 21:22:20.879,2664480335,13879,1,1.00586,-0.04834,0.33472,0.847,2.718,0.137
2026-06-06 21:22:20.879,2664480335,13879,2,1.05786,-0.1582,0.06348,14.29,4.733,-2.679
2026-06-06 21:22:20.079,2664479535,14079,1,1.01318,-0.07446,0.36743,6.55,5.626,2.794
2026-06-06 21:22:20.079,2664479535,14079,2,1.02148,-0.16821,0.00586,6.397,0.565,-4.305
2026-06-06 21:22:20.279,2664479735,14279,1,0.97241,-0.09253,0.34253,10.435,0.458,-1.076
2026-06-06 21:22:20.279,2664479735,14279,2,1.03687,-0.17554,0.01807,11.916,-0.611,-6.832
2026-06-06 21:22:20.479,2664479935,14479,1,0.99268,-0.05933,0.36646,9.718,4.756,2.382
2026-06-06 21:22:20.479,2664479935,14479,2,1.05859,-0.12598,0.00928,11.008,-5.191,-1.679
2026-06-06 21:22:21.679,2664481135,14679,1,1.03662,0.06689,0.396,12.305,-0.565,4.565
2026-06-06 21:22:21.679,2664481135,14679,2,1.16602,-0.00659,-0.05225,2.107,-2.489,-4.313
2026-06-06 21:22:21.879,2664481335,14879,1,0.97534,0.04956,0.38062,-9.565,-0.198,1.618
2026-06-06 21:22:21.879,2664481335,14879,2,1.04199,-0.01074,0.05591,-8.084,10.122,3.725
2026-06-06 21:22:21.079,2664480535,15079,1,0.98145,0.00342,0.38184,-10.191,2.015,-0.763
2026-06-06 21:22:21.079,2664480535,15079,2,1.09448,-0.06934,-0.02686,-15.87,-4.992,6.183
2026-06-06 21:22:21.279,2664480735,15279,1,0.9729,-0.04272,0.37622,-16.626,3.305,-2.634
2026-06-06 21:22:21.279,2664480735,15279,2,1.07324,-0.11523,0.06909,-25.443,4.656,3.985
2026-06-06 21:22:22.502,2664481958,15502,1,0.97974,-0.11475,0.38208,-22.405,7.779,-3.725
2026-06-06 21:22:22.502,2664481958,15502,2,1.05029,-0.1731,0.00977,-30.969,3.023,7.908
2026-06-06 21:22:22.702,2664482158,15702,1,0.97046,-0.13354,0.4043,-25.992,7.74,3.802
2026-06-06 21:22:22.702,2664482158,15702,2,1.03662,-0.22559,0.05469,-22.45,2.87,17.817
2026-06-06 21:22:22.902,2664482358,15902,1,0.95264,-0.27393,0.37085,-27.458,2.313,1.397
2026-06-06 21:22:22.902,2664482358,15902,2,1.0083,-0.27783,-0.01904,-14.076,9.603,11.496
2026-06-06 21:22:22.123,2664481579,16123,1,0.97803,-0.26807,0.33179,-15.832,-6.725,-16.87
2026-06-06 21:22:22.123,2664481579,16123,2,0.97705,-0.36206,-0.01733,-15.802,-2.053,-7.702
2026-06-06 21:22:22.326,2664481782,16326,1,1.01685,-0.18091,0.26294,-7.847,-15.664,-23.359
2026-06-06 21:22:22.326,2664481782,16326,2,1.10645,-0.31519,-0.03687,-54.282,-0.443,-10.985
2026-06-06 21:22:23.526,2664482982,16526,1,0.94556,-0.10254,0.21558,-32.351,-4.695,-29.511
2026-06-06 21:22:23.526,2664482982,16526,2,1.18677,-0.052,0.0061,17.107,11.74,1.725
2026-06-06 21:22:23.726,2664483182,16726,1,0.95264,0.09888,0.37744,1.069,2.008,-11.939
2026-06-06 21:22:23.726,2664483182,16726,2,1.03247,-0.00195,0.06104,-4.916,-8.565,-16.641
2026-06-06 21:22:23.942,2664483398,16942,1,0.97656,0.16089,0.26367,-3.214,-0.374,-0.405
2026-06-06 21:22:23.942,2664483398,16942,2,1.03149,-0.05176,-0.03711,-2.58,-18.176,3.832
2026-06-06 21:22:23.142,2664482598,17142,1,1.00098,-0.0105,0.22461,-0.45,-5.145,0.947
2026-06-06 21:22:23.142,2664482598,17142,2,1.06299,-0.13647,-0.01221,-4.939,4.298,1.763
2026-06-06 21:22:23.375,2664482831,17375,1,1.07129,-0.01636,0.23242,-1.74,-2.779,3.198
2026-06-06 21:22:23.375,2664482831,17375,2,1.02051,-0.1394,-0.06714,-7.557,6.412,-1.687
2026-06-06 21:22:24.598,2664484054,17598,1,1.03662,,0.24634,2.42,5.405,5.137
2026-06-06 21:22:24.598,2664484054,17598,2,1.06421,-0.15771,-0.09692,-9.87,-1.214,3.977
2026-06-06 21:22:24.798,2664484254,17798,1,1.00171,-0.01685,0.26782,1.015,-4.214,1.221
2026-06-06 21:22:24.798,2664484254,17798,2,1.0249,-0.15503,-0.06787,-5.008,-5.168,1.519
2026-06-06 21:22:24.041,2664483497,18040,1,1.02954,-0.01318,0.21606,-5.748,2.779,1.13
2026-06-06 21:22:24.041,2664483497,18040,2,1.05396,-0.16821,-0.08008,-6.13,-0.626,2.412
2026-06-06 21:22:24.245,2664483701,18245,1,1.01025,-0.01318,0.17114,-4.916,-6.489,-3.58
2026-06-06 21:22:24.245,2664483701,18245,2,1.0,-0.15308,-0.11523,5.458,-4.595,0.855
2026-06-06 21:22:24.445,2664483901,18445,1,1.06152,0.00366,0.14478,-4.26,-9.275,-5.733
2026-06-06 21:22:24.445,2664483901,18445,2,1.01538,-0.18555,-0.12646,0.863,2.382,0.389
2026-06-06 21:22:25.645,2664485101,18645,1,1.04346,0.04102,0.07251,4.26,-15.244,-5.504
2026-06-06 21:22:25.645,2664485101,18645,2,1.03345,-0.20703,-0.12036,3.802,-0.015,1.748
2026-06-06 21:22:25.845,2664485301,18845,1,1.04761,0.03369,0.04126,-1.962,-8.733,-1.26
2026-06-06 21:22:25.845,2664485301,18845,2,1.02637,-0.18481,-0.10229,-9.046,0.947,0.351
2026-06-06 21:22:25.045,2664484501,19045,1,1.05103,0.0437,0.00586,-3.496,-7.641,-0.878
2026-06-06 21:22:25.045,2664484501,19045,2,1.02734,-0.19214,-0.146,-0.679,1.496,0.748
2026-06-06 21:22:25.259,2664484715,19258,1,1.05151,0.04541,-0.03418,-1.229,0.641,0.534
2026-06-06 21:22:25.259,2664484715,19258,2,1.03857,-0.17261,-0.1189,5.496,1.695,-1.496
2026-06-06 21:22:25.461,2664484917,19461,1,1.02295,0.06763,-0.07031,-11.229,10.542,-2.977
2026-06-06 21:22:25.461,2664484917,19461,2,1.02295,-0.17822,-0.14722,-9.198,-4.664,-0.298
2026-06-06 21:22:26.661,2664486117,19661,1,1.05957,0.08569,-0.05737,-0.824,-1.847,-5.191
2026-06-06 21:22:26.661,2664486117,19661,2,1.02075,-0.16797,-0.11768,-2.55,-3.107,-4.565
2026-06-06 21:22:26.861,2664486317,19861,1,1.02344,0.1106,-0.05957,-1.237,9.573,-3.855
2026-06-06 21:22:26.861,2664486317,19861,2,1.01367,-0.16479,-0.16577,5.183,-0.275,-1.695
2026-06-06 21:22:26.061,2664485517,20061,1,1.06763,0.11597,-0.01587,5.397,-1.16,0.588
2026-06-06 21:22:26.061,2664485517,20061,2,1.02954,-0.1394,-0.15845,1.504,2.802,-0.863
2026-06-06 21:22:26.261,2664485717,20261,1,1.05322,0.1167,-0.0415,1.26,2.901,1.809
2026-06-06 21:22:26.261,2664485717,20261,2,1.01611,-0.14941,-0.14575,0.305,6.84,1.038
2026-06-06 21:22:26.461,2664485917,20461,1,1.03857,0.08691,-0.05322,1.237,3.122,3.221
2026-06-06 21:22:26.461,2664485917,20461,2,1.021,-0.14648,-0.16577,0.649,1.45,0.29
2026-06-06 21:22:27.661,2664487117,20661,1,1.04736,0.09009,-0.02881,0.267,2.267,1.275
2026-06-06 21:22:27.661,2664487117,20661,2,1.01196,-0.14941,-0.14819,-8.405,0.252,0.58
2026-06-06 21:22:27.861,2664487317,20861,1,1.05762,0.08618,-0.04541,-1.718,7.237,0.305
2026-06-06 21:22:27.861,2664487317,20861,2,1.01099,-0.15259,-0.15063,0.893,0.374,0.519
2026-06-06 21:22:27.061,2664486517,21061,1,1.0498,0.09863,-0.05859,-1.954,3.298,0.824
2026-06-06 21:22:27.061,2664486517,21061,2,1.0127,-0.15259,-0.16211,4.481,2.634,0.511
2026-06-06 21:22:27.261,2664486717,21261,1,1.0415,0.07642,-0.01978,-0.305,4.412,1.473
2026-06-06 21:22:27.261,2664486717,21261,2,1.02417,-0.16382,-0.14453,2.649,0.695,-0.252
2026-06-06 21:22:27.461,2664486917,21461,1,1.06421,0.06812,-0.01636,0.397,-1.519,2.183
2026-06-06 21:22:27.461,2664486917,21461,2,1.02686,-0.16455,-0.16406,-4.779,1.237,-0.229
2026-06-06 21:22:28.661,2664488117,21661,1,1.04761,0.07666,-0.0271,-0.443,8.588,0.527
2026-06-06 21:22:28.661,2664488117,21661,2,1.01855,-0.1709,-0.18066,2.252,-1.626,-0.237
2026-06-06 21:22:28.861,2664488317,21861,1,1.04663,0.06909,-0.01172,0.198,4.908,0.931
2026-06-06 21:22:28.861,2664488317,21861,2,1.02856,-0.17749,-0.16797,-2.191,11.611,-6.786
2026-06-06 21:22:28.089,2664487545,22089,1,1.08911,0.08374,-0.0332,16.962,5.473,0.023
2026-06-06 21:22:28.089,2664487545,22089,2,1.03027,-0.06372,-0.14331,-16.473,0.802,2.649
2026-06-06 21:22:28.289,2664487745,22289,1,1.04321,0.12012,0.04785,17.038,4.443,11.122
2026-06-06 21:22:28.289,2664487745,22289,2,1.02222,-0.13013,-0.13843,6.573,2.771,5.214
2026-06-06 21:22:29.489,2664488945,22489,1,1.05249,0.03784,0.00513,4.962,10.16,7.84
2026-06-06 21:22:29.489,2664488945,22489,2,1.03491,-0.13623,-0.13135,4.863,0.832,0.664
2026-06-06 21:22:29.689,2664489145,22689,1,1.03613,0.02856,-0.01538,-0.076,2.511,-0.145
2026-06-06 21:22:29.689,2664489145,22689,2,1.02124,-0.15747,-0.09961,-0.321,-1.74,-1.985
2026-06-06 21:22:29.889,2664489345,22889,1,1.03931,0.03223,0.02661,-1.779,5.153,-2.038
2026-06-06 21:22:29.889,2664489345,22889,2,1.021,-0.15308,-0.12671,-6.076,0.58,-1.252
2026-06-06 21:22:29.089,2664488545,23089,1,1.05298,0.03711,0.00024,1.221,6.206,-1.122
2026-06-06 21:22:29.089,2664488545,23089,2,1.0249,-0.16406,-0.10547,-0.733,6.695,-0.878
2026-06-06 21:22:29.330,2664488786,23330,1,1.03149,0.04077,0.0271,-3.939,4.13,-0.718
2026-06-06 21:22:29.330,2664488786,23330,2,1.0249,-0.14209,-0.13696,0.489,-0.916,0.084
2026-06-06 21:22:30.616,2664490072,23616,1,1.04004,0.04321,0.03491,0.305,2.458,-0.298
2026-06-06 21:22:30.616,2664490072,23616,2,1.02637,-0.14697,-0.11938,-5.015,-2.542,-0.321
2026-06-06 21:22:30.816,2664490272,23816,1,1.05884,0.03857,0.02881,3.695,1.611,1.038
2026-06-06 21:22:30.816,2664490272,23816,2,1.01733,-0.15723,-0.12988,-0.611,5.321,-1.183
2026-06-06 21:22:30.031,2664489487,24031,1,1.03271,0.04785,0.01709,0.733,4.336,0.748
2026-06-06 21:22:30.031,2664489487,24031,2,1.03516,-0.13525,-0.14355,1.771,3.511,0.908
2026-06-06 21:22:30.245,2664489701,24245,1,1.04272,0.04248,0.00049,0.748,1.924,1.321
2026-06-06 21:22:30.245,2664489701,24245,2,1.03442,-0.14063,-0.12476,1.557,5.176,0.267
2026-06-06 21:22:30.445,2664489901,24445,1,1.05835,0.02319,-0.00122,-0.099,2.13,1.481
2026-06-06 21:22:30.445,2664489901,24445,2,1.03442,-0.15552,-0.0896,1.031,4.458,-0.015
2026-06-06 21:22:31.655,2664491111,24655,1,1.05786,0.0188,0.01611,-0.573,1.679,0.069
2026-06-06 21:22:31.655,2664491111,24655,2,1.02783,-0.16992,-0.10474,7.496,0.153,-0.656
2026-06-06 21:22:31.859,2664491315,24859,1,1.04712,-0.00024,0.02661,2.779,6.076,1.794
2026-06-06 21:22:31.859,2664491315,24859,2,1.01855,-0.14868,-0.10205,1.939,2.099,-0.939
2026-06-06 21:22:31.059,2664490515,25059,1,1.06909,-0.00952,0.04077,7.366,11.412,0.374
2026-06-06 21:22:31.059,2664490515,25059,2,1.05005,-0.15381,-0.08838,1.641,8.763,-3.298
2026-06-06 21:22:31.259,2664490715,25259,1,1.04419,0.02832,0.12109,6.191,27.534,1.038
2026-06-06 21:22:31.259,2664490715,25259,2,1.05933,0.01831,-0.0918,-0.389,7.855,3.786
2026-06-06 21:22:32.520,2664491976,25520,1,0.99951,0.26099,0.22437,-34.519,5.748,-1.618
2026-06-06 21:22:32.520,2664491976,25520,2,1.08789,0.07739,-0.00415,-11.817,-6.71,13.695
2026-06-06 21:22:32.738,2664492194,25738,1,1.14746,0.14746,0.21875,-79.779,4.557,-43.504
2026-06-06 21:22:32.738,2664492194,25738,2,0.93921,-0.22388,-0.09741,-88.099,56.435,-19.221
2026-06-06 21:22:32.938,2664492394,25938,1,1.00342,0.06519,0.20117,-92.191,8.313,-31.595
2026-06-06 21:22:32.938,2664492394,25938,2,0.97729,-0.1792,0.02905,-51.122,28.756,-8.389
2026-06-06 21:22:32.138,2664491594,26138,1,1.06982,0.12891,0.32422,-62.863,14.084,-17.588
2026-06-06 21:22:32.138,2664491594,26138,2,1.00269,-0.13086,-0.01685,-52.061,22.275,2.092
2026-06-06 21:22:32.338,2664491794,26338,1,0.99829,0.03076,0.33398,-24.382,-9.122,5.496
2026-06-06 21:22:32.338,2664491794,26338,2,1.08252,-0.17261,0.06226,-8.847,18.496,10.076
2026-06-06 21:22:33.538,2664492994,26538,1,1.03613,-0.00391,0.36938,2.183,5.519,18.16
2026-06-06 21:22:33.538,2664492994,26538,2,1.05273,-0.14038,0.02637,-0.008,-4.382,5.847
2026-06-06 21:22:33.738,2664493194,26738,1,1.01245,-0.04175,0.34961,45.0,-3.824,34.84
2026-06-06 21:22:33.738,2664493194,26738,2,1.03174,-0.12109,0.02002,20.58,-4.153,1.382
2026-06-06 21:22:33.938,2664493394,26938,1,0.98682,-0.02002,0.3772,52.611,-11.008,24.328
2026-06-06 21:22:33.938,2664493394,26938,2,1.10327,-0.13452,0.05884,44.031,-13.962,-1.565
2026-06-06 21:22:33.138,2664492594,27138,1,0.99976,-0.01831,0.37158,34.336,-3.504,9.008
2026-06-06 21:22:33.138,2664492594,27138,2,1.06104,-0.10986,0.04004,12.679,-1.443,-6.603
2026-06-06 21:22:33.338,2664492794,27338,1,0.99902,0.00391,0.3606,5.26,-3.588,-6.061
2026-06-06 21:22:33.338,2664492794,27338,2,1.07104,-0.20703,-0.02881,7.641,3.863,-2.939
2026-06-06 21:22:34.538,2664493994,27538,1,0.92578,-0.04004,0.37256,13.137,-1.084,4.489
2026-06-06 21:22:34.538,2664493994,27538,2,1.07275,-0.13184,0.00293,5.908,-15.481,-5.786
2026-06-06 21:22:34.738,2664494194,27738,1,1.01807,0.02344,0.33203,30.084,-9.824,12.649
2026-06-06 21:22:34.738,2664494194,27738,2,1.06567,-0.11475,0.02539,65.817,-20.672,5.817
2026-06-06 21:22:34.938,2664494394,27938,1,1.02271,-0.09351,0.31396,22.473,-15.557,10.924
2026-06-06 21:22:34.938,2664494394,27938,2,1.02783,-0.18652,-0.07666,34.282,-8.557,1.695
2026-06-06 21:22:34.150,2664493606,28150,1,1.02905,-0.05151,0.25684,4.71,-11.313,-1.573
2026-06-06 21:22:34.150,2664493606,28150,2,1.07275,-0.16553,-0.02417,-9.817,-2.496,-1.748
2026-06-06 21:22:34.350,2664493806,28350,1,1.07739,-0.05371,0.18018,12.061,10.412,-12.176
2026-06-06 21:22:34.350,2664493806,28350,2,1.05591,-0.26538,-0.08252,-18.679,10.641,-8.084
2026-06-06 21:22:35.550,2664495006,28550,1,1.01489,0.00342,0.25708,19.527,14.901,10.824
2026-06-06 21:22:35.550,2664495006,28550,2,1.03711,-0.15869,-0.11548,11.344,9.214,-9.176
2026-06-06 21:22:35.755,2664495211,28755,1,1.02246,-0.01538,0.23071,13.595,-5.557,9.26
2026-06-06 21:22:35.755,2664495211,28755,2,1.05664,-0.12354,0.00366,-31.183,15.71,-3.252
2026-06-06 21:22:35.960,2664495416,28960,1,1.01367,0.0354,0.28516,6.328,1.885,-0.305
2026-06-06 21:22:35.960,2664495416,28960,2,1.06396,-0.10229,-0.03613,-2.26,4.985,-1.672
2026-06-06 21:22:35.160,2664494616,29160,1,1.03687,0.02612,0.28052,2.809,-7.45,17.794
2026-06-06 21:22:35.160,2664494616,29160,2,1.03662,-0.09448,-0.07568,28.221,7.969,3.198
2026-06-06 21:22:35.397,2664494853,29397,1,1.04224,-0.12524,0.28418,7.008,11.969,11.305
2026-06-06 21:22:35.397,2664494853,29397,2,1.0481,-0.07495,-0.0332,12.74,4.038,-3.229
2026-06-06 21:22:36.597,2664496053,29597,1,1.00122,-0.13037,0.38037,-24.473,27.672,9.626
2026-06-06 21:22:36.597,2664496053,29597,2,1.00562,-0.19141,-0.04248,-8.817,2.786,3.901
2026-06-06 21:22:36.797,2664496253,29797,1,0.95996,-0.10376,0.41309,3.321,5.061,-3.153
2026-06-06 21:22:36.797,2664496253,29797,2,0.99756,-0.16553,0.02637,-22.015,19.908,26.237
2026-06-06 21:22:36.997,2664496453,29997,1,0.95068,-0.21021,0.38574,-7.573,-1.542,-4.573
2026-06-06 21:22:36.997,2664496453,29997,2,1.01099,-0.20068,0.03442,-7.427,-0.962,0.511
2026-06-06 21:22:36.197,2664495653,30197,1,0.9856,-0.16504,0.37769,-10.473,-3.565,-16.374
2026-06-06 21:22:36.197,2664495653,30197,2,1.03027,-0.24268,-0.00195,-14.733,2.931,-2.595
2026-06-06 21:22:36.397,2664495853,30397,1,0.98438,-0.11841,0.32764,-10.458,2.916,-4.84
2026-06-06 21:22:36.397,2664495853,30397,2,1.03735,-0.2771,-0.02441,-0.115,4.55,2.496
2026-06-06 21:22:37.631,2664497087,30631,1,0.97241,-0.10864,0.34863,15.305,-2.794,7.618
2026-06-06 21:22:37.631,2664497087,30631,2,1.02393,-0.26099,-0.01294,5.672,-2.534,4.969
2026-06-06 21:22:37.868,2664497324,30868,1,0.99536,-0.18164,0.35425,25.435,3.885,16.252
2026-06-06 21:22:37.868,2664497324,30868,2,1.01538,-0.23975,0.01587,14.45,1.664,-3.26
2026-06-06 21:22:37.068,2664496524,31068,1,0.94238,-0.20728,0.33936,-21.939,9.031,8.351
2026-06-06 21:22:37.068,2664496524,31068,2,1.00659,-0.27393,-0.05566,-16.557,14.13,-2.405
2026-06-06 21:22:37.309,2664496765,31309,1,0.96216,-0.25317,0.35986,4.504,7.435,13.725
2026-06-06 21:22:37.309,2664496765,31309,2,1.03784,-0.26733,0.00879,10.267,6.931,2.84
2026-06-06 21:22:38.509,2664497965,31509,1,0.98999,-0.22192,0.35742,-5.664,5.053,2.023
2026-06-06 21:22:38.509,2664497965,31509,2,1.03418,-0.23169,0.00684,-4.344,-0.679,1.725
2026-06-06 21:22:38.710,2664498166,31710,1,0.97705,-0.19678,0.4021,-8.366,4.099,-6.313
2026-06-06 21:22:38.710,2664498166,31710,2,1.00708,-0.26636,0.03931,-11.985,11.084,0.374
2026-06-06 21:22:38.910,2664498366,31910,1,0.95923,-0.23877,0.39429,-10.901,9.008,-10.939
2026-06-06 21:22:38.910,2664498366,31910,2,1.02515,-0.29077,0.01172,-8.229,2.229,4.908
2026-06-06 21:22:38.110,2664497566,32110,1,0.94824,-0.2207,0.37817,-26.321,9.16,-25.847
2026-06-06 21:22:38.110,2664497566,32110,2,1.00854,-0.32715,-0.021,-18.168,5.321,-2.756
2026-06-06 21:22:38.363,2664497819,32363,1,1.0813,-0.17334,0.34863,-53.748,7.305,-26.74
2026-06-06 21:22:38.363,2664497819,32363,2,0.96533,-0.18164,0.00195,-35.962,35.672,-3.832
2026-06-06 21:22:39.613,2664499069,32613,1,1.12085,-0.0293,0.43481,-77.45,11.267,-26.092
2026-06-06 21:22:39.613,2664499069,32613,2,1.07178,-0.24878,-0.11011,-116.084,38.26,-5.008
2026-06-06 21:22:39.813,2664499269,32813,1,0.88892,-0.00488,0.47998,-70.237,19.611,-34.321
2026-06-06 21:22:39.813,2664499269,32813,2,0.91528,-0.21924,0.08496,-90.176,2.695,12.168
2026-06-06 21:22:39.013,2664498469,33013,1,1.03442,-0.34912,0.48804,-74.542,9.679,-25.069
2026-06-06 21:22:39.013,2664498469,33013,2,1.0354,-0.33105,0.05981,-103.519,25.061,7.191
2026-06-06 21:22:39.213,2664498669,33213,1,0.94751,-0.22949,0.4436,-49.702,12.084,-25.344
2026-06-06 21:22:39.213,2664498669,33213,2,1.01587,-0.29858,0.02295,-44.115,16.573,3.534
2026-06-06 21:22:39.413,2664498869,33413,1,0.92456,-0.16968,0.40381,-69.084,24.595,-27.901
2026-06-06 21:22:39.413,2664498869,33413,2,0.89014,-0.3335,0.0332,-49.756,35.618,1.847
2026-06-06 21:22:40.613,2664500069,33613,1,0.9353,-0.34985,0.24048,-31.427,-7.786,-20.618
2026-06-06 21:22:40.613,2664500069,33613,2,1.01611,-0.30908,-0.02026,-43.389,19.855,-6.542
2026-06-06 21:22:40.813,2664500269,33813,1,1.21362,-0.12671,0.73315,-36.191,23.626,-21.42
2026-06-06 21:22:40.813,2664500269,33813,2,1.10767,-0.55103,0.21729,-52.771,28.542,14.855
2026-06-06 21:22:40.013,2664499469,34013,1,0.74194,-0.09888,0.64258,-13.947,2.046,13.168
2026-06-06 21:22:40.013,2664499469,34013,2,1.02783,-0.28687,0.01318,-21.786,4.221,-7.863
2026-06-06 21:22:40.231,2664499687,34231,1,0.88428,-0.19482,0.44531,10.183,4.29,-5.763
2026-06-06 21:22:40.231,2664499687,34231,2,1.04492,-0.18262,0.07764,2.305,9.672,-9.168
2026-06-06 21:22:41.500,2664500956,34499,1,0.9353,-0.08838,0.36108,25.229,-7.076,6.992
2026-06-06 21:22:41.500,2664500956,34499,2,1.10254,-0.10229,0.021,43.069,-9.695,3.473
2026-06-06 21:22:41.735,2664501191,34735,1,0.98584,0.10376,0.23535,24.725,14.107,22.947
2026-06-06 21:22:41.735,2664501191,34735,2,1.22363,-0.4502,0.43335,109.244,-0.008,23.763
2026-06-06 21:22:41.999,2664501455,34999,1,0.73462,-0.35278,0.68604,32.557,3.985,30.977
2026-06-06 21:22:41.999,2664501455,34999,2,0.94727,-0.29248,0.32983,62.626,-18.641,14.008
2026-06-06 21:22:41.199,2664500655,35199,1,0.85303,-0.29468,0.55908,29.847,-28.649,4.511
2026-06-06 21:22:41.199,2664500655,35199,2,0.97729,-0.19727,0.14404,63.664,-19.74,-20.947
2026-06-06 21:22:41.433,2664500889,35432,1,0.96558,-0.20703,0.3208,61.947,-36.191,24.229
2026-06-06 21:22:41.433,2664500889,35432,2,1.05518,-0.12817,-0.02295,53.542,-10.206,-5.214
2026-06-06 21:22:42.705,2664502161,35705,1,0.99463,-0.18018,0.36694,80.427,-24.359,26.382
2026-06-06 21:22:42.705,2664502161,35705,2,1.00391,-0.17456,-0.01904,70.053,-10.435,2.0
2026-06-06 21:22:42.982,2664502438,35981,1,0.6438,-0.21802,0.54126,69.962,-6.458,65.832
2026-06-06 21:22:42.982,2664502438,35981,2,1.25757,-0.07886,0.05981,92.397,-16.412,16.809
2026-06-06 21:22:42.191,2664501647,36191,1,0.85815,-0.16675,0.4187,71.481,-14.649,51.321
2026-06-06 21:22:42.191,2664501647,36191,2,1.05127,-0.08594,0.08936,89.145,-14.687,-2.374
2026-06-06 21:22:42.391,2664501847,36391,1,0.91992,-0.06055,0.40698,25.389,-17.397,30.992
2026-06-06 21:22:42.391,2664501847,36391,2,1.12988,-0.09839,0.08789,98.145,44.702,10.924
2026-06-06 21:22:43.656,2664503112,36655,1,0.76416,-0.46143,0.56055,2.267,21.718,40.008
2026-06-06 21:22:43.656,2664503112,36655,2,0.93335,-0.44897,0.27783,39.511,11.817,16.137
2026-06-06 21:22:43.855,2664503311,36855,1,0.76416,-0.53711,0.51294,32.443,-1.038,35.962
2026-06-06 21:22:43.855,2664503311,36855,2,0.97998,-0.38672,0.11182,58.206,-5.137,8.664
2026-06-06 21:22:43.055,2664502511,37055,1,0.72632,-0.52612,0.4624,51.695,-6.916,40.29
2026-06-06 21:22:43.055,2664502511,37055,2,1.0498,-0.42261,0.27002,65.954,-8.313,1.489
2026-06-06 21:22:43.255,2664502711,37255,1,0.6875,-0.3418,0.70044,47.229,-2.634,63.908
2026-06-06 21:22:43.255,2664502711,37255,2,1.11499,-0.32227,0.33301,88.374,26.458,19.863
2026-06-06 21:22:43.455,2664502911,37455,1,0.48755,-0.38721,0.73169,34.0,21.176,77.74
2026-06-06 21:22:43.455,2664502911,37455,2,0.87695,-0.11182,0.40039,52.74,41.794,33.282
2026-06-06 21:22:44.655,2664504111,37655,1,0.18726,-0.63232,0.84521,3.832,33.092,59.817
2026-06-06 21:22:44.655,2664504111,37655,2,0.71533,-0.25684,0.81763,51.969,37.374,9.924
2026-06-06 21:22:44.855,2664504311,37855,1,0.01294,-0.72827,0.77637,-3.817,29.885,22.374
2026-06-06 21:22:44.855,2664504311,37855,2,0.62427,-0.27661,0.90649,4.084,26.687,-4.0
2026-06-06 21:22:44.055,2664503511,38055,1,-0.06299,-0.73389,0.8269,2.076,16.939,5.061
2026-06-06 21:22:44.055,2664503511,38055,2,0.64209,-0.27783,0.9209,12.534,12.443,-0.359
2026-06-06 21:22:44.255,2664503711,38255,1,-0.03882,-0.67432,0.77954,6.802,2.427,3.13
2026-06-06 21:22:44.255,2664503711,38255,2,0.62451,-0.20532,0.91211,6.817,1.71,0.641
2026-06-06 21:22:45.488,2664504944,38488,1,-0.04785,-0.6687,0.80542,7.168,1.282,3.443
2026-06-06 21:22:45.488,2664504944,38488,2,0.60352,-0.18872,0.93652,2.435,5.023,-1.298
2026-06-06 21:22:45.779,2664505235,38779,1,-0.06372,-0.63452,0.78931,1.863,7.069,0.137
2026-06-06 21:22:45.779,2664505235,38779,2,0.59937,-0.18872,0.93091,0.282,5.985,-1.168
2026-06-06 21:22:45.989,2664505445,38989,1,-0.07837,-0.64307,0.81812,1.916,5.473,-0.008
2026-06-06 21:22:45.989,2664505445,38989,2,0.59155,-0.1814,0.93994,3.267,2.252,0.45
2026-06-06 21:22:45.189,2664504645,39189,1,-0.07788,-0.646,0.82202,3.664,-3.992,-0.015
2026-06-06 21:22:45.189,2664504645,39189,2,0.6001,-0.19702,0.92871,-0.969,-2.053,3.031
2026-06-06 21:22:45.389,2664504845,39389,1,-0.04663,-0.62817,0.79053,1.176,-5.496,1.275
2026-06-06 21:22:45.389,2664504845,39389,2,0.62085,-0.19678,0.92651,0.679,-4.069,3.557
2026-06-06 21:22:46.618,2664506074,39618,1,-0.03076,-0.65112,0.80908,1.824,-1.565,2.527
2026-06-06 21:22:46.618,2664506074,39618,2,0.63232,-0.19629,0.93262,-3.58,-3.328,-2.771
2026-06-06 21:22:46.885,2664506341,39885,1,-0.02075,-0.60913,0.85498,12.389,-11.588,-4.298
2026-06-06 21:22:46.885,2664506341,39885,2,0.62451,-0.20508,0.9082,-7.534,-7.229,-4.015
2026-06-06 21:22:46.085,2664505541,40085,1,0.08667,-0.55786,0.85815,8.649,-10.344,-9.427
2026-06-06 21:22:46.085,2664505541,40085,2,0.65405,-0.22388,0.88623,-5.748,-6.282,-4.947
2026-06-06 21:22:46.285,2664505741,40285,1,0.12183,-0.54224,0.88159,7.176,-9.924,-17.603
2026-06-06 21:22:46.285,2664505741,40285,2,0.70093,-0.2439,0.88086,-20.756,-8.802,-9.214
2026-06-06 21:22:46.485,2664505941,40485,1,0.20215,-0.5105,0.8728,11.26,-20.847,-33.55
2026-06-06 21:22:46.485,2664505941,40485,2,0.75391,-0.19971,0.79492,-22.42,-22.344,-26.809
2026-06-06 21:22:47.685,2664507141,40685,1,0.32715,-0.45215,0.88599,6.183,-7.84,-37.969
2026-06-06 21:22:47.685,2664507141,40685,2,0.82349,-0.18921,0.7439,-10.115,-18.443,-25.305
2026-06-06 21:22:47.885,2664507341,40885,1,0.43774,-0.35815,0.83057,-6.45,0.374,-29.718
2026-06-06 21:22:47.885,2664507341,40885,2,0.83936,-0.17236,0.69214,-18.069,2.099,-18.427
2026-06-06 21:22:47.085,2664506541,41085,1,0.49194,-0.37329,0.85986,-13.626,6.748,-29.038
2026-06-06 21:22:47.085,2664506541,41085,2,0.83911,-0.16479,0.70679,-20.794,3.794,-15.756
2026-06-06 21:22:47.285,2664506741,41285,1,0.45654,-0.40283,0.87646,-4.908,8.718,-19.023
2026-06-06 21:22:47.285,2664506741,41285,2,0.87427,-0.19604,0.68994,-14.336,-4.771,-20.504
2026-06-06 21:22:47.485,2664506941,41485,1,0.4978,-0.37231,0.89429,31.076,-9.634,-32.031
2026-06-06 21:22:47.485,2664506941,41485,2,0.85156,-0.12915,0.62109,1.015,-15.55,-32.183
2026-06-06 21:22:48.685,2664508141,41685,1,0.60913,-0.07837,0.81885,62.084,-4.382,-17.542
2026-06-06 21:22:48.685,2664508141,41685,2,1.01953,0.04712,0.53076,0.168,-10.473,-30.74
2026-06-06 21:22:48.885,2664508341,41885,1,0.49585,0.12183,0.91479,16.107,30.641,-32.649
2026-06-06 21:22:48.885,2664508341,41885,2,0.92871,0.11108,0.6228,-27.13,11.542,-31.405
2026-06-06 21:22:48.118,2664507574,42118,1,0.40625,0.12793,1.0061,-7.16,7.321,-38.817
2026-06-06 21:22:48.118,2664507574,42118,2,0.90967,0.07178,0.62769,-43.947,-4.588,-31.504
2026-06-06 21:22:48.318,2664507774,42318,1,0.45996,0.12109,0.91138,-11.313,0.092,-43.634
2026-06-06 21:22:48.318,2664507774,42318,2,0.91626,0.08936,0.6311,-37.069,-0.763,-29.183
2026-06-06 21:22:49.527,2664508983,42527,1,0.42725,0.20435,1.00049,-9.382,5.748,-28.878
2026-06-06 21:22:49.527,2664508983,42527,2,0.86768,0.07349,0.698,-14.718,3.794,-6.916
2026-06-06 21:22:49.727,2664509183,42727,1,0.37915,0.15332,0.9624,-5.412,7.832,2.351
2026-06-06 21:22:49.727,2664509183,42727,2,0.85962,0.03662,0.70337,12.45,10.687,9.13
2026-06-06 21:22:49.927,2664509383,42927,1,0.39697,0.18652,0.96362,31.489,15.504,28.397
2026-06-06 21:22:49.927,2664509383,42927,2,0.85132,0.23047,0.66528,34.824,14.198,7.832
2026-06-06 21:22:49.127,2664508583,43127,1,0.28857,0.27759,0.96411,14.511,23.137,3.817
2026-06-06 21:22:49.127,2664508583,43127,2,0.80347,0.14258,0.75122,-5.282,12.832,10.794
2026-06-06 21:22:49.333,2664508789,43333,1,0.35059,0.15137,0.9707,1.534,4.466,5.45
2026-06-06 21:22:49.333,2664508789,43333,2,0.84326,0.01245,0.78271,3.603,15.313,-0.29
2026-06-06 21:22:50.533,2664509989,43533,1,0.24121,0.27466,1.07983,-1.351,16.74,11.214
2026-06-06 21:22:50.533,2664509989,43533,2,0.79736,0.00537,0.82471,7.954,6.359,14.229
2026-06-06 21:22:50.733,2664510189,43733,1,0.2793,0.16309,1.01074,0.466,4.069,25.687
2026-06-06 21:22:50.733,2664510189,43733,2,0.75464,-0.03418,0.82788,22.183,0.916,16.198
2026-06-06 21:22:50.933,2664510389,43933,1,0.28027,0.21021,1.00806,13.282,11.908,25.267
2026-06-06 21:22:50.933,2664510389,43933,2,0.73633,0.01514,0.80273,15.809,11.031,17.87
2026-06-06 21:22:50.133,2664509589,44133,1,0.25122,0.2793,1.00024,20.099,14.618,24.473
2026-06-06 21:22:50.133,2664509589,44133,2,0.75317,0.12817,0.82813,23.725,5.344,14.664
2026-06-06 21:22:50.333,2664509789,44333,1,0.25464,0.28467,0.9939,6.702,10.687,17.237
2026-06-06 21:22:50.333,2664509789,44333,2,0.80298,0.15332,0.81982,16.718,0.863,10.885
2026-06-06 21:22:51.533,2664510989,44533,1,0.27979,0.37061,1.00732,15.702,3.74,19.481
2026-06-06 21:22:51.533,2664510989,44533,2,0.80615,0.21338,0.79443,14.252,5.824,5.908
2026-06-06 21:22:51.733,2664511189,44733,1,0.24756,0.36963,0.92749,-3.313,3.802,7.29
2026-06-06 21:22:51.733,2664511189,44733,2,0.72461,0.19116,0.7915,3.389,4.794,2.855
2026-06-06 21:22:51.936,2664511392,44936,1,0.21924,0.27979,1.00708,6.786,10.649,7.595
2026-06-06 21:22:51.936,2664511392,44936,2,0.72314,0.1167,0.83105,2.496,13.618,4.023
2026-06-06 21:22:51.136,2664510592,45136,1,0.17114,0.34497,1.08032,-0.252,1.992,10.534
2026-06-06 21:22:51.136,2664510592,45136,2,0.72681,0.16577,0.86816,16.366,-8.305,10.099
2026-06-06 21:22:51.336,2664510792,45336,1,0.24097,0.41846,1.17114,-27.939,-42.481,17.076
2026-06-06 21:22:51.336,2664510792,45336,2,0.88013,0.24951,0.59888,12.634,-64.519,31.756
2026-06-06 21:22:52.548,2664512004,45548,1,0.4895,0.12231,0.72363,-81.901,-123.618,-4.824
2026-06-06 21:22:52.548,2664512004,45548,2,0.95068,-0.0105,0.4082,-64.466,-74.718,21.763
2026-06-06 21:22:52.792,2664512248,45792,1,1.03125,-0.07056,0.42041,-44.29,-43.237,-21.931
2026-06-06 21:22:52.792,2664512248,45792,2,1.04395,-0.40503,0.21533,-45.504,-15.412,3.336
2026-06-06 21:22:52.992,2664512448,45992,1,0.95483,-0.13062,0.34058,11.55,-13.71,-4.489
2026-06-06 21:22:52.992,2664512448,45992,2,1.03296,-0.27515,0.12158,-14.221,-9.725,-6.13
2026-06-06 21:22:52.252,2664511708,46252,1,1.0813,-0.0249,0.37793,-9.382,-7.779,2.061
2026-06-06 21:22:52.252,2664511708,46252,2,1.09424,-0.0979,0.02222,-7.107,-14.122,3.824
2026-06-06 21:22:52.452,2664511908,46452,1,0.97681,-0.05981,0.36499,-4.504,1.58,-2.336
2026-06-06 21:22:52.452,2664511908,46452,2,1.05957,-0.15894,0.02954,18.893,-5.908,0.603
2026-06-06 21:22:53.652,2664513108,46652,1,0.99902,-0.01855,0.35571,9.206,-0.023,2.191
2026-06-06 21:22:53.652,2664513108,46652,2,1.05371,-0.18994,0.06885,-7.099,1.053,-4.344
2026-06-06 21:22:53.915,2664513371,46915,1,1.00146,-0.03076,0.34619,3.382,7.389,1.992
2026-06-06 21:22:53.915,2664513371,46915,2,1.0437,-0.16699,0.04419,9.0,3.588,-1.267
2026-06-06 21:22:53.115,2664512571,47115,1,0.99292,-0.03711,0.34644,-1.412,-2.954,-1.275
2026-06-06 21:22:53.115,2664512571,47115,2,1.0498,-0.177,0.03955,-6.893,-1.053,-0.382
2026-06-06 21:22:53.362,2664512818,47362,1,1.01855,-0.03516,0.30933,-6.145,-0.611,-0.504
2026-06-06 21:22:53.362,2664512818,47362,2,1.05005,-0.18799,0.06689,-7.611,8.405,-2.466
2026-06-06 21:22:54.579,2664514035,47579,1,1.0,-0.03589,0.3252,-4.573,-4.008,-3.42
2026-06-06 21:22:54.579,2664514035,47579,2,1.04346,-0.19312,0.01416,11.405,2.527,-0.015
2026-06-06 21:22:54.779,2664514235,47779,1,1.02539,-0.02979,0.29883,-5.183,-2.939,-3.183
2026-06-06 21:22:54.779,2664514235,47779,2,1.05566,-0.19629,0.04272,-2.702,-0.344,-0.206
2026-06-06 21:22:54.000,2664513456,48000,1,1.00928,-0.02173,0.28857,-2.031,6.305,-0.191
2026-06-06 21:22:54.000,2664513456,48000,2,1.05054,-0.18335,0.02026,-3.947,-0.298,0.168
2026-06-06 21:22:54.204,2664513660,48204,1,1.01953,-0.01245,0.28955,-0.214,0.008,0.985
2026-06-06 21:22:54.204,2664513660,48204,2,1.04126,-0.19165,-0.00317,2.45,1.74,1.237
2026-06-06 21:22:54.404,2664513860,48404,1,1.01538,-0.02271,0.27881,2.489,0.305,1.725
2026-06-06 21:22:54.404,2664513860,48404,2,1.0498,-0.18579,0.02222,-2.473,0.527,-0.298
2026-06-06 21:22:55.604,2664515060,48604,1,1.02539,-0.02588,0.2854,1.649,2.42,2.0
2026-06-06 21:22:55.604,2664515060,48604,2,1.04321,-0.18433,0.00977,-0.756,1.595,-0.74
2026-06-06 21:22:55.804,2664515260,48804,1,1.02393,-0.03442,0.28149,0.137,2.496,1.107
2026-06-06 21:22:55.804,2664515260,48804,2,1.04248,-0.19458,0.02246,-0.252,0.664,0.206
2026-06-06 21:22:55.004,2664514460,49004,1,1.02002,-0.03979,0.29468,0.237,4.061,1.443
2026-06-06 21:22:55.004,2664514460,49004,2,1.04712,-0.19092,0.0083,-0.802,0.542,-0.489
2026-06-06 21:22:55.225,2664514681,49225,1,1.01465,-0.0415,0.28906,1.992,4.427,1.84
2026-06-06 21:22:55.225,2664514681,49225,2,1.0481,-0.18994,0.00635,-0.405,1.344,-0.344
2026-06-06 21:22:55.425,2664514881,49425,1,1.01123,-0.04199,0.29199,1.931,2.695,0.939
2026-06-06 21:22:55.425,2664514881,49425,2,1.04004,-0.19336,0.0127,1.275,1.282,-0.679
2026-06-06 21:22:56.625,2664516081,49625,1,1.01489,-0.0293,0.29883,0.58,1.634,0.641
2026-06-06 21:22:56.625,2664516081,49625,2,1.04297,-0.19116,0.00439,-1.42,1.221,-0.58
2026-06-06 21:22:56.825,2664516281,49825,1,1.02222,-0.04102,0.30396,0.374,1.748,0.206
2026-06-06 21:22:56.825,2664516281,49825,2,1.0354,-0.19141,-0.00488,3.863,1.26,-0.008
2026-06-06 21:22:56.025,2664515481,50025,1,1.00879,-0.04297,0.29102,-0.183,2.611,0.656
2026-06-06 21:22:56.025,2664515481,50025,2,1.04321,-0.17969,0.00806,1.382,2.84,-0.267
2026-06-06 21:22:56.225,2664515681,50225,1,1.00879,-0.04443,0.29321,-0.58,1.588,0.031
2026-06-06 21:22:56.225,2664515681,50225,2,1.04541,-0.19678,0.01099,4.42,1.779,-0.481
2026-06-06 21:22:56.447,2664515903,50447,1,1.021,-0.03198,0.28638,0.374,1.687,-0.756
2026-06-06 21:22:56.447,2664515903,50447,2,1.03809,-0.20459,0.0105,-3.771,0.672,-0.786
2026-06-06 21:22:57.734,2664517190,50734,1,1.01489,-0.03247,0.29517,0.748,3.153,0.794
2026-06-06 21:22:57.734,2664517190,50734,2,1.05176,-0.19751,0.0354,-0.061,1.824,-0.71
2026-06-06 21:22:57.974,2664517430,50974,1,1.04272,-0.04834,0.28174,3.321,8.618,2.16
2026-06-06 21:22:57.974,2664517430,50974,2,1.04614,-0.17944,0.0376,11.244,8.382,-0.87
2026-06-06 21:22:57.174,2664516630,51174,1,1.02954,-0.05078,0.27686,-2.901,25.702,4.176
2026-06-06 21:22:57.174,2664516630,51174,2,1.02197,-0.14746,0.03564,-1.855,8.771,-4.252
2026-06-06 21:22:57.374,2664516830,51374,1,1.05884,-0.02271,0.34814,2.924,0.725,0.26
2026-06-06 21:22:57.374,2664516830,51374,2,0.95435,-0.10864,0.05615,-12.351,14.931,10.092
2026-06-06 21:22:58.644,2664518100,51644,1,0.98315,-0.15942,0.43188,13.687,6.275,-9.885
2026-06-06 21:22:58.644,2664518100,51644,2,1.03101,-0.27734,0.0813,34.374,15.733,-12.71
2026-06-06 21:22:58.844,2664518300,51844,1,0.8894,-0.07666,0.46167,-13.405,27.321,1.84
2026-06-06 21:22:58.844,2664518300,51844,2,0.88525,-0.0625,0.14526,-14.779,30.634,-12.916
2026-06-06 21:22:58.044,2664517500,52044,1,0.53198,0.07031,0.35767,-4.954,3.42,-0.252
2026-06-06 21:22:58.044,2664517500,52044,2,0.92676,-0.10986,0.38623,20.695,23.176,1.695
2026-06-06 21:22:58.244,2664517700,52244,1,0.78931,-0.03735,0.53516,8.412,34.145,8.519
2026-06-06 21:22:58.244,2664517700,52244,2,1.08423,-0.26001,0.41089,20.748,3.603,4.023
2026-06-06 21:22:58.444,2664517900,52444,1,0.86084,-0.03296,0.90771,13.031,8.405,7.618
2026-06-06 21:22:58.444,2664517900,52444,2,1.0874,-0.19922,0.33545,23.603,-3.145,16.824
2026-06-06 21:22:59.644,2664519100,52644,1,0.99951,-0.16284,0.76978,11.702,-31.855,5.389
2026-06-06 21:22:59.644,2664519100,52644,2,1.29443,-0.20972,0.23853,-7.824,-28.733,-3.405
2026-06-06 21:22:59.844,2664519300,52844,1,1.125,0.01245,0.60693,4.206,-17.679,-6.565
2026-06-06 21:22:59.844,2664519300,52844,2,1.07275,-0.14453,0.22876,1.634,-1.244,-2.786
2026-06-06 21:22:59.044,2664518500,53044,1,0.9458,-0.01367,0.50439,-7.641,2.29,-0.481
2026-06-06 21:22:59.044,2664518500,53044,2,1.02759,-0.1897,0.19434,-4.221,5.153,3.16
2026-06-06 21:22:59.244,2664518700,53244,1,0.94629,-0.05151,0.57056,-21.573,-1.679,3.252
2026-06-06 21:22:59.244,2664518700,53244,2,1.19604,-0.17798,0.2522,-7.672,6.969,0.527
2026-06-06 21:23:00.500,2664519956,53500,1,1.20508,-0.07446,0.63306,-0.099,5.802,1.58
2026-06-06 21:23:00.500,2664519956,53500,2,1.34937,-0.16943,0.2981,-4.252,20.771,-4.137
2026-06-06 21:23:00.700,2664520156,53700,1,1.10742,-0.08765,0.70947,-6.282,22.481,-1.771
2026-06-06 21:23:00.700,2664520156,53700,2,1.23682,-0.2439,0.34204,-10.427,24.45,-5.313
2026-06-06 21:23:00.907,2664520363,53907,1,0.88623,-0.09229,0.66162,-7.076,3.099,-4.031
2026-06-06 21:23:00.907,2664520363,53907,2,0.69019,-0.10327,0.19287,2.069,-16.573,-1.397
2026-06-06 21:23:00.107,2664519563,54107,1,0.45972,-0.05298,0.31152,-11.824,-27.878,-3.595
2026-06-06 21:23:00.107,2664519563,54107,2,0.69092,-0.20483,0.24048,-46.672,-66.466,-3.885
2026-06-06 21:23:00.307,2664519763,54307,1,0.70361,-0.03809,0.27319,10.87,-33.099,-4.16
2026-06-06 21:23:00.307,2664519763,54307,2,1.43335,-0.31641,0.35913,2.031,-85.962,14.611
2026-06-06 21:23:01.527,2664520983,54527,1,1.12793,-0.08179,0.35034,5.214,-16.763,0.336
2026-06-06 21:23:01.527,2664520983,54527,2,0.9585,-0.20435,0.11035,-15.939,11.664,-0.557
2026-06-06 21:23:01.727,2664521183,54727,1,1.00342,-0.08911,0.3252,3.229,4.137,2.611
2026-06-06 21:23:01.727,2664521183,54727,2,1.06177,-0.18896,0.06079,-0.847,-0.046,-0.015
2026-06-06 21:23:01.927,2664521383,54927,1,1.00903,-0.06689,0.32983,1.603,3.519,1.023
2026-06-06 21:23:01.927,2664521383,54927,2,1.05371,-0.18848,0.06909,2.687,3.58,-0.855
2026-06-06 21:23:01.195,2664520651,55194,1,0.9895,-0.05884,0.34619,0.023,0.45,-0.733
2026-06-06 21:23:01.195,2664520651,55194,2,1.0481,-0.19116,0.07886,4.611,-0.802,-0.634
2026-06-06 21:23:01.394,2664520850,55394,1,1.00244,-0.06616,0.33643,0.176,1.176,-1.069
2026-06-06 21:23:01.394,2664520850,55394,2,1.03955,-0.18921,0.05933,-0.595,0.878,-1.679
2026-06-06 21:23:02.594,2664522050,55594,1,1.00366,-0.06519,0.34302,0.824,2.74,1.015
2026-06-06 21:23:02.594,2664522050,55594,2,1.04517,-0.1897,0.05566,-2.794,2.008,-0.389
2026-06-06 21:23:02.794,2664522250,55794,1,1.00269,-0.05933,0.32251,1.092,1.557,1.023
2026-06-06 21:23:02.794,2664522250,55794,2,1.04736,-0.18213,0.06787,1.0,0.794,0.206
2026-06-06 21:23:02.994,2664522450,55994,1,1.02368,-0.06592,0.32813,1.046,5.405,0.893
2026-06-06 21:23:02.994,2664522450,55994,2,1.06641,-0.18652,0.073,-0.916,4.977,-1.26
2026-06-06 21:23:02.194,2664521650,56194,1,1.02686,-0.07129,0.33789,1.725,23.221,0.496
2026-06-06 21:23:02.194,2664521650,56194,2,0.77612,-0.13354,0.09766,12.87,35.954,-6.176
2026-06-06 21:23:02.464,2664521920,56464,1,0.42627,-0.00879,0.35864,3.58,28.183,-0.969
2026-06-06 21:23:02.464,2664521920,56464,2,0.93799,-0.11084,0.15967,43.145,21.611,0.053
2026-06-06 21:23:03.664,2664523120,56664,1,1.03394,-0.11792,0.55444,23.427,30.45,4.817
2026-06-06 21:23:03.664,2664523120,56664,2,1.16162,-0.08984,0.28931,8.282,53.252,-6.023
2026-06-06 21:23:03.864,2664523320,56864,1,0.86792,-0.02661,0.87842,2.603,17.137,2.076
2026-06-06 21:23:03.864,2664523320,56864,2,1.19434,-0.18872,0.49023,-32.252,14.145,1.947
2026-06-06 21:23:03.064,2664522520,57064,1,0.94922,-0.0769,0.90918,-5.954,0.29,-6.603
2026-06-06 21:23:03.064,2664522520,57064,2,1.13867,-0.146,0.46606,-4.748,-3.519,-7.908
2026-06-06 21:23:03.264,2664522720,57264,1,0.86938,-0.03271,0.76294,-5.901,-24.855,-4.107
2026-06-06 21:23:03.264,2664522720,57264,2,1.21338,-0.18311,0.35107,-8.634,-22.427,6.802
2026-06-06 21:23:03.464,2664522920,57464,1,0.90771,-0.05835,0.56226,0.893,-4.832,4.916
2026-06-06 21:23:03.464,2664522920,57464,2,1.01733,-0.11792,0.24902,9.618,-11.603,-1.031
2026-06-06 21:23:04.664,2664524120,57664,1,0.91895,-0.02222,0.54224,4.557,-6.29,1.534
2026-06-06 21:23:04.664,2664524120,57664,2,1.25073,-0.13184,0.25024,11.351,-20.802,6.405
2026-06-06 21:23:04.864,2664524320,57864,1,1.46045,-0.0957,0.79126,2.855,25.328,5.893
2026-06-06 21:23:04.864,2664524320,57864,2,1.44727,-0.21899,0.3252,-11.855,35.481,-3.359
2026-06-06 21:23:04.064,2664523520,58064,1,1.05298,-0.06348,0.70703,-10.977,14.58,0.382
2026-06-06 21:23:04.064,2664523520,58064,2,0.53955,-0.17236,0.20337,-10.87,10.305,2.504
2026-06-06 21:23:04.296,2664523752,58296,1,0.27954,-0.05859,0.28247,4.855,-10.427,4.763
2026-06-06 21:23:04.296,2664523752,58296,2,0.49561,-0.07031,0.25317,-12.221,-52.885,5.641
2026-06-06 21:23:05.496,2664524952,58496,1,0.95972,-0.0332,0.43628,-6.84,-39.351,-4.687
2026-06-06 21:23:05.496,2664524952,58496,2,1.03101,-0.1792,0.1145,-24.527,-5.16,-7.099
2026-06-06 21:23:05.711,2664525167,58711,1,1.08765,-0.06738,0.35938,-4.076,-16.374,-7.351
2026-06-06 21:23:05.711,2664525167,58711,2,0.96509,-0.18677,0.08813,5.099,-3.962,-3.0
2026-06-06 21:23:05.918,2664525374,58918,1,1.00562,-0.06396,0.35132,1.679,1.382,-0.26
2026-06-06 21:23:05.918,2664525374,58918,2,1.04517,-0.1792,0.04272,-4.672,-3.679,2.015
2026-06-06 21:23:05.118,2664524574,59118,1,1.01074,-0.05933,0.3479,1.832,2.908,2.656
2026-06-06 21:23:05.118,2664524574,59118,2,1.0603,-0.15918,0.06323,6.527,-0.214,-1.412
2026-06-06 21:23:05.431,2664524887,59431,1,1.01074,-0.03369,0.32764,0.122,3.137,-1.939
2026-06-06 21:23:05.431,2664524887,59431,2,1.06421,-0.1626,0.04468,5.427,2.008,-0.679
2026-06-06 21:23:06.678,2664526134,59678,1,1.03369,-0.03662,0.3335,-0.214,18.863,1.634
2026-06-06 21:23:06.678,2664526134,59678,2,1.08936,-0.1792,0.09229,-0.053,25.702,-4.0
2026-06-06 21:23:06.878,2664526334,59878,1,1.00757,-0.0332,0.32764,0.908,63.847,5.802
2026-06-06 21:23:06.878,2664526334,59878,2,0.97632,-0.13818,0.32422,25.84,94.55,-8.183
2026-06-06 21:23:06.079,2664525535,60079,1,0.58252,-0.01343,0.54565,0.702,135.084,10.962
2026-06-06 21:23:06.079,2664525535,60079,2,0.87109,-0.07153,0.49292,23.321,135.756,-16.885
2026-06-06 21:23:06.279,2664525735,60279,1,0.21509,-0.09155,0.99976,-7.695,139.511,15.58
2026-06-06 21:23:06.279,2664525735,60279,2,0.71045,0.01978,1.00391,40.611,116.931,-16.412
2026-06-06 21:23:06.479,2664525935,60479,1,-0.1936,-0.08179,1.11206,14.595,95.29,21.076
2026-06-06 21:23:06.479,2664525935,60479,2,0.17041,0.19165,1.06885,3.794,85.26,-9.252
2026-06-06 21:23:07.684,2664527140,60684,1,-0.39014,-0.06787,1.09375,8.015,46.076,8.267
2026-06-06 21:23:07.684,2664527140,60684,2,-0.01904,0.15869,1.12891,5.847,54.183,-6.763
2026-06-06 21:23:07.884,2664527340,60884,1,-0.47119,-0.01904,1.04541,6.809,23.901,0.405
2026-06-06 21:23:07.884,2664527340,60884,2,-0.11743,0.1853,1.14429,-1.817,20.321,-5.748
2026-06-06 21:23:07.084,2664526540,61084,1,-0.48486,-0.02148,0.96338,1.977,4.618,-2.496
2026-06-06 21:23:07.084,2664526540,61084,2,-0.11743,0.15137,1.09521,2.832,-0.015,-2.763
2026-06-06 21:23:07.284,2664526740,61284,1,-0.45654,-0.01221,0.91089,2.115,-3.603,-0.809
2026-06-06 21:23:07.284,2664526740,61284,2,-0.08813,0.15308,1.07202,2.282,-4.603,-0.786
2026-06-06 21:23:07.484,2664526940,61484,1,-0.42065,-0.02002,0.93726,2.718,-1.595,-1.626
2026-06-06 21:23:07.484,2664526940,61484,2,-0.09082,0.15674,1.09595,-0.489,-0.168,-0.809
2026-06-06 21:23:08.684,2664528140,61684,1,-0.44604,-0.01587,1.03931,1.168,-1.901,-0.374
2026-06-06 21:23:08.684,2664528140,61684,2,-0.14014,0.22339,1.20386,4.573,-17.977,-0.794
2026-06-06 21:23:08.884,2664528340,61884,1,-0.46313,-0.02808,1.16724,-2.435,-63.305,-1.45
2026-06-06 21:23:08.884,2664528340,61884,2,0.23828,0.12939,1.0918,-9.489,-121.817,26.42
2026-06-06 21:23:08.084,2664527540,62084,1,-0.20264,-0.06226,1.11108,-7.802,-131.511,-9.435
2026-06-06 21:23:08.084,2664527540,62084,2,0.55566,0.08252,0.85278,-9.023,-160.634,41.687
2026-06-06 21:23:08.284,2664527740,62284,1,0.34595,-0.01904,0.66748,-5.298,-172.725,-3.237
2026-06-06 21:23:08.284,2664527740,62284,2,0.91553,-0.11743,0.46948,-56.008,-105.397,26.74
2026-06-06 21:23:08.484,2664527940,62484,1,0.77173,-0.03833,0.34692,-10.542,-93.794,-6.481
2026-06-06 21:23:08.484,2664527940,62484,2,1.06201,-0.20947,0.20508,-13.847,-49.115,8.947
2026-06-06 21:23:09.684,2664529140,62684,1,1.0415,-0.04956,0.25635,-2.267,-49.321,-4.122
2026-06-06 21:23:09.684,2664529140,62684,2,1.07983,-0.20386,0.14063,13.023,-46.221,6.389
2026-06-06 21:23:09.884,2664529340,62884,1,1.0459,-0.04224,0.23022,-0.45,-0.275,1.588
2026-06-06 21:23:09.884,2664529340,62884,2,1.0437,-0.20605,0.0144,11.443,6.725,-0.641
2026-06-06 21:23:09.084,2664528540,63084,1,1.01929,-0.05347,0.25659,-2.458,0.687,2.145
2026-06-06 21:23:09.084,2664528540,63084,2,1.03638,-0.22949,0.00586,0.382,2.328,2.313
2026-06-06 21:23:09.284,2664528740,63284,1,1.02075,-0.04858,0.25977,-6.015,5.038,2.534
2026-06-06 21:23:09.284,2664528740,63284,2,1.04663,-0.22852,0.01196,-9.702,3.55,2.878
2026-06-06 21:23:09.484,2664528940,63484,1,1.00928,-0.07446,0.2605,-8.55,5.664,0.893
2026-06-06 21:23:09.484,2664528940,63484,2,1.04028,-0.24316,0.00513,-12.809,2.962,3.084
2026-06-06 21:23:10.684,2664530140,63684,1,1.03833,-0.02563,0.28809,-9.13,15.145,6.611
2026-06-06 21:23:10.684,2664530140,63684,2,1.04736,-0.17578,0.02734,-22.664,15.374,4.977
2026-06-06 21:23:10.884,2664530340,63884,1,1.00317,-0.10083,0.35913,-24.061,22.947,7.275
2026-06-06 21:23:10.884,2664530340,63884,2,1.01294,-0.25293,0.0625,-27.672,22.397,14.412
2026-06-06 21:23:10.114,2664529570,64114,1,0.90552,-0.28149,0.38525,-24.855,22.802,6.092
2026-06-06 21:23:10.114,2664529570,64114,2,0.96826,-0.41455,0.02148,7.198,2.931,12.504
2026-06-06 21:23:10.314,2664529770,64314,1,0.96094,-0.35352,0.37378,6.504,-6.145,-3.634
2026-06-06 21:23:10.314,2664529770,64314,2,0.98169,-0.45972,0.05249,23.748,6.076,-3.252
2026-06-06 21:23:11.514,2664530970,64514,1,0.99536,-0.24463,0.34473,8.489,-2.344,-4.336
2026-06-06 21:23:11.514,2664530970,64514,2,1.03687,-0.40991,0.11865,5.725,9.718,-10.008
2026-06-06 21:23:11.719,2664531175,64718,1,0.9895,-0.29883,0.35498,33.099,22.962,14.015
2026-06-06 21:23:11.719,2664531175,64718,2,0.97339,-0.21704,0.24683,29.802,19.718,-12.13
2026-06-06 21:23:11.141,2664530597,65141,1,0.79785,-0.05396,0.68628,14.679,33.534,20.916
2026-06-06 21:23:11.141,2664530597,65141,2,1.02417,-0.02661,0.24512,-35.794,-2.023,12.55
2026-06-06 21:23:11.427,2664530883,65427,1,0.87671,-0.16895,0.7168,-41.298,-13.45,8.924
2026-06-06 21:23:11.427,2664530883,65427,2,0.96509,-0.25024,0.3457,-23.038,-6.527,30.489
2026-06-06 21:23:12.627,2664532083,65627,1,0.8186,-0.44385,0.62085,-51.351,-14.649,-8.756
2026-06-06 21:23:12.627,2664532083,65627,2,0.98291,-0.40601,0.2063,-32.336,0.412,11.023
2026-06-06 21:23:12.827,2664532283,65827,1,0.81812,-0.51636,0.4375,-31.145,4.206,-35.817
2026-06-06 21:23:12.827,2664532283,65827,2,0.9397,-0.49634,0.13745,-38.412,10.702,-20.557
2026-06-06 21:23:12.027,2664531483,66027,1,0.88867,-0.4231,0.33398,-3.351,11.237,-36.718
2026-06-06 21:23:12.027,2664531483,66027,2,1.00537,-0.49976,-0.00293,7.115,7.626,-24.076
2026-06-06 21:23:12.227,2664531683,66227,1,0.90137,-0.37036,0.40869,11.244,5.389,-22.916
2026-06-06 21:23:12.227,2664531683,66227,2,1.45044,-0.39478,0.1228,15.275,-51.824,1.756
2026-06-06 21:23:12.427,2664531883,66427,1,0.87256,-0.11108,0.64185,0.489,-13.565,-16.214
2026-06-06 21:23:12.427,2664531883,66427,2,0.93774,-0.11743,0.23022,6.092,15.183,-7.771
2026-06-06 21:23:13.697,2664533153,66697,1,0.89453,-0.01392,0.43237,12.924,3.695,20.389
2026-06-06 21:23:13.697,2664533153,66697,2,1.16211,-0.10986,0.01245,5.695,-19.557,13.855
2026-06-06 21:23:13.922,2664533378,66921,1,1.19165,-0.15503,0.46875,8.931,-23.687,18.779
2026-06-06 21:23:13.922,2664533378,66921,2,1.31006,0.03735,0.95972,83.855,-2.878,11.756
2026-06-06 21:23:13.173,2664532629,67173,1,0.87524,-0.10059,0.32568,42.924,-15.42,9.763
2026-06-06 21:23:13.173,2664532629,67173,2,1.07031,-0.13989,0.1521,135.298,-35.366,17.931
2026-06-06 21:23:13.402,2664532858,67401,1,0.97095,-0.20117,0.22803,53.863,-1.855,13.435
2026-06-06 21:23:13.402,2664532858,67401,2,1.35986,0.07544,-0.28491,23.443,-106.389,-18.885
2026-06-06 21:23:14.601,2664534057,67601,1,0.84839,-0.18506,0.52759,21.924,-3.221,9.137
2026-06-06 21:23:14.601,2664534057,67601,2,0.97046,-0.1062,0.09375,-38.603,10.504,-3.214
2026-06-06 21:23:14.910,2664534366,67910,1,0.8501,0.04443,0.47656,-5.092,1.664,1.435
2026-06-06 21:23:14.910,2664534366,67910,2,1.33374,0.02979,0.45923,104.878,9.336,-22.489
2026-06-06 21:23:14.196,2664533652,68195,1,0.87183,-0.29175,0.37549,1.779,-2.786,-8.588
2026-06-06 21:23:14.196,2664533652,68195,2,0.90845,-0.31714,0.09155,38.87,18.229,-17.947
2026-06-06 21:23:14.395,2664533851,68395,1,0.81909,-0.2063,0.46021,65.153,24.55,44.771
2026-06-06 21:23:14.395,2664533851,68395,2,1.01904,-0.21191,-0.03418,155.031,-41.863,-6.42
2026-06-06 21:23:15.595,2664535051,68595,1,1.02441,-0.1792,0.48022,37.931,-27.382,26.489
2026-06-06 21:23:15.595,2664535051,68595,2,1.17212,0.08447,0.08423,44.626,-26.427,10.885
2026-06-06 21:23:15.795,2664535251,68795,1,0.93945,-0.07544,0.40991,12.733,-2.802,4.275
2026-06-06 21:23:15.795,2664535251,68795,2,0.99512,-0.16968,-0.03125,-30.122,-9.061,-2.191
2026-06-06 21:23:15.034,2664534490,69034,1,1.06958,-0.43164,0.54517,-18.061,16.511,-1.229
2026-06-06 21:23:15.034,2664534490,69034,2,0.95605,-0.23193,0.09131,26.374,-2.282,12.725
2026-06-06 21:23:15.298,2664534754,69298,1,0.86914,-0.2998,0.35498,-38.74,16.931,-29.038
2026-06-06 21:23:15.298,2664534754,69298,2,0.9397,-0.3252,0.0332,-37.397,44.046,-15.466
2026-06-06 21:23:16.498,2664535954,69498,1,0.95215,-0.34253,0.38037,-42.534,-10.107,-38.847
2026-06-06 21:23:16.498,2664535954,69498,2,1.07813,0.06323,-0.02637,17.214,50.947,-7.718
2026-06-06 21:23:16.698,2664536154,69698,1,1.00757,-0.06152,0.42651,-31.038,8.328,0.046
2026-06-06 21:23:16.698,2664536154,69698,2,0.9502,-0.17773,0.03857,-108.015,41.74,-17.198
2026-06-06 21:23:16.898,2664536354,69898,1,0.88452,0.02856,0.39893,-44.832,29.84,-3.885
2026-06-06 21:23:16.898,2664536354,69898,2,1.03223,-0.10962,0.00757,-61.29,12.061,8.985
2026-06-06 21:23:16.123,2664535579,70123,1,1.08643,-0.29102,0.59058,-44.901,9.267,-23.786
2026-06-06 21:23:16.123,2664535579,70123,2,0.90894,-0.40479,0.16821,17.313,36.458,12.802
2026-06-06 21:23:16.323,2664535779,70323,1,0.76001,-0.30469,0.39355,-20.573,11.267,-15.183
2026-06-06 21:23:16.323,2664535779,70323,2,0.9978,-0.29126,0.13135,-22.481,-0.664,-13.351
2026-06-06 21:23:17.529,2664536985,70528,1,1.05542,-0.33838,0.56543,-0.794,-17.153,-34.885
2026-06-06 21:23:17.529,2664536985,70528,2,1.01904,-0.08228,0.26709,83.718,92.122,-18.031
2026-06-06 21:23:17.904,2664537360,70904,1,0.82373,0.09717,0.47144,-37.221,20.878,1.985
2026-06-06 21:23:17.904,2664537360,70904,2,1.12573,-0.53638,0.05566,-16.779,-28.298,31.145
2026-06-06 21:23:17.145,2664536601,71145,1,0.93896,-0.35889,0.49902,-58.298,8.832,-11.076
2026-06-06 21:23:17.145,2664536601,71145,2,0.8667,-0.46753,0.15503,-52.397,36.718,1.053
2026-06-06 21:23:17.418,2664536874,71418,1,0.82202,-0.44141,0.43433,-20.038,10.901,-8.489
2026-06-06 21:23:17.418,2664536874,71418,2,0.93628,-0.51514,0.02905,0.557,-4.954,-8.779
2026-06-06 21:23:18.642,2664538098,71642,1,1.18237,-0.51855,0.53564,6.573,-34.481,-11.534
2026-06-06 21:23:18.642,2664538098,71642,2,1.44629,0.00513,0.05298,74.382,-28.092,-8.809
2026-06-06 21:23:18.842,2664538298,71842,1,0.89233,-0.02173,0.52881,25.229,2.962,10.855
2026-06-06 21:23:18.842,2664538298,71842,2,1.00977,-0.18335,0.14771,48.489,-7.595,3.076
2026-06-06 21:23:18.075,2664537531,72075,1,0.91235,0.03247,0.41309,19.252,-4.656,32.763
2026-06-06 21:23:18.075,2664537531,72075,2,1.28638,-0.47656,0.09253,76.901,4.061,14.824
2026-06-06 21:23:18.278,2664537734,72278,1,0.72168,-0.12646,0.73706,136.16,-41.382,101.603
2026-06-06 21:23:18.278,2664537734,72278,2,0.98706,-0.1875,0.5542,174.916,-67.45,44.084
2026-06-06 21:23:18.478,2664537934,72478,1,0.87012,-0.354,0.4751,88.901,-17.527,34.489
2026-06-06 21:23:18.478,2664537934,72478,2,0.89966,-0.34497,0.2666,34.931,-23.496,1.0
2026-06-06 21:23:19.847,2664539303,72847,1,0.9856,-0.20532,0.4563,22.351,-16.557,-19.664
2026-06-06 21:23:19.847,2664539303,72847,2,1.08496,-0.03613,0.19189,9.137,-29.214,0.542
2026-06-06 21:23:19.077,2664538533,73077,1,0.88599,0.03052,0.53003,10.763,14.55,9.374
2026-06-06 21:23:19.077,2664538533,73077,2,0.99414,-0.12085,0.29297,-5.832,16.214,3.855
2026-06-06 21:23:19.277,2664538733,73277,1,0.99854,-0.13525,0.60571,8.046,-6.397,22.939
2026-06-06 21:23:19.277,2664538733,73277,2,1.06665,-0.00195,0.38843,18.351,-10.229,17.115
2026-06-06 21:23:19.477,2664538933,73477,1,0.77271,-0.2793,0.64014,16.992,18.481,9.092
2026-06-06 21:23:19.477,2664538933,73477,2,0.9502,-0.3457,0.38306,6.748,8.832,0.084
2026-06-06 21:23:20.811,2664540267,73810,1,0.76929,-0.22729,0.66797,27.55,1.023,9.237
2026-06-06 21:23:20.811,2664540267,73810,2,0.95068,-0.34106,0.34912,30.664,-17.901,-9.16
2026-06-06 21:23:20.010,2664539466,74010,1,0.83569,-0.19873,0.58667,67.565,-24.832,14.16
2026-06-06 21:23:20.010,2664539466,74010,2,1.10938,-0.05933,0.47534,105.229,-36.397,-5.473
2026-06-06 21:23:20.210,2664539666,74210,1,0.8562,0.03711,0.80493,18.366,-2.656,1.908
2026-06-06 21:23:20.210,2664539666,74210,2,0.99561,-0.03101,0.28564,26.725,-13.405,-2.931
2026-06-06 21:23:20.454,2664539910,74454,1,0.77344,0.19189,0.7002,16.702,-18.534,12.168
2026-06-06 21:23:20.454,2664539910,74454,2,1.04468,0.05054,0.271,41.779,-17.267,32.328
2026-06-06 21:23:21.665,2664541121,74665,1,0.95264,0.13232,0.58472,12.458,-9.977,34.832
2026-06-06 21:23:21.665,2664541121,74665,2,1.22095,-0.14478,0.12134,8.985,-14.954,27.359
2026-06-06 21:23:21.865,2664541321,74865,1,0.91577,-0.35229,0.54517,-13.015,18.191,7.069
2026-06-06 21:23:21.865,2664541321,74865,2,0.89233,-0.33716,0.28052,-7.16,36.847,-13.527
2026-06-06 21:23:21.140,2664540596,75139,1,0.73364,-0.2832,0.6665,-3.282,24.565,-18.389
2026-06-06 21:23:21.140,2664540596,75139,2,1.03296,-0.27075,0.40234,-27.786,31.038,-34.122
2026-06-06 21:23:21.339,2664540795,75339,1,0.73096,-0.06372,0.81934,-7.733,-10.198,-15.763
2026-06-06 21:23:21.339,2664540795,75339,2,1.02319,-0.18652,0.38843,34.122,-8.366,8.603
2026-06-06 21:23:22.697,2664542153,75697,1,0.92822,-0.06152,0.5166,14.718,-9.122,0.328
2026-06-06 21:23:22.697,2664542153,75697,2,0.9834,-0.19238,0.19751,28.29,-4.84,-8.397
2026-06-06 21:23:22.927,2664542383,75927,1,1.04468,0.07593,0.47314,32.359,-26.374,-30.885
2026-06-06 21:23:22.927,2664542383,75927,2,1.0625,-0.00415,0.18823,22.359,-10.634,-32.267
2026-06-06 21:23:22.127,2664541583,76127,1,0.98462,0.27148,0.52588,20.397,9.374,-3.832
2026-06-06 21:23:22.127,2664541583,76127,2,0.96533,0.09546,0.18872,6.603,6.855,-11.809
2026-06-06 21:23:22.350,2664541806,76350,1,0.86035,0.32178,0.51123,-10.282,6.885,5.634
2026-06-06 21:23:22.350,2664541806,76350,2,1.0144,0.08228,0.16528,-3.168,11.008,11.634
2026-06-06 21:23:23.550,2664543006,76550,1,0.91064,0.34839,0.44946,-20.519,-5.977,18.244
2026-06-06 21:23:23.550,2664543006,76550,2,1.17139,-0.33716,0.29517,-49.649,-7.802,9.588
2026-06-06 21:23:23.821,2664543277,76821,1,0.94165,-0.17627,0.44019,-37.962,8.328,1.023
2026-06-06 21:23:23.821,2664543277,76821,2,0.97241,-0.37744,0.1853,-20.473,13.023,3.359
2026-06-06 21:23:23.087,2664542543,77087,1,0.89355,-0.14502,0.46606,12.656,1.718,-10.679
2026-06-06 21:23:23.087,2664542543,77087,2,0.97729,-0.23462,0.16943,29.55,-7.191,-19.656
2026-06-06 21:23:23.287,2664542743,77287,1,1.25269,0.12305,0.54565,16.603,-5.366,-21.847
2026-06-06 21:23:23.287,2664542743,77287,2,0.80566,-0.03833,0.31128,-22.412,14.336,-13.634
2026-06-06 21:23:23.487,2664542943,77487,1,0.85986,0.22241,0.67456,2.557,15.206,-2.84
2026-06-06 21:23:23.487,2664542943,77487,2,0.97241,0.07837,0.27368,7.489,8.214,-3.55
2026-06-06 21:23:24.687,2664544143,77687,1,0.82349,0.26123,0.60474,-26.435,-0.168,-2.634
2026-06-06 21:23:24.687,2664544143,77687,2,1.06812,0.07837,0.28809,-25.008,7.511,8.893
2026-06-06 21:23:24.887,2664544343,77887,1,0.88525,0.28149,0.50098,-50.229,-18.802,-10.099
2026-06-06 21:23:24.887,2664544343,77887,2,1.18823,-0.23682,0.22949,-126.962,-55.084,13.84
2026-06-06 21:23:24.100,2664543556,78100,1,0.92798,-0.21753,0.46045,-64.13,-2.702,-2.214
2026-06-06 21:23:24.100,2664543556,78100,2,0.9729,-0.4082,0.14624,-61.435,16.084,11.611
2026-06-06 21:23:24.318,2664543774,78318,1,0.98804,-0.29053,0.36841,-53.519,3.695,-11.282
2026-06-06 21:23:24.318,2664543774,78318,2,0.99609,-0.4939,0.19629,-13.725,3.626,10.924
2026-06-06 21:23:25.522,2664544978,78522,1,0.93042,-0.28345,0.3501,6.931,35.603,20.725
2026-06-06 21:23:25.522,2664544978,78522,2,1.14111,-0.27319,0.28955,41.229,22.397,-2.466
2026-06-06 21:23:25.781,2664545237,78781,1,0.8479,-0.22461,0.78125,-37.977,61.977,22.74
2026-06-06 21:23:25.781,2664545237,78781,2,0.98169,-0.26685,0.4458,13.954,40.634,9.573
2026-06-06 21:23:25.981,2664545437,78981,1,0.54712,-0.34961,0.84448,-19.771,47.191,18.511
2026-06-06 21:23:25.981,2664545437,78981,2,0.83813,-0.29956,0.63037,7.305,30.076,9.229
2026-06-06 21:23:25.234,2664544690,79234,1,0.48877,-0.47827,0.76563,-9.015,31.198,17.649
2026-06-06 21:23:25.234,2664544690,79234,2,0.75732,-0.39648,0.71753,11.221,26.443,8.069
2026-06-06 21:23:25.464,2664544920,79463,1,0.36792,-0.58228,0.84229,-2.0,29.206,24.344
2026-06-06 21:23:25.464,2664544920,79463,2,0.76172,-0.30908,0.76538,6.397,19.55,4.924
2026-06-06 21:23:26.663,2664546119,79663,1,0.31616,-0.57129,0.87109,-1.443,6.695,10.153
2026-06-06 21:23:26.663,2664546119,79663,2,0.73975,-0.19214,0.71973,-14.435,0.344,1.656
2026-06-06 21:23:26.871,2664546327,79871,1,0.35815,-0.54883,0.87524,-12.916,6.16,-15.305
2026-06-06 21:23:26.871,2664546327,79871,2,0.70874,-0.37524,0.73633,-23.397,-1.794,-4.84
2026-06-06 21:23:26.071,2664545527,80071,1,0.36426,-0.63965,0.77075,-12.748,-7.405,-16.076
2026-06-06 21:23:26.071,2664545527,80071,2,0.75659,-0.47559,0.75439,-17.885,-12.718,-2.29
2026-06-06 21:23:26.271,2664545727,80271,1,0.50854,-0.66528,0.75269,14.702,-34.198,-18.656
2026-06-06 21:23:26.271,2664545727,80271,2,0.85693,-0.38745,0.61865,9.649,-33.672,-17.931
2026-06-06 21:23:27.511,2664546967,80511,1,0.53076,-0.37476,0.69238,28.0,-20.672,-32.275
2026-06-06 21:23:27.511,2664546967,80511,2,0.89771,-0.41968,0.57715,-12.023,-23.641,-20.756
2026-06-06 21:23:27.721,2664547177,80721,1,0.64087,-0.31689,0.77319,18.008,-16.977,-23.748
2026-06-06 21:23:27.721,2664547177,80721,2,0.83081,-0.37451,0.48608,20.13,-16.26,-13.641
2026-06-06 21:23:27.979,2664547435,80979,1,0.8916,-0.20288,0.59009,45.496,-38.748,14.885
2026-06-06 21:23:27.979,2664547435,80979,2,0.979,-0.11206,0.28442,9.321,-8.466,-0.695
2026-06-06 21:23:27.179,2664546635,81179,1,0.9165,0.06201,0.54736,-25.595,-21.168,-3.183
2026-06-06 21:23:27.179,2664546635,81179,2,1.07983,-0.16113,0.323,-55.427,0.527,6.282
2026-06-06 21:23:27.379,2664546835,81379,1,0.95264,-0.15283,0.55542,-28.153,-2.618,-10.099
2026-06-06 21:23:27.379,2664546835,81379,2,0.99683,-0.30371,0.29248,-39.534,5.481,-6.359
2026-06-06 21:23:28.625,2664548081,81625,1,0.85815,-0.22949,0.5437,-13.435,3.366,-9.206
2026-06-06 21:23:28.625,2664548081,81625,2,1.00122,-0.33691,0.22314,-13.718,0.504,-6.122
2026-06-06 21:23:28.858,2664548314,81857,1,0.91138,-0.23193,0.48877,-4.229,-7.779,-13.374
2026-06-06 21:23:28.858,2664548314,81857,2,0.98877,-0.33472,0.18555,-20.229,-13.885,-2.969
2026-06-06 21:23:28.057,2664547513,82057,1,0.96704,-0.21021,0.40381,-10.206,-18.557,-12.412
2026-06-06 21:23:28.057,2664547513,82057,2,1.01416,-0.38647,0.15112,3.382,-13.038,-2.412
2026-06-06 21:23:28.280,2664547736,82279,1,1.01001,-0.21289,0.31763,19.229,-2.45,-3.061
2026-06-06 21:23:28.280,2664547736,82279,2,0.99634,-0.36084,0.10449,10.45,-3.809,-13.13
2026-06-06 21:23:28.479,2664547935,82479,1,1.00806,-0.21021,0.29468,28.74,3.588,1.053
2026-06-06 21:23:28.479,2664547935,82479,2,1.01221,-0.37378,0.06445,28.763,-4.977,-9.092
2026-06-06 21:23:29.679,2664549135,82679,1,0.95581,0.08447,0.39966,16.435,34.176,-3.42
2026-06-06 21:23:29.679,2664549135,82679,2,1.18628,0.03027,0.28125,59.069,1.802,13.107
2026-06-06 21:23:29.896,2664549352,82896,1,0.85986,0.14697,0.5542,36.885,8.649,10.718
2026-06-06 21:23:29.896,2664549352,82896,2,0.97974,0.00708,0.20752,54.817,0.573,-1.931
2026-06-06 21:23:29.096,2664548552,83096,1,0.90137,0.13989,0.52441,31.641,-14.733,17.275
2026-06-06 21:23:29.096,2664548552,83096,2,1.07886,-0.14453,0.27783,33.557,-20.313,26.656
2026-06-06 21:23:29.330,2664548786,83330,1,0.95996,-0.08252,0.41943,51.122,-4.611,33.366
2026-06-06 21:23:29.330,2664548786,83330,2,1.0896,-0.36694,0.05176,28.718,-11.947,-4.099
2026-06-06 21:23:30.541,2664549997,83541,1,0.98193,-0.11694,0.32739,45.481,4.015,22.122
2026-06-06 21:23:30.541,2664549997,83541,2,1.00586,-0.27734,0.09375,52.397,4.473,-2.046
2026-06-06 21:23:30.741,2664550197,83741,1,1.03687,-0.09424,0.39258,41.321,0.977,10.557
2026-06-06 21:23:30.741,2664550197,83741,2,0.99829,-0.20947,0.15576,33.229,16.183,-10.206
2026-06-06 21:23:30.949,2664550405,83949,1,0.93164,0.10547,0.51001,-9.702,12.626,-19.618
2026-06-06 21:23:30.949,2664550405,83949,2,1.11499,-0.03394,0.25244,14.756,10.038,-20.061
2026-06-06 21:23:30.151,2664549607,84151,1,0.80518,0.23901,0.51172,-36.962,17.779,-43.023
2026-06-06 21:23:30.151,2664549607,84151,2,1.11938,-0.29883,0.14136,5.725,-15.863,-19.237
2026-06-06 21:23:30.357,2664549813,84357,1,0.89453,0.03662,0.38916,22.29,12.168,-27.794
2026-06-06 21:23:30.357,2664549813,84357,2,1.04248,0.04932,0.25171,18.84,28.863,-40.046
2026-06-06 21:23:31.611,2664551067,84611,1,0.86548,0.35571,0.64453,-1.427,22.053,-25.282
2026-06-06 21:23:31.611,2664551067,84611,2,0.99512,0.16187,0.32837,-5.389,1.656,-16.45
2026-06-06 21:23:31.873,2664551329,84873,1,0.77393,0.37085,0.66748,10.313,12.702,-1.794
2026-06-06 21:23:31.873,2664551329,84873,2,1.04932,0.1377,0.31348,4.618,1.771,-7.733
2026-06-06 21:23:31.073,2664550529,85073,1,0.70654,0.39673,0.66724,5.092,10.473,2.916
2026-06-06 21:23:31.073,2664550529,85073,2,1.01733,0.16821,0.30225,16.893,6.733,10.237
2026-06-06 21:23:31.328,2664550784,85328,1,0.75366,0.35327,0.63184,25.511,-16.824,41.534
2026-06-06 21:23:31.328,2664550784,85328,2,1.0271,0.13452,0.24316,30.0,-13.71,43.267
2026-06-06 21:23:32.563,2664552019,85563,1,0.87915,0.27466,0.51929,32.511,-18.687,53.832
2026-06-06 21:23:32.563,2664552019,85563,2,0.98975,-0.20264,0.18823,-19.29,4.504,23.076
2026-06-06 21:23:32.846,2664552302,85845,1,1.02759,-0.12866,0.41968,-0.198,-8.344,13.313
2026-06-06 21:23:32.846,2664552302,85845,2,1.00464,-0.24927,0.18555,1.153,-2.115,7.427
2026-06-06 21:23:32.110,2664551566,86110,1,1.08472,-0.00513,0.35596,-0.962,-8.985,-10.198
2026-06-06 21:23:32.110,2664551566,86110,2,1.07495,-0.17212,0.24487,-1.725,9.962,-15.954
2026-06-06 21:23:32.440,2664551896,86439,1,0.89502,0.25171,0.49268,4.756,15.061,-5.16
2026-06-06 21:23:32.440,2664551896,86439,2,1.06787,0.03613,0.16797,14.16,7.931,-9.076
2026-06-06 21:23:33.712,2664553168,86712,1,0.94238,0.22583,0.48022,1.366,7.519,11.916
2026-06-06 21:23:33.712,2664553168,86712,2,1.07104,-0.0752,0.20972,9.641,12.794,6.221
2026-06-06 21:23:33.028,2664552484,87028,1,0.85327,0.1499,0.42944,18.061,88.885,37.092
2026-06-06 21:23:33.028,2664552484,87028,2,0.94385,-0.12622,0.51099,17.321,89.092,-11.305
2026-06-06 21:23:33.236,2664552692,87236,1,0.44629,-0.04736,0.7749,-3.015,136.756,26.229
2026-06-06 21:23:33.236,2664552692,87236,2,0.71289,-0.03271,0.88721,23.672,136.198,-4.626
2026-06-06 21:23:34.551,2664554007,87551,1,-0.20264,-0.01294,1.10767,16.115,92.618,-7.519
2026-06-06 21:23:34.551,2664554007,87551,2,0.29272,0.05957,1.07764,20.649,93.168,-24.42
2026-06-06 21:23:34.782,2664554238,87782,1,-0.4646,0.04883,1.11304,17.336,41.313,-9.458
2026-06-06 21:23:34.782,2664554238,87782,2,-0.06372,0.19116,1.13281,8.435,24.71,-11.817
2026-06-06 21:23:34.982,2664554438,87982,1,-0.52905,0.07446,1.06836,7.771,5.496,-4.107
2026-06-06 21:23:34.982,2664554438,87982,2,-0.01416,0.2627,1.1023,-6.168,-7.71,-2.985
2026-06-06 21:23:34.293,2664553749,88293,1,-0.48779,0.05591,1.11499,-8.107,-13.344,-4.107
2026-06-06 21:23:34.293,2664553749,88293,2,0.06177,0.19385,1.12769,-9.145,-57.611,4.802
2026-06-06 21:23:35.552,2664555008,88552,1,-0.28882,0.03955,1.0835,-2.832,-77.221,-7.42
2026-06-06 21:23:35.552,2664555008,88552,2,0.6394,-0.02271,0.87207,-18.092,-100.931,18.183
2026-06-06 21:23:35.922,2664555378,88922,1,0.35815,-0.04053,0.93701,0.962,-107.641,-4.817
2026-06-06 21:23:35.922,2664555378,88922,2,0.87573,-0.08813,0.60181,-14.206,-91.069,19.031
2026-06-06 21:23:35.122,2664554578,89122,1,0.67212,-0.02002,0.56982,-3.885,-106.519,-13.939
2026-06-06 21:23:35.122,2664554578,89122,2,0.98999,-0.17627,0.38843,-32.115,-75.29,9.443
2026-06-06 21:23:35.354,2664554810,89354,1,0.99268,0.09497,0.35181,-4.183,-56.954,-17.328
2026-06-06 21:23:35.354,2664554810,89354,2,1.04224,-0.14917,0.20117,-3.687,-26.473,3.55
2026-06-06 21:23:36.586,2664556042,89586,1,1.01172,0.17407,0.29907,-5.641,-13.496,-17.542
2026-06-06 21:23:36.586,2664556042,89586,2,1.05469,-0.1123,0.08325,0.954,3.466,-7.221
2026-06-06 21:23:36.853,2664556309,89853,1,1.0022,0.20581,0.31519,-1.252,9.305,-2.954
2026-06-06 21:23:36.853,2664556309,89853,2,1.07153,-0.11523,0.07178,0.427,3.634,-1.954
2026-06-06 21:23:36.053,2664555509,90053,1,0.9834,0.16772,0.36377,-4.534,7.244,3.321
2026-06-06 21:23:36.053,2664555509,90053,2,1.04272,-0.11963,0.11719,-2.168,6.992,1.504
2026-06-06 21:23:36.253,2664555709,90253,1,0.97412,0.13135,0.3728,-3.145,3.718,1.725
2026-06-06 21:23:36.253,2664555709,90253,2,1.06519,-0.1355,0.11108,-1.969,2.58,-0.313
2026-06-06 21:23:36.453,2664555909,90453,1,1.00513,0.1377,0.35962,0.756,3.214,0.718
2026-06-06 21:23:36.453,2664555909,90453,2,1.04346,-0.14722,0.09253,6.908,3.397,-0.954
2026-06-06 21:23:37.728,2664557184,90728,1,0.99731,0.11987,0.34131,4.847,10.611,1.107
2026-06-06 21:23:37.728,2664557184,90728,2,1.07251,-0.14258,0.1311,5.954,9.985,-5.84
2026-06-06 21:23:37.928,2664557384,90928,1,1.03711,0.20728,0.34424,7.008,23.763,5.328
2026-06-06 21:23:37.928,2664557384,90928,2,1.07886,0.02686,0.23389,10.718,34.336,-13.481
2026-06-06 21:23:37.197,2664556653,91196,1,0.83203,0.1394,0.49902,-2.656,76.389,28.061
2026-06-06 21:23:37.197,2664556653,91196,2,0.97876,-0.04004,0.46826,12.817,78.458,-4.55
2026-06-06 21:23:38.494,2664557950,91494,1,0.29126,0.01855,0.90454,11.168,140.527,31.557
2026-06-06 21:23:38.494,2664557950,91494,2,0.79785,0.06763,0.71704,31.031,103.359,-14.183
2026-06-06 21:23:38.694,2664558150,91694,1,-0.07642,0.03394,1.09424,4.092,103.206,11.031
2026-06-06 21:23:38.694,2664558150,91694,2,0.30249,0.06201,1.04468,19.237,94.824,-9.695
2026-06-06 21:23:38.901,2664558357,91901,1,-0.33838,0.01392,1.08838,6.015,56.252,-0.336
2026-06-06 21:23:38.901,2664558357,91901,2,-0.03662,0.15405,1.15405,4.908,41.634,-4.573
2026-06-06 21:23:38.117,2664557573,92116,1,-0.54004,0.04321,1.11108,-0.87,21.817,-2.718
2026-06-06 21:23:38.117,2664557573,92116,2,-0.08398,0.17822,1.17407,3.0,-3.305,-1.198
2026-06-06 21:23:38.370,2664557826,92370,1,-0.40967,0.0686,1.00684,2.405,-32.969,-3.573
2026-06-06 21:23:38.370,2664557826,92370,2,0.08081,0.15015,1.13452,-7.015,-40.809,2.229
2026-06-06 21:23:39.580,2664559036,92579,1,-0.32544,0.03613,1.2644,-3.252,-70.359,-6.382
2026-06-06 21:23:39.580,2664559036,92579,2,0.45337,0.09424,0.98682,-17.13,-123.802,22.664
2026-06-06 21:23:39.779,2664559235,92779,1,0.07739,0.02637,0.99609,-7.802,-139.641,-12.634
2026-06-06 21:23:39.779,2664559235,92779,2,0.90479,-0.13281,0.54785,-31.87,-97.992,17.489
2026-06-06 21:23:39.101,2664558557,93101,1,0.76025,0.01538,0.44849,-12.366,-107.725,-12.588
2026-06-06 21:23:39.101,2664558557,93101,2,1.04736,-0.17578,0.26318,0.008,-34.099,4.0
2026-06-06 21:23:39.330,2664558786,93330,1,1.03955,0.0437,0.29565,-3.076,-38.13,-9.313
2026-06-06 21:23:39.330,2664558786,93330,2,1.0769,-0.1814,0.19067,-3.855,-14.771,4.969
2026-06-06 21:23:40.585,2664560041,93585,1,1.01099,0.08301,0.28491,-8.893,-0.26,-10.282
2026-06-06 21:23:40.585,2664560041,93585,2,1.05664,-0.19092,0.1748,-1.855,1.924,-7.351
2026-06-06 21:23:40.912,2664560368,93911,1,1.00073,0.12988,0.34741,-1.252,9.55,-2.275
2026-06-06 21:23:40.912,2664560368,93911,2,1.04858,-0.16504,0.17822,-2.901,-1.542,-2.176
2026-06-06 21:23:40.147,2664559603,94147,1,0.98657,0.13184,0.36816,2.687,5.695,1.466
2026-06-06 21:23:40.147,2664559603,94147,2,1.03613,-0.16333,0.16675,5.0,1.756,-0.191
2026-06-06 21:23:40.347,2664559803,94347,1,0.98413,0.1167,0.36206,1.038,4.473,-0.656
2026-06-06 21:23:40.347,2664559803,94347,2,1.05371,-0.18188,0.13794,-2.069,4.298,-4.0
2026-06-06 21:23:41.574,2664561030,94574,1,0.98291,0.13477,0.38257,,3.412,-4.282
2026-06-06 21:23:41.574,2664561030,94574,2,1.03955,-0.13745,0.15747,4.802,2.863,-2.748
2026-06-06 21:23:41.950,2664561406,94950,1,0.98022,0.14526,0.37671,2.443,3.031,1.206
2026-06-06 21:23:41.950,2664561406,94950,2,1.04321,-0.1228,0.19385,4.099,2.13,-1.336
2026-06-06 21:23:41.150,2664560606,95150,1,0.98413,0.14868,0.38257,3.084,2.038,1.855
2026-06-06 21:23:41.150,2664560606,95150,2,1.0437,-0.14258,0.18506,3.916,3.328,-0.298
2026-06-06 21:23:41.404,2664560860,95404,1,0.98779,0.1394,0.35596,1.481,3.763,0.664
2026-06-06 21:23:41.404,2664560860,95404,2,1.04614,-0.13745,0.1792,2.481,3.229,-0.321
2026-06-06 21:23:42.635,2664562091,95635,1,0.98218,0.12964,0.37573,-1.008,5.13,-0.427
2026-06-06 21:23:42.635,2664562091,95635,2,1.05151,-0.12988,0.19287,2.466,2.87,-1.618
2026-06-06 21:23:42.835,2664562291,95835,1,0.97656,0.14233,0.36328,-3.038,6.176,-3.328
2026-06-06 21:23:42.835,2664562291,95835,2,1.07886,-0.04175,0.24976,-47.824,8.992,-25.809
2026-06-06 21:23:42.064,2664561520,96064,1,0.9646,-0.02979,0.38184,-4.542,14.595,-26.298
2026-06-06 21:23:42.064,2664561520,96064,2,1.04907,-0.06494,0.14966,12.0,12.489,-41.282
2026-06-06 21:23:42.302,2664561758,96302,1,0.88818,0.33496,0.53857,1.794,27.153,-34.771
2026-06-06 21:23:42.302,2664561758,96302,2,0.98535,0.13892,0.22144,-3.824,21.931,-39.099
2026-06-06 21:23:43.597,2664563053,96596,1,0.72437,0.43018,0.61963,-1.565,15.084,-13.924
2026-06-06 21:23:43.597,2664563053,96596,2,0.9834,0.32178,0.27661,2.176,11.687,-12.29
2026-06-06 21:23:43.855,2664563311,96855,1,0.69312,0.48901,0.66528,-1.931,4.595,-2.313
2026-06-06 21:23:43.855,2664563311,96855,2,0.97437,0.34424,0.31665,-1.351,-2.176,0.42
2026-06-06 21:23:43.055,2664562511,97055,1,0.67896,0.49609,0.60474,2.511,-5.603,12.397
2026-06-06 21:23:43.055,2664562511,97055,2,0.97632,0.27466,0.30859,4.702,-2.344,34.244
2026-06-06 21:23:43.272,2664562728,97272,1,0.80029,0.43188,0.62183,16.336,-19.366,41.58
2026-06-06 21:23:43.272,2664562728,97272,2,1.04224,0.12231,0.19043,38.893,-2.176,45.137
2026-06-06 21:23:44.514,2664563970,97513,1,0.91235,0.32251,0.50049,35.542,-18.618,59.221
2026-06-06 21:23:44.514,2664563970,97513,2,1.14551,0.13867,0.12598,28.061,-11.183,36.504
2026-06-06 21:23:44.743,2664564199,97743,1,1.0083,-0.08423,0.48633,-2.198,6.397,22.573
2026-06-06 21:23:44.743,2664564199,97743,2,0.96094,-0.26318,0.31958,13.656,60.214,17.0
2026-06-06 21:23:44.987,2664564443,97987,1,0.61987,-0.17676,0.37671,29.901,35.573,28.573
2026-06-06 21:23:44.987,2664564443,97987,2,0.65527,0.08521,0.18091,9.863,34.374,-9.527
2026-06-06 21:23:44.191,2664563647,98191,1,0.62598,0.02783,0.52515,7.771,9.168,11.084
2026-06-06 21:23:44.191,2664563647,98191,2,1.1499,-0.38086,0.53735,-51.71,-10.74,15.573
2026-06-06 21:23:44.453,2664563909,98453,1,1.0896,-0.10132,0.93823,4.046,1.939,6.496
2026-06-06 21:23:44.453,2664563909,98453,2,1.47974,-0.30249,0.58813,-36.901,1.45,2.603
2026-06-06 21:23:45.700,2664565156,98700,1,0.92578,-0.0083,0.75171,-19.137,-19.275,-11.679
2026-06-06 21:23:45.700,2664565156,98700,2,1.25781,-0.20264,0.26733,2.641,-18.344,1.099
2026-06-06 21:23:45.955,2664565411,98955,1,0.83398,-0.04004,0.55737,-10.099,-12.992,-2.55
2026-06-06 21:23:45.955,2664565411,98955,2,1.05981,-0.18799,0.22095,2.275,-7.084,7.847
2026-06-06 21:23:45.228,2664564684,99228,1,0.99609,-0.03198,0.48779,-7.748,-3.565,2.725
2026-06-06 21:23:45.228,2664564684,99228,2,1.2627,-0.20996,0.19312,-11.649,0.397,2.137
2026-06-06 21:23:45.428,2664564884,99428,1,1.19678,-0.06226,0.51465,-3.511,7.557,-3.099
2026-06-06 21:23:45.428,2664564884,99428,2,1.31958,-0.28125,0.2605,-7.092,14.557,-4.076
2026-06-06 21:23:46.628,2664566084,99628,1,1.1084,-0.09058,0.65259,-2.511,21.695,-0.443
2026-06-06 21:23:46.628,2664566084,99628,2,1.20093,-0.24292,0.29736,-18.969,35.298,-9.725
2026-06-06 21:23:46.828,2664566284,99828,1,0.87964,-0.02466,0.58984,-1.931,5.992,-4.87
2026-06-06 21:23:46.828,2664566284,99828,2,0.90698,-0.15845,0.26172,-3.527,0.618,-4.374
2026-06-06 21:23:46.028,2664565484,100028,1,0.51196,-0.0166,0.3291,-11.557,-10.573,-0.389
2026-06-06 21:23:46.028,2664565484,100028,2,0.94531,-0.14209,0.22632,-1.229,-13.153,1.282
2026-06-06 21:23:46.337,2664565793,100337,1,0.93945,-0.02051,0.38354,0.45,-18.649,-3.809
2026-06-06 21:23:46.337,2664565793,100337,2,1.08936,-0.1936,0.22827,-0.809,-12.71,-2.45
2026-06-06 21:23:47.599,2664567055,100599,1,1.00684,-0.00586,0.31763,2.076,-3.977,-5.374
2026-06-06 21:23:47.599,2664567055,100599,2,1.06934,-0.18823,0.14673,3.321,-6.489,-0.427
2026-06-06 21:23:47.800,2664567256,100800,1,1.02051,0.00098,0.32666,-1.244,0.313,-2.107
2026-06-06 21:23:47.800,2664567256,100800,2,1.02197,-0.22021,0.146,6.412,2.802,-2.069
2026-06-06 21:23:47.000,2664566456,101000,1,1.0188,0.00732,0.31763,0.328,1.893,-1.588
2026-06-06 21:23:47.000,2664566456,101000,2,1.03516,-0.21729,0.13745,2.595,0.809,-2.275
2026-06-06 21:23:47.200,2664566656,101200,1,1.01025,0.02856,0.30981,1.878,3.504,0.053
2026-06-06 21:23:47.200,2664566656,101200,2,1.06909,-0.1875,0.1521,1.527,3.031,-1.649
2026-06-06 21:23:48.502,2664567958,101501,1,0.9668,0.01733,0.29272,2.16,24.473,1.168
2026-06-06 21:23:48.502,2664567958,101501,2,0.80444,-0.10474,0.1792,25.305,8.885,-4.725
2026-06-06 21:23:48.769,2664568225,101769,1,0.6333,0.01929,0.35693,8.244,25.618,4.16
2026-06-06 21:23:48.769,2664568225,101769,2,0.92822,-0.10449,0.46753,-21.847,31.313,-2.427
2026-06-06 21:23:48.070,2664567526,102070,1,1.02246,-0.08398,0.65894,-0.176,-11.321,3.412
2026-06-06 21:23:48.070,2664567526,102070,2,1.36743,-0.29395,0.48877,7.855,-7.099,6.588
2026-06-06 21:23:48.307,2664567763,102306,1,1.2373,0.07129,0.68481,5.015,0.405,0.45
2026-06-06 21:23:48.307,2664567763,102306,2,1.25098,-0.28687,0.32056,-10.389,-2.855,3.221
2026-06-06 21:23:49.574,2664569030,102574,1,1.00073,-0.06152,0.49634,-10.565,-9.366,8.672
2026-06-06 21:23:49.574,2664569030,102574,2,1.02295,-0.21826,0.22559,2.374,-5.702,6.573
2026-06-06 21:23:49.793,2664569249,102793,1,0.98071,-0.07593,0.47144,0.802,-5.382,-3.244
2026-06-06 21:23:49.793,2664569249,102793,2,1.15259,-0.26538,0.18433,-10.221,-3.031,-2.893
2026-06-06 21:23:49.993,2664569449,102993,1,1.38135,-0.01807,0.56567,4.351,-5.901,-7.725
2026-06-06 21:23:49.993,2664569449,102993,2,1.31958,-0.25269,0.25464,-15.634,24.382,-8.924
2026-06-06 21:23:49.265,2664568721,103265,1,1.05469,-0.06348,0.52563,-5.779,11.786,-7.595
2026-06-06 21:23:49.265,2664568721,103265,2,0.83984,-0.14502,0.22485,-5.908,2.687,-6.817
2026-06-06 21:23:49.483,2664568939,103483,1,0.64404,0.00903,0.3623,-14.244,4.435,-9.84
2026-06-06 21:23:49.483,2664568939,103483,2,0.63867,-0.09009,0.22339,-3.771,0.206,-4.053
2026-06-06 21:23:50.683,2664570139,103683,1,0.68799,0.05322,0.35132,-2.992,-21.389,-6.336
2026-06-06 21:23:50.683,2664570139,103683,2,1.00195,-0.15552,0.22095,-3.969,-0.298,1.198
2026-06-06 21:23:50.907,2664570363,103907,1,0.94043,0.00708,0.35327,5.718,-7.237,4.756
2026-06-06 21:23:50.907,2664570363,103907,2,1.06665,-0.20117,0.22876,22.084,-4.344,4.412
2026-06-06 21:23:50.124,2664569580,104124,1,0.98315,0.01074,0.34082,11.351,0.733,3.832
2026-06-06 21:23:50.124,2664569580,104124,2,1.06055,-0.16113,0.19897,0.588,-5.725,0.626
2026-06-06 21:23:50.343,2664569799,104343,1,1.01245,0.02441,0.33496,1.802,-0.847,0.809
2026-06-06 21:23:50.343,2664569799,104343,2,1.04785,-0.20215,0.14478,2.267,-5.031,0.939
2026-06-06 21:23:51.616,2664571072,104616,1,1.00293,0.00806,0.31958,-0.802,1.389,-0.405
2026-06-06 21:23:51.616,2664571072,104616,2,1.05322,-0.18384,0.16821,-2.931,3.496,-1.595
2026-06-06 21:23:51.816,2664571272,104816,1,1.02148,0.02783,0.31519,2.122,2.847,0.824
2026-06-06 21:23:51.816,2664571272,104816,2,1.04639,-0.19165,0.13623,-1.031,2.427,-1.359
2026-06-06 21:23:51.070,2664570526,105070,1,1.0127,0.02051,0.3186,1.282,3.748,1.092
2026-06-06 21:23:51.070,2664570526,105070,2,1.0481,-0.19141,0.1626,4.573,7.382,-1.008
2026-06-06 21:23:51.284,2664570740,105284,1,1.00537,0.00952,0.33911,1.336,9.115,1.122
2026-06-06 21:23:51.284,2664570740,105284,2,1.05762,-0.18848,0.16748,-1.275,6.397,-2.252
2026-06-06 21:23:51.484,2664570940,105484,1,1.02686,0.02588,0.33618,2.053,17.145,2.916
2026-06-06 21:23:51.484,2664570940,105484,2,1.0542,-0.18091,0.28149,26.74,42.298,-6.183
2026-06-06 21:23:52.737,2664572193,105737,1,0.86401,0.02026,0.39331,6.603,85.366,9.076
2026-06-06 21:23:52.737,2664572193,105737,2,0.89893,-0.02466,0.5,30.863,102.107,-24.023
2026-06-06 21:23:52.061,2664571517,106061,1,0.38306,-0.0188,0.94238,5.16,95.58,5.595
2026-06-06 21:23:52.061,2664571517,106061,2,0.59741,0.07739,0.88867,16.099,75.305,-20.084
2026-06-06 21:23:52.468,2664571924,106468,1,-0.03394,0.02686,1.12671,4.84,45.008,-6.221
2026-06-06 21:23:52.468,2664571924,106468,2,0.31177,0.17773,1.08105,5.359,32.397,-12.679
2026-06-06 21:23:53.724,2664573180,106724,1,-0.14209,,1.06079,-0.344,17.947,-4.443
2026-06-06 21:23:53.724,2664573180,106724,2,0.20703,0.1958,1.08179,3.58,18.962,-6.992
2026-06-06 21:23:53.924,2664573380,106924,1,-0.15869,0.01392,1.05225,1.557,10.282,-0.809
2026-06-06 21:23:53.924,2664573380,106924,2,0.18457,0.19946,1.08301,1.107,4.206,-2.847
2026-06-06 21:23:53.124,2664572580,107124,1,-0.16675,0.03979,1.05908,5.267,4.504,-0.198
2026-06-06 21:23:53.124,2664572580,107124,2,0.177,0.20923,1.0813,0.649,4.42,-1.626
2026-06-06 21:23:53.403,2664572859,107403,1,-0.16846,0.00708,1.04224,-2.611,3.115,0.29
2026-06-06 21:23:53.403,2664572859,107403,2,0.18286,0.2251,1.09399,-1.145,-1.771,0.046
2026-06-06 21:23:54.657,2664574113,107657,1,-0.19385,0.01147,1.13306,1.733,-13.87,-0.26
2026-06-06 21:23:54.657,2664574113,107657,2,0.22827,0.20728,1.09619,-4.679,-27.557,2.771
2026-06-06 21:23:54.857,2664574313,107857,1,-0.10669,0.00781,1.12207,-0.305,-37.947,-1.916
2026-06-06 21:23:54.857,2664574313,107857,2,0.4585,0.11401,1.01758,-9.588,-65.58,15.626
2026-06-06 21:23:54.115,2664573571,108115,1,0.13208,-0.00903,1.09277,1.695,-72.817,1.298
2026-06-06 21:23:54.115,2664573571,108115,2,0.76196,0.02637,0.78052,-10.74,-74.023,24.557
2026-06-06 21:23:54.315,2664573771,108315,1,0.42139,0.00562,0.88037,1.809,-94.252,-1.183
2026-06-06 21:23:54.315,2664573771,108315,2,0.86963,-0.00562,0.65527,-13.985,-73.176,18.557
2026-06-06 21:23:55.547,2664575003,108547,1,0.75513,0.03345,0.60938,-2.687,-87.122,-6.885
2026-06-06 21:23:55.547,2664575003,108547,2,0.97949,-0.09692,0.42163,-21.786,-69.786,14.901
2026-06-06 21:23:55.799,2664575255,108799,1,0.99658,0.01099,0.3374,-5.954,-50.252,-1.985
2026-06-06 21:23:55.799,2664575255,108799,2,1.05225,-0.14917,0.24146,-11.939,-37.84,15.786
2026-06-06 21:23:55.999,2664575455,108999,1,1.04224,0.00879,0.25146,-7.061,-15.092,-1.099
2026-06-06 21:23:55.999,2664575455,108999,2,1.05151,-0.22632,0.10571,-15.115,12.573,-7.198
2026-06-06 21:23:56.845,2664576301,109845,1,0.98853,0.0293,0.33398,6.099,6.122,-4.595
2026-06-06 21:23:56.845,2664576301,109845,2,1.03931,-0.12573,0.18823,5.443,2.802,-7.244
2026-06-06 21:23:56.202,2664575658,110202,1,0.99561,0.10352,0.38062,1.519,3.924,-0.916
2026-06-06 21:23:56.202,2664575658,110202,2,1.04785,-0.1626,0.16748,-5.733,3.527,-2.519
2026-06-06 21:23:56.477,2664575933,110477,1,0.99707,0.07813,0.35742,2.885,5.481,-0.366
2026-06-06 21:23:56.477,2664575933,110477,2,1.04517,-0.14917,0.18701,3.0,3.267,-2.55
2026-06-06 21:23:57.677,2664577133,110677,1,0.99292,0.09521,0.35938,2.206,3.359,-1.908
2026-06-06 21:23:57.677,2664577133,110677,2,1.0459,-0.14429,0.19238,-5.786,2.557,-5.427
2026-06-06 21:23:57.877,2664577333,110877,1,1.00659,0.08716,0.35986,0.969,1.45,-4.832
2026-06-06 21:23:57.877,2664577333,110877,2,1.05225,-0.1167,0.17944,7.695,-0.634,-4.42
2026-06-06 21:23:57.091,2664576547,111091,1,0.98145,0.1394,0.37524,1.527,2.427,-2.74
2026-06-06 21:23:57.091,2664576547,111091,2,1.05273,-0.073,0.12939,5.45,-2.046,-2.779
2026-06-06 21:23:57.342,2664576798,111342,1,0.99194,0.16675,0.33838,-1.87,-1.588,-4.718
2026-06-06 21:23:57.342,2664576798,111342,2,1.04395,-0.06372,0.16113,-15.29,-1.824,-5.916
2026-06-06 21:23:58.613,2664578069,111613,1,0.96411,0.13232,0.34619,2.695,-5.84,-4.122
2026-06-06 21:23:58.613,2664578069,111613,2,1.08398,-0.02515,0.0459,-6.336,8.901,-13.695
2026-06-06 21:23:58.854,2664578310,111854,1,0.98364,0.26758,0.29443,-0.244,16.382,4.87
2026-06-06 21:23:58.854,2664578310,111854,2,1.03271,0.01074,0.02881,-28.244,17.198,-0.13
2026-06-06 21:23:58.146,2664577602,112146,1,0.96631,0.2749,0.35376,-25.695,9.824,9.45
2026-06-06 21:23:58.146,2664577602,112146,2,1.17871,0.04541,0.1228,-38.198,1.641,17.328
2026-06-06 21:23:58.381,2664577837,112381,1,0.948,0.06421,0.50586,-62.015,19.252,-4.969
2026-06-06 21:23:58.381,2664577837,112381,2,1.0166,-0.24536,0.26099,-65.053,22.557,11.458
2026-06-06 21:23:59.581,2664579037,112581,1,0.90869,-0.13208,0.52417,-59.122,11.282,-18.198
2026-06-06 21:23:59.581,2664579037,112581,1,0.90869,-0.13208,0.52417,-59.122,11.282,-18.198
2026-06-06 21:23:59.581,2664579037,112581,2,1.00122,-0.09424,0.41089,0.893,3.481,-2.916
2026-06-06 21:24:04.807,2664584263,117807,1,0.73022,0.01465,0.77563,2.305,8.771,-0.992
2026-06-06 21:24:04.807,2664584263,117807,2,1.00562,-0.08643,0.41504,-0.336,7.267,-3.214
2026-06-06 21:24:04.007,2664583463,118007,1,0.71875,0.01831,0.78442,-1.382,4.878,-2.29
2026-06-06 21:24:04.007,2664583463,118007,2,1.01685,-0.07031,0.40625,-2.313,4.229,-1.557
2026-06-06 21:24:04.219,2664583675,118218,1,0.71777,0.02832,0.80273,-2.198,3.588,-1.351
2026-06-06 21:24:04.219,2664583675,118218,1,0.71777,0.02832,0.80273,-2.198,3.588,-1.351
2026-06-06 21:24:04.219,2664583675,118218,2,1.02881,-0.25708,0.30884,10.321,-3.176,4.641
2026-06-06 21:24:09.345,2664588801,123345,1,0.86499,-0.14136,0.59302,11.008,2.573,8.702
2026-06-06 21:24:09.345,2664588801,123345,2,1.03955,-0.21948,0.30762,11.221,-3.427,3.0
2026-06-06 21:24:10.545,2664590001,123545,1,0.8479,-0.15454,0.62451,10.626,7.443,5.824
2026-06-06 21:24:10.545,2664590001,123545,2,1.01074,-0.21484,0.30273,18.115,1.099,-1.275
2026-06-06 21:24:10.745,2664590201,123745,1,0.83057,-0.125,0.63721,8.046,4.58,-3.817
2026-06-06 21:24:10.745,2664590201,123745,2,1.03223,-0.21191,0.29932,13.435,-2.466,-5.023
2026-06-06 21:24:10.945,2664590401,123945,1,0.85962,-0.1106,0.6582,12.733,6.084,-2.618
2026-06-06 21:24:10.945,2664590401,123945,1,0.85962,-0.1106,0.6582,12.733,6.084,-2.618
2026-06-06 21:24:10.945,2664590401,123945,2,0.87231,0.0625,0.59033,13.603,82.977,-17.588
2026-06-06 21:24:15.138,2664594594,129138,1,0.47314,-0.05298,0.896,-12.55,95.71,6.534
2026-06-06 21:24:15.138,2664594594,129138,2,0.81348,0.03247,0.72998,12.718,78.794,-20.153
2026-06-06 21:24:15.338,2664594794,129338,1,0.19019,-0.08252,1.14282,1.412,53.802,0.29
2026-06-06 21:24:15.338,2664594794,129338,2,0.6189,0.06641,0.9231,-3.496,35.031,-11.763
2026-06-06 21:24:16.538,2664595994,129538,1,0.12671,-0.04736,1.08154,2.008,22.336,-1.748
2026-06-06 21:24:16.538,2664595994,129538,2,0.56299,0.06128,0.95386,1.863,14.718,-3.672
2026-06-06 21:24:16.748,2664596204,129748,1,0.08984,-0.03906,1.0686,4.481,12.435,0.954
2026-06-06 21:24:16.748,2664596204,129748,2,0.53198,0.09448,0.98755,1.748,7.924,-1.931
2026-06-06 21:24:16.948,2664596404,129948,1,0.06567,-0.021,1.04932,2.893,9.374,0.573
2026-06-06 21:24:16.948,2664596404,129948,2,0.52344,0.08887,1.00586,1.374,8.542,-2.412
2026-06-06 21:24:16.148,2664595604,130148,1,0.02832,-0.03198,1.07056,-1.29,8.427,-0.435
2026-06-06 21:24:16.148,2664595604,130148,2,0.47974,0.0918,1.01001,0.656,4.542,-2.466
2026-06-06 21:24:16.362,2664595818,130362,1,0.02539,-0.03198,1.04688,1.618,4.046,-0.939
2026-06-06 21:24:16.362,2664595818,130362,2,0.46704,0.09961,1.02295,-0.084,3.794,-2.511
2026-06-06 21:24:17.562,2664597018,130562,1,0.01929,-0.03687,1.06128,-0.595,3.992,-1.702
2026-06-06 21:24:17.562,2664597018,130562,1,0.01929,-0.03687,1.06128,-0.595,3.992,-1.702
2026-06-06 21:24:17.562,2664597018,130562,2,1.0437,-0.22681,0.09546,26.092,11.122,-0.962
2026-06-06 21:24:22.742,2664602198,135742,1,0.96484,-0.08276,0.38843,17.214,15.557,7.298
2026-06-06 21:24:22.742,2664602198,135742,2,1.02881,-0.21143,0.1333,6.305,13.023,-5.267
2026-06-06 21:24:22.942,2664602398,135942,1,0.96997,-0.08447,0.3938,24.153,11.626,-0.794
2026-06-06 21:24:22.942,2664602398,135942,2,1.12817,-0.11499,0.17065,20.405,15.145,-13.206
2026-06-06 21:24:22.237,2664601693,136237,1,0.91089,-0.01831,0.51855,1.885,40.16,-8.824
2026-06-06 21:24:22.237,2664601693,136237,2,1.04297,-0.104,0.30518,38.137,19.153,-20.466
2026-06-06 21:24:23.503,2664602959,136503,1,0.80127,0.13403,0.68018,31.588,58.954,-1.534
2026-06-06 21:24:23.503,2664602959,136503,2,1.00195,0.0625,0.39868,37.053,39.641,-27.092
2026-06-06 21:24:23.738,2664603194,136738,1,0.57861,0.22974,0.9248,17.618,35.573,7.58
2026-06-06 21:24:23.738,2664603194,136738,2,0.979,0.21191,0.4563,14.817,13.557,-1.756
2026-06-06 21:24:23.938,2664603394,136938,1,0.57227,0.18579,0.89014,0.916,6.206,12.336
2026-06-06 21:24:23.938,2664603394,136938,2,0.97021,0.20483,0.46436,10.092,4.763,5.519
2026-06-06 21:24:23.138,2664602594,137138,1,0.59277,0.15723,0.87451,4.718,-0.954,7.695
2026-06-06 21:24:23.138,2664602594,137138,2,0.98779,0.15771,0.43896,-9.611,0.115,6.74
2026-06-06 21:24:23.425,2664602881,137425,1,0.63501,0.125,0.86377,-16.221,-1.145,-4.672
2026-06-06 21:24:23.425,2664602881,137425,2,0.9646,0.10034,0.45557,-13.069,2.489,1.321
2026-06-06 21:24:24.643,2664604099,137643,1,0.64331,0.06665,0.8606,-5.855,2.298,-5.443
2026-06-06 21:24:24.643,2664604099,137643,2,0.98218,0.06689,0.48291,-9.183,1.908,-1.115
2026-06-06 21:24:24.950,2664604406,137950,1,0.63794,0.05664,0.85718,-3.595,5.672,-1.137
2026-06-06 21:24:24.950,2664604406,137950,2,0.98657,0.04028,0.46753,-3.427,3.718,0.794
2026-06-06 21:24:24.150,2664603606,138150,1,0.62451,0.03809,0.86377,-1.046,3.267,-0.702
2026-06-06 21:24:24.150,2664603606,138150,2,0.99341,0.04639,0.47168,0.069,0.198,0.237
2026-06-06 21:24:24.350,2664603806,138350,1,0.63306,0.05151,0.83813,-1.603,1.618,-1.496
2026-06-06 21:24:24.350,2664603806,138350,2,0.96021,0.04761,0.51733,-8.489,29.977,-14.076
2026-06-06 21:24:25.641,2664605097,138640,1,0.55371,-0.00659,0.98486,-10.985,50.336,-9.954
2026-06-06 21:24:25.641,2664605097,138640,2,0.90942,0.07324,0.62134,2.374,2.168,1.282
2026-06-06 21:24:25.094,2664604550,139094,1,0.45337,0.01172,0.97607,0.435,0.13,1.794
2026-06-06 21:24:25.094,2664604550,139094,2,0.92188,0.08032,0.61304,-0.092,1.817,1.237
2026-06-06 21:24:25.294,2664604750,139294,1,0.4563,0.00732,0.97485,1.878,-0.183,1.328
2026-06-06 21:24:25.294,2664604750,139294,2,0.91406,0.07886,0.62329,-0.389,-1.382,0.176
2026-06-06 21:24:26.500,2664605956,139500,1,0.46069,0.01123,0.96655,0.435,-2.771,-0.534
2026-06-06 21:24:26.500,2664605956,139500,2,0.91821,0.0603,0.59326,0.107,-1.969,0.947
2026-06-06 21:24:26.751,2664606207,139751,1,0.47852,-0.00464,0.97339,0.656,-8.389,-1.427
2026-06-06 21:24:26.751,2664606207,139751,2,0.9248,0.05322,0.57666,-1.229,-12.092,5.0
2026-06-06 21:24:26.951,2664606407,139951,1,0.58374,0.00732,0.8689,11.244,-17.863,3.252
2026-06-06 21:24:26.951,2664606407,139951,2,0.93945,-0.02271,0.51611,11.176,-18.191,9.519
2026-06-06 21:24:26.151,2664605607,140151,1,0.76611,-0.073,0.69531,24.153,-26.0,0.786
2026-06-06 21:24:26.151,2664605607,140151,2,1.0481,-0.00659,0.44653,8.298,-20.725,-21.275
2026-06-06 21:24:26.367,2664605823,140367,1,0.66675,0.1311,0.78564,49.16,14.687,-4.618
2026-06-06 21:24:26.367,2664605823,140367,2,0.97461,0.17944,0.43555,38.489,-12.244,-28.176
2026-06-06 21:24:27.567,2664607023,140567,1,0.5979,0.42651,0.80591,41.924,16.863,7.435
2026-06-06 21:24:27.567,2664607023,140567,2,0.95972,0.4104,0.41016,27.107,7.725,-9.458
2026-06-06 21:24:27.767,2664607223,140767,1,0.50464,0.47046,0.87036,3.618,12.939,5.374
2026-06-06 21:24:27.767,2664607223,140767,2,0.95166,0.34058,0.35303,4.58,4.397,0.985
2026-06-06 21:24:27.030,2664606486,141030,1,0.552,0.35767,0.84229,7.664,4.198,4.412
2026-06-06 21:24:27.030,2664606486,141030,2,0.94385,0.33813,0.34082,10.244,4.534,1.763
2026-06-06 21:24:27.267,2664606723,141267,1,0.55713,0.37817,0.83569,1.641,2.229,3.191
2026-06-06 21:24:27.267,2664606723,141267,2,0.94727,0.33765,0.36084,-3.748,2.809,1.183
2026-06-06 21:24:27.467,2664606923,141467,1,0.56104,0.36084,0.82739,-7.153,-0.328,-4.084
2026-06-06 21:24:27.467,2664606923,141467,2,0.9729,0.33813,0.36865,-10.534,3.389,1.076
2026-06-06 21:24:28.683,2664608139,141683,1,0.58276,0.30908,0.80542,-15.031,3.573,2.069
2026-06-06 21:24:28.683,2664608139,141683,2,0.96484,0.2998,0.38867,-5.008,-0.313,2.71
2026-06-06 21:24:28.903,2664608359,141903,1,0.55005,0.30835,0.86987,-6.527,2.252,-2.664
2026-06-06 21:24:28.903,2664608359,141903,2,0.94824,0.29614,0.37549,-7.427,1.496,-1.092
2026-06-06 21:24:28.140,2664607596,142140,1,0.56616,0.32202,0.85791,5.878,-0.031,-0.038
2026-06-06 21:24:28.140,2664607596,142140,2,0.97388,0.30029,0.38159,3.718,1.038,0.573
2026-06-06 21:24:28.409,2664607865,142409,1,0.56177,0.33057,0.84985,1.939,1.962,3.756
2026-06-06 21:24:28.409,2664607865,142409,2,0.96289,0.29956,0.38477,0.435,0.588,2.702
2026-06-06 21:24:29.609,2664609065,142609,1,0.56445,0.3103,0.84985,0.924,-0.588,2.244
2026-06-06 21:24:29.609,2664609065,142609,2,0.97241,0.26514,0.38086,5.198,4.229,4.74
2026-06-06 21:24:29.895,2664609351,142895,1,0.59375,0.31152,0.87012,1.153,-12.443,10.924
2026-06-06 21:24:29.895,2664609351,142895,2,0.97534,0.30493,0.36621,-15.275,-11.084,21.58
2026-06-06 21:24:29.144,2664608600,143144,1,0.65112,0.33008,0.78003,-33.038,-29.115,7.504
2026-06-06 21:24:29.144,2664608600,143144,2,1.01294,0.28857,0.35864,-31.573,-6.87,23.954
2026-06-06 21:24:29.381,2664608837,143380,1,0.67773,0.19629,0.79468,-34.679,-16.718,11.275
2026-06-06 21:24:29.381,2664608837,143380,2,1.0293,0.00146,0.37524,-29.885,-8.344,29.008
2026-06-06 21:24:30.674,2664610130,143674,1,0.88013,-0.08813,0.55859,-15.405,-22.527,19.443
2026-06-06 21:24:30.674,2664610130,143674,2,1.07593,-0.22461,0.2561,-29.023,-5.29,22.985
2026-06-06 21:24:30.874,2664610330,143874,1,0.89844,-0.16821,0.50073,-21.473,-10.534,8.771
2026-06-06 21:24:30.874,2664610330,143874,2,1.04614,-0.25977,0.20728,-20.16,-2.496,2.71
2026-06-06 21:24:30.161,2664609617,144161,1,0.94141,-0.14038,0.49268,-16.076,4.328,-7.985
2026-06-06 21:24:30.161,2664609617,144161,2,1.0127,-0.27612,0.20728,-28.221,6.687,-3.634
2026-06-06 21:24:30.361,2664609817,144361,1,0.92065,-0.16162,0.52075,-23.55,14.328,-7.794
2026-06-06 21:24:30.361,2664609817,144361,2,1.03125,-0.25391,0.21338,-20.145,9.26,-2.481
2026-06-06 21:24:31.599,2664611055,144598,1,0.89746,-0.15649,0.55322,-12.092,10.496,-1.45
2026-06-06 21:24:31.599,2664611055,144598,2,1.02856,-0.27173,0.22021,-10.588,11.565,1.977
2026-06-06 21:24:31.846,2664611302,144846,1,0.88257,-0.22144,0.57422,3.214,11.107,11.382
2026-06-06 21:24:31.846,2664611302,144846,2,1.00928,-0.28662,0.25415,11.481,12.603,6.221
2026-06-06 21:24:31.046,2664610502,145046,1,0.8479,-0.26099,0.60034,5.802,12.176,15.534
2026-06-06 21:24:31.046,2664610502,145046,1,0.8479,-0.26099,0.60034,5.802,12.176,15.534
2026-06-06 21:24:31.046,2664610502,145046,2,0.99951,0.2749,0.27002,8.267,2.817,3.748
2026-06-06 21:24:36.214,2664615670,150214,1,0.71094,0.38037,0.71484,-1.626,3.176,6.58
2026-06-06 21:24:36.214,2664615670,150214,2,0.99365,0.28125,0.29248,-5.802,-1.427,4.466
2026-06-06 21:24:36.414,2664615870,150414,1,0.71582,0.36133,0.698,19.282,-2.611,-1.427
2026-06-06 21:24:36.414,2664615870,150414,2,1.01733,0.26147,0.28247,7.275,-0.183,-2.244
2026-06-06 21:24:37.616,2664617072,150616,1,0.72681,0.43408,0.6731,11.809,8.45,4.053
2026-06-06 21:24:37.616,2664617072,150616,2,1.00317,0.28882,0.25317,9.099,2.695,0.473
2026-06-06 21:24:37.816,2664617272,150816,1,0.7002,0.44556,0.68774,6.313,9.031,4.298
2026-06-06 21:24:37.816,2664617272,150816,2,0.99365,0.29517,0.24219,7.832,2.008,-3.328
2026-06-06 21:24:37.016,2664616472,151016,1,0.67896,0.4563,0.69238,-4.191,-0.725,4.87
2026-06-06 21:24:37.016,2664616472,151016,2,0.99463,0.3042,0.23975,-3.176,4.092,4.244
2026-06-06 21:24:37.216,2664616672,151216,1,0.71655,0.45508,0.70068,-20.511,-1.573,-3.74
2026-06-06 21:24:37.216,2664616672,151216,2,0.98657,0.27661,0.22314,-14.679,7.0,3.069
2026-06-06 21:24:37.416,2664616872,151416,1,0.71899,0.37671,0.70386,-10.878,-0.359,-5.412
2026-06-06 21:24:37.416,2664616872,151416,2,0.99438,0.24146,0.28638,-13.985,-4.42,2.771
2026-06-06 21:24:38.616,2664618072,151616,1,0.71875,0.35132,0.70239,-13.069,7.145,-7.916
2026-06-06 21:24:38.616,2664618072,151616,2,0.99609,0.24731,0.28271,-4.924,6.198,-10.435
2026-06-06 21:24:38.816,2664618272,151816,1,0.68188,0.3623,0.75513,1.252,9.397,-10.901
2026-06-06 21:24:38.816,2664618272,151816,2,0.99292,0.29785,0.27466,5.206,0.321,-11.389
2026-06-06 21:24:38.016,2664617472,152016,1,0.63965,0.40088,0.73022,2.641,5.458,-7.733
2026-06-06 21:24:38.016,2664617472,152016,2,0.99023,0.33984,0.28101,-2.038,-0.504,-7.695
2026-06-06 21:24:38.216,2664617672,152216,1,0.64771,0.39185,0.75122,-1.603,0.786,-2.069
2026-06-06 21:24:38.216,2664617672,152216,2,0.97754,0.34277,0.27222,3.206,2.427,-0.359
2026-06-06 21:24:38.455,2664617911,152455,1,0.64893,0.39917,0.75269,3.313,2.122,2.611
2026-06-06 21:24:38.455,2664617911,152455,2,0.97437,0.33887,0.28101,2.931,1.229,1.099
2026-06-06 21:24:39.655,2664619111,152655,1,0.65039,0.40942,0.73755,3.366,7.153,5.382
2026-06-06 21:24:39.655,2664619111,152655,2,0.96924,0.34082,0.28027,1.641,3.626,0.511
2026-06-06 21:24:39.855,2664619311,152855,1,0.64209,0.41797,0.75439,-0.244,3.908,1.725
2026-06-06 21:24:39.855,2664619311,152855,2,0.9856,0.32983,0.29932,-1.954,1.969,2.74
2026-06-06 21:24:39.106,2664618562,153106,1,0.64648,0.37817,0.76147,0.878,3.603,3.969
2026-06-06 21:24:39.106,2664618562,153106,2,0.98657,0.31982,0.30396,1.496,0.718,3.008
2026-06-06 21:24:39.306,2664618762,153306,1,0.64648,0.36719,0.75244,1.191,0.145,3.511
2026-06-06 21:24:39.306,2664618762,153306,2,0.98218,0.31714,0.28149,1.763,2.542,0.863
2026-06-06 21:24:40.510,2664619966,153510,1,0.65381,0.37964,0.7522,0.702,0.725,0.053
2026-06-06 21:24:40.510,2664619966,153510,2,0.97656,0.30859,0.27319,0.55,2.321,-1.298
2026-06-06 21:24:40.710,2664620166,153710,1,0.66089,0.39648,0.75952,0.206,0.634,-1.725
2026-06-06 21:24:40.710,2664620166,153710,2,0.98071,0.31348,0.28882,2.084,1.412,-0.023
2026-06-06 21:24:40.910,2664620366,153910,1,0.66821,0.37451,0.74097,-0.229,-0.58,-0.031
2026-06-06 21:24:40.910,2664620366,153910,2,0.98315,0.3064,0.28735,-0.916,0.435,0.168
2026-06-06 21:24:40.158,2664619614,154158,1,0.67114,0.38281,0.74048,-0.191,1.649,0.458
2026-06-06 21:24:40.158,2664619614,154158,2,0.98071,0.30176,0.29858,-0.45,1.206,-0.092
2026-06-06 21:24:40.398,2664619854,154398,1,0.67065,0.37988,0.75537,0.901,1.893,0.748
2026-06-06 21:24:40.398,2664619854,154398,2,0.98096,0.30469,0.29175,0.641,1.153,0.229
2026-06-06 21:24:41.632,2664621088,154632,1,0.66797,0.37744,0.73486,1.504,2.702,1.588
2026-06-06 21:24:41.632,2664621088,154632,2,0.99097,0.30396,0.2793,0.802,0.634,0.084
2026-06-06 21:24:41.896,2664621352,154895,1,0.6709,0.3833,0.74023,1.29,3.191,1.023
2026-06-06 21:24:41.896,2664621352,154895,2,0.98853,0.30981,0.28418,0.206,1.557,-0.87
2026-06-06 21:24:41.129,2664620585,155129,1,0.66919,0.38086,0.75024,0.275,2.802,-0.756
2026-06-06 21:24:41.129,2664620585,155129,2,0.98535,0.29102,0.28369,-4.275,-0.71,-0.786
2026-06-06 21:24:41.435,2664620891,155435,1,0.66357,0.39819,0.73828,1.405,1.076,-0.26
2026-06-06 21:24:41.435,2664620891,155435,2,0.99609,0.30127,0.27515,0.183,2.443,-0.481
2026-06-06 21:24:42.681,2664622137,155681,1,0.67285,0.37939,0.73584,0.466,2.542,-0.496
2026-06-06 21:24:42.681,2664622137,155681,2,0.9834,0.29517,0.27515,1.45,2.023,-0.252
2026-06-06 21:24:42.882,2664622338,155882,1,0.73462,0.37988,0.61426,-1.466,17.145,1.42
2026-06-06 21:24:42.882,2664622338,155882,2,0.99658,0.26123,0.22729,14.527,17.786,-2.954
2026-06-06 21:24:42.082,2664621538,156082,1,0.6394,0.39258,0.7478,-2.458,-9.443,4.527
2026-06-06 21:24:42.082,2664621538,156082,2,1.0022,0.31104,0.28491,-2.87,-5.588,5.878
2026-06-06 21:24:42.282,2664621738,156282,1,0.71924,0.3501,0.69019,-2.13,-1.328,0.328
2026-06-06 21:24:42.282,2664621738,156282,2,0.99829,0.28394,0.24072,7.252,2.351,-4.122
2026-06-06 21:24:42.482,2664621938,156482,1,0.69556,0.39917,0.71143,1.13,1.015,-0.313
2026-06-06 21:24:42.482,2664621938,156482,2,1.00293,0.29736,0.25562,-0.145,2.29,0.71
2026-06-06 21:24:43.693,2664623149,156693,1,0.71265,0.38867,0.68359,-4.977,-0.664,2.008
2026-06-06 21:24:43.693,2664623149,156693,2,0.99121,0.26904,0.22583,9.916,8.29,-1.466
2026-06-06 21:24:43.893,2664623349,156893,1,0.72778,0.37158,0.69189,-1.878,6.191,3.076
2026-06-06 21:24:43.893,2664623349,156893,2,0.99268,0.27954,0.24927,7.595,5.198,-1.389
2026-06-06 21:24:43.093,2664622549,157093,1,0.68823,0.38916,0.7124,6.183,3.718,2.366
2026-06-06 21:24:43.093,2664622549,157093,2,0.98755,0.27856,0.25928,4.305,3.458,0.359
2026-06-06 21:24:43.293,2664622749,157293,1,0.68286,0.39136,0.73486,7.855,6.046,4.565
2026-06-06 21:24:43.293,2664622749,157293,2,0.98291,0.30005,0.2627,2.878,3.534,2.046
2026-06-06 21:24:44.493,2664623949,157493,1,0.67871,0.3999,0.71338,6.733,1.405,0.962
2026-06-06 21:24:44.493,2664623949,157493,2,0.99438,0.30347,0.26514,1.649,-1.229,0.931
2026-06-06 21:24:44.792,2664624248,157792,1,0.69019,0.3938,0.72217,-3.282,-0.427,-1.359
2026-06-06 21:24:44.792,2664624248,157792,2,0.99756,0.27905,0.2627,-0.221,-1.336,-2.107
2026-06-06 21:24:44.041,2664623497,158041,1,0.69287,0.39258,0.70557,1.504,2.42,-2.466
2026-06-06 21:24:44.041,2664623497,158041,2,0.99023,0.27686,0.24536,-0.084,1.351,-3.015
2026-06-06 21:24:44.241,2664623697,158241,1,0.71094,0.40112,0.70117,-3.366,-0.221,-0.076
2026-06-06 21:24:44.241,2664623697,158241,2,0.9895,0.30811,0.22168,4.069,-1.626,0.237
2026-06-06 21:24:44.473,2664623929,158472,1,0.71265,0.42798,0.68164,7.069,-4.534,-0.664
2026-06-06 21:24:44.473,2664623929,158472,2,0.99097,0.31128,0.21558,-0.74,-6.763,3.206
2026-06-06 21:24:45.672,2664625128,158672,1,0.72388,0.45752,0.67578,-11.519,-11.679,0.679
2026-06-06 21:24:45.672,2664625128,158672,2,0.9917,0.23047,0.18604,-24.931,5.397,8.802
2026-06-06 21:24:45.872,2664625328,158872,1,0.77441,0.40625,0.64136,-26.26,-3.725,-0.679
2026-06-06 21:24:45.872,2664625328,158872,2,0.99902,0.27173,0.26709,-18.099,12.229,10.015
2026-06-06 21:24:45.072,2664624528,159072,1,0.70361,0.32617,0.70874,-29.924,10.588,7.206
2026-06-06 21:24:45.072,2664624528,159072,2,0.99976,0.20044,0.30786,-15.351,2.55,14.504
2026-06-06 21:24:45.339,2664624795,159339,1,0.72144,0.24707,0.7605,-19.809,1.107,12.656
2026-06-06 21:24:45.339,2664624795,159339,2,1.03735,-0.05786,0.3186,-18.634,-5.496,24.168
2026-06-06 21:24:46.852,2664626308,159852,1,0.81982,-0.12549,0.65356,-11.817,-19.588,22.061
2026-06-06 21:24:46.852,2664626308,159852,2,1.0769,-0.30493,0.29395,-19.366,-10.427,13.855
2026-06-06 21:24:46.222,2664625678,160222,1,0.85767,-0.12305,0.65308,46.763,-10.496,23.557
2026-06-06 21:24:46.222,2664625678,160222,2,1.05029,-0.09863,0.24829,19.855,-0.893,4.557
2026-06-06 21:24:46.422,2664625878,160422,1,0.86768,-0.21118,0.51416,-0.176,-22.489,5.145
2026-06-06 21:24:46.422,2664625878,160422,2,1.01392,-0.25952,0.22119,0.687,-12.863,5.511
2026-06-06 21:24:47.622,2664627078,160622,1,0.92847,-0.20923,0.42603,23.763,-4.221,-17.176
2026-06-06 21:24:47.622,2664627078,160622,2,1.07837,-0.26953,0.18408,43.618,-8.664,-20.672
2026-06-06 21:24:47.850,2664627306,160850,1,0.92993,0.09399,0.49658,33.008,5.137,-14.489
2026-06-06 21:24:47.850,2664627306,160850,2,1.08398,0.06763,0.21118,56.733,-1.603,-21.229
2026-06-06 21:24:47.050,2664626506,161050,1,0.8894,0.32446,0.51099,61.992,18.756,4.832
2026-06-06 21:24:47.050,2664626506,161050,2,1.04761,0.10156,0.13306,43.947,-0.588,-17.611
2026-06-06 21:24:47.250,2664626706,161250,1,0.85571,0.34302,0.56909,8.176,12.412,12.313
2026-06-06 21:24:47.250,2664626706,161250,2,1.03442,0.1521,0.23242,16.756,7.756,4.954
2026-06-06 21:24:48.543,2664627999,161543,1,0.85962,0.17358,0.60645,3.389,11.198,12.473
2026-06-06 21:24:48.543,2664627999,161543,2,1.0481,0.09448,0.23438,7.611,4.809,0.733
2026-06-06 21:24:48.743,2664628199,161743,1,0.82959,0.18359,0.62183,-0.489,3.947,0.153
2026-06-06 21:24:48.743,2664628199,161743,2,1.05151,0.0813,0.22144,-9.435,-3.84,-1.779
2026-06-06 21:24:48.943,2664628399,161943,1,0.87964,0.19312,0.58276,2.55,0.351,-2.26
2026-06-06 21:24:48.943,2664628399,161943,2,1.03833,0.09351,0.22705,-7.656,5.305,-3.878
2026-06-06 21:24:48.191,2664627647,162191,1,0.82178,0.20264,0.61768,-11.267,7.046,-10.031
2026-06-06 21:24:48.191,2664627647,162191,2,1.05713,0.09033,0.25171,-13.519,0.832,-5.794
2026-06-06 21:24:48.391,2664627847,162391,1,0.84961,0.1936,0.64307,-10.466,6.145,-13.992
2026-06-06 21:24:48.391,2664627847,162391,2,1.02539,0.13965,0.24585,-13.977,1.427,-9.122
2026-06-06 21:24:49.646,2664629102,162646,1,0.79199,0.23657,0.68262,-22.015,3.985,-20.229
2026-06-06 21:24:49.646,2664629102,162646,2,1.01416,0.16772,0.27344,-28.26,-1.061,-5.489
2026-06-06 21:24:49.877,2664629333,162877,1,0.77271,0.22021,0.70703,-11.55,4.382,-20.42
2026-06-06 21:24:49.877,2664629333,162877,2,1.03394,0.14111,0.24805,-11.687,-2.641,-6.679
2026-06-06 21:24:49.077,2664628533,163077,1,0.76709,0.25244,0.66553,-11.405,-6.496,-12.168
2026-06-06 21:24:49.077,2664628533,163077,2,1.05713,0.05664,0.21094,-22.244,-6.145,5.061
2026-06-06 21:24:49.299,2664628755,163299,1,0.91968,0.17896,0.61401,-3.305,-16.038,-2.389
2026-06-06 21:24:49.299,2664628755,163299,2,1.02441,-0.03735,0.12061,24.481,-11.107,11.427
2026-06-06 21:24:50.503,2664629959,163503,1,0.87354,0.17139,0.50415,25.145,-22.038,18.863
2026-06-06 21:24:50.503,2664629959,163503,2,1.07764,0.05322,0.16113,32.038,-16.74,12.336
2026-06-06 21:24:50.732,2664630188,163732,1,0.92578,0.22827,0.49365,21.382,14.817,12.687
2026-06-06 21:24:50.732,2664630188,163732,2,0.99414,0.07056,0.13354,14.802,16.153,-19.107
2026-06-06 21:24:50.009,2664629465,164008,1,0.78906,0.2312,0.69556,14.939,27.779,-2.351
2026-06-06 21:24:50.009,2664629465,164008,2,1.05493,0.20728,0.14844,32.527,-1.496,-15.466
2026-06-06 21:24:50.208,2664629664,164208,1,0.77051,0.31689,0.65991,18.061,10.718,-9.405
2026-06-06 21:24:50.208,2664629664,164208,2,1.00513,0.22314,0.15479,24.473,5.824,-19.405
2026-06-06 21:24:50.429,2664629885,164429,1,0.72705,0.39282,0.677,13.641,4.359,-2.664
2026-06-06 21:24:50.429,2664629885,164429,2,1.08521,0.32104,0.09399,2.466,-10.061,-2.313
2026-06-06 21:24:51.629,2664631085,164629,1,0.79004,0.44702,0.69556,13.107,0.626,-0.748
2026-06-06 21:24:51.629,2664631085,164629,2,1.10815,0.34375,0.09741,-0.267,-4.634,-4.382
2026-06-06 21:24:51.829,2664631285,164829,1,0.78735,0.55273,0.65942,16.298,2.229,0.16
2026-06-06 21:24:51.829,2664631285,164829,2,0.99292,0.32617,0.09863,1.565,9.336,10.489
2026-06-06 21:24:51.151,2664630607,165151,1,0.61865,0.42529,0.59351,-2.137,1.198,43.534
2026-06-06 21:24:51.151,2664630607,165151,2,0.91089,0.3208,0.14526,36.16,20.008,46.985
2026-06-06 21:24:51.351,2664630807,165351,1,0.85376,0.31543,0.64746,37.26,-24.748,50.679
2026-06-06 21:24:51.351,2664630807,165351,2,1.04956,-0.16162,0.22266,85.504,-7.626,16.992
2026-06-06 21:24:52.621,2664632077,165621,1,1.07837,0.1499,0.44287,42.374,-6.695,8.046
2026-06-06 21:24:52.621,2664632077,165621,2,0.9165,-0.0686,0.21533,-36.198,-8.649,15.313
2026-06-06 21:24:52.822,2664632278,165822,1,0.9707,0.12524,0.41626,1.137,2.313,-3.71
2026-06-06 21:24:52.822,2664632278,165822,2,1.05566,0.01929,0.09399,19.664,9.763,-2.611
2026-06-06 21:24:52.022,2664631478,166022,1,0.97607,0.22778,0.42334,-31.321,-21.122,-24.649
2026-06-06 21:24:52.022,2664631478,166022,2,1.16895,0.05103,0.12769,-43.679,4.55,2.634
2026-06-06 21:24:52.258,2664631714,166258,1,0.88013,0.33472,0.44849,-44.687,-17.328,-4.443
2026-06-06 21:24:52.258,2664631714,166258,2,0.96436,0.10498,0.15186,-83.435,-0.763,10.969
2026-06-06 21:24:52.458,2664631914,166458,1,0.94019,0.0249,0.37744,-79.214,2.656,-6.092
2026-06-06 21:24:52.458,2664631914,166458,2,1.06201,-0.31714,0.12378,-88.519,-13.878,16.313
2026-06-06 21:24:53.658,2664633114,166658,1,1.01221,0.04224,0.27979,-60.313,-20.328,-18.344
2026-06-06 21:24:53.658,2664633114,166658,2,1.07959,-0.22437,0.04468,-56.13,6.557,-7.718
2026-06-06 21:24:53.959,2664633415,166959,1,1.07422,0.03223,0.15869,-51.832,15.695,-24.687
2026-06-06 21:24:53.959,2664633415,166959,2,1.04468,-0.24414,0.01953,-28.557,25.473,-25.198
2026-06-06 21:24:53.183,2664632639,167183,1,1.19507,0.12744,0.39307,-31.542,24.718,-26.137
2026-06-06 21:24:53.183,2664632639,167183,2,0.89819,0.27051,0.44263,-49.893,-14.695,2.321
2026-06-06 21:24:53.446,2664632902,167446,1,0.70923,0.33154,0.74097,3.878,12.282,2.214
2026-06-06 21:24:53.446,2664632902,167446,2,1.01807,0.10352,0.30566,10.466,28.893,3.863
2026-06-06 21:24:54.678,2664634134,167678,1,0.78369,0.21558,0.63525,-7.695,19.634,10.076
2026-06-06 21:24:54.678,2664634134,167678,2,0.99976,0.11548,0.27783,-21.855,10.794,2.939
2026-06-06 21:24:54.111,2664633567,168111,1,0.57739,0.04883,0.91675,2.16,43.229,-10.527
2026-06-06 21:24:54.111,2664633567,168111,2,0.90527,0.12866,0.59839,2.626,10.954,-10.504
2026-06-06 21:24:55.541,2664634997,168541,1,0.46045,0.21069,0.94922,9.107,11.344,-7.008
2026-06-06 21:24:55.541,2664634997,168541,2,0.90161,0.17993,0.61938,4.397,2.198,-6.16
2026-06-06 21:24:55.741,2664635197,168741,1,0.46924,0.23145,0.94971,3.74,3.939,-2.176
2026-06-06 21:24:55.741,2664635197,168741,2,0.89111,0.1665,0.60669,2.847,0.542,0.008
2026-06-06 21:24:55.941,2664635397,168941,1,0.47778,0.22607,0.94141,6.0,3.679,2.115
2026-06-06 21:24:55.941,2664635397,168941,2,0.92163,0.18359,0.60522,1.519,1.496,-0.29
2026-06-06 21:24:55.141,2664634597,169141,1,0.48584,0.21729,0.91089,1.443,-0.611,2.779
2026-06-06 21:24:55.141,2664634597,169141,2,0.90649,0.16553,0.58862,1.191,0.282,1.42
2026-06-06 21:24:55.341,2664634797,169341,1,0.48364,0.22681,0.92285,1.183,2.885,4.328
2026-06-06 21:24:55.341,2664634797,169341,2,0.9248,0.16699,0.57617,4.107,2.679,1.679
2026-06-06 21:24:56.541,2664635997,169541,1,0.48828,0.2373,0.92065,1.656,3.412,4.527
2026-06-06 21:24:56.541,2664635997,169541,2,0.92944,0.15674,0.58008,3.504,2.221,1.153
2026-06-06 21:24:56.806,2664636262,169806,1,0.47778,0.23389,0.91992,1.237,2.145,2.695
2026-06-06 21:24:56.806,2664636262,169806,2,0.927,0.16357,0.58398,1.435,1.824,1.359
2026-06-06 21:24:59.688,2664639144,172688,1,0.48413,0.24902,0.94507,3.389,0.855,3.901
2026-06-06 21:24:59.688,2664639144,172688,2,0.93237,0.15771,0.55957,3.626,-2.916,2.527
2026-06-06 21:24:59.888,2664639344,172888,1,0.50122,0.23462,0.88989,6.0,-4.489,6.687
2026-06-06 21:24:59.888,2664639344,172888,2,0.94629,0.17236,0.53442,4.695,-0.45,1.847
2026-06-06 21:24:59.109,2664638565,173109,1,0.52026,0.25366,0.90332,3.145,0.832,4.672
2026-06-06 21:24:59.109,2664638565,173109,2,0.94995,0.16479,0.52417,5.847,-0.786,2.275
2026-06-06 21:24:59.429,2664638885,173429,1,0.55322,0.24683,0.87817,4.252,-0.244,4.565
2026-06-06 21:24:59.429,2664638885,173429,2,0.9646,0.16357,0.49829,2.344,-0.496,2.115
2026-06-06 21:25:00.688,2664640144,173688,1,0.56079,0.25391,0.87134,2.015,-2.504,1.588
2026-06-06 21:25:00.688,2664640144,173688,2,0.96533,0.1604,0.48901,-0.542,-0.076,0.641
2026-06-06 21:25:00.888,2664640344,173888,1,0.573,0.23633,0.88818,-1.969,-4.366,1.275
2026-06-06 21:25:00.888,2664640344,173888,2,0.96729,0.12744,0.48828,2.076,-0.664,1.061
2026-06-06 21:25:00.088,2664639544,174088,1,0.60718,0.23413,0.85083,-0.137,-6.198,0.679
2026-06-06 21:25:00.088,2664639544,174088,2,0.98633,0.1438,0.48022,-0.282,0.603,1.55
2026-06-06 21:25:00.288,2664639744,174288,1,0.61743,0.23291,0.83838,-5.0,-7.031,0.931
2026-06-06 21:25:00.288,2664639744,174288,2,0.98169,0.12012,0.47974,-3.282,0.168,2.588
2026-06-06 21:25:01.488,2664640944,174488,1,0.6416,0.21606,0.83374,-3.053,0.168,-2.374
2026-06-06 21:25:01.488,2664640944,174488,2,0.9812,0.12134,0.47803,-2.763,2.565,-0.863
2026-06-06 21:25:01.713,2664641169,174712,1,0.64331,0.20654,0.82739,-0.053,1.229,-1.733
2026-06-06 21:25:01.713,2664641169,174712,2,0.98682,0.12207,0.46753,0.649,1.076,-1.176
2026-06-06 21:25:01.944,2664641400,174944,1,0.646,0.20508,0.82617,1.298,1.794,0.771
2026-06-06 21:25:01.944,2664641400,174944,2,0.98267,0.11523,0.46899,-0.26,3.511,-0.244
2026-06-06 21:25:01.214,2664640670,175214,1,0.64453,0.20947,0.81177,-0.756,-2.115,1.565
2026-06-06 21:25:01.214,2664640670,175214,2,0.9834,0.12036,0.46899,-4.008,1.115,-1.107
2026-06-06 21:25:01.214,2664640670,175214,2,0.9834,0.12036,0.46899,-4.008,1.115,-1.107
2026-06-06 21:25:06.371,2664645827,180371,1,0.63086,0.21973,0.8335,0.649,1.939,-0.046
2026-06-06 21:25:06.371,2664645827,180371,2,0.96411,0.13574,0.49438,0.244,1.802,-0.573
2026-06-06 21:25:07.580,2664647036,180580,1,0.6311,0.22559,0.84033,0.924,2.382,-0.076
2026-06-06 21:25:07.580,2664647036,180580,2,0.95923,0.1416,0.49219,-0.672,1.473,-0.557
2026-06-06 21:25:07.780,2664647236,180780,1,0.62305,0.23755,0.82813,1.687,2.008,-0.031
2026-06-06 21:25:07.780,2664647236,180780,2,0.96289,0.13745,0.48438,0.603,2.221,-0.527
2026-06-06 21:25:07.980,2664647436,180980,1,0.63037,0.22559,0.83496,0.229,2.977,0.305
2026-06-06 21:25:07.980,2664647436,180980,2,0.97168,0.13623,0.49805,0.992,1.573,-1.275
2026-06-06 21:25:07.246,2664646702,181246,1,0.62476,0.23486,0.83228,1.977,3.145,0.336
2026-06-06 21:25:07.246,2664646702,181246,2,0.96582,0.14307,0.49072,0.962,2.13,-0.084
2026-06-06 21:25:07.446,2664646902,181446,1,0.62476,0.21045,0.83521,0.076,1.595,0.29
2026-06-06 21:25:07.446,2664646902,181446,2,0.96802,0.13989,0.5105,-1.847,0.527,-0.84
2026-06-06 21:25:08.646,2664648102,181646,1,0.62817,0.22437,0.84204,-1.573,0.863,0.122
2026-06-06 21:25:08.646,2664648102,181646,2,0.96558,0.13867,0.51416,0.252,-0.504,-0.023
2026-06-06 21:25:08.884,2664648340,181884,1,0.63477,0.22778,0.82813,0.908,0.26,0.702
2026-06-06 21:25:08.884,2664648340,181884,1,0.63477,0.22778,0.82813,0.908,0.26,0.702
2026-06-06 21:25:08.884,2664648340,181884,2,1.06201,-0.05542,0.04395,-1.527,0.756,4.176
2026-06-06 21:25:13.130,2664652586,187130,1,1.00586,0.13574,0.27881,-0.962,4.275,9.145
2026-06-06 21:25:13.130,2664652586,187130,2,1.06104,-0.09473,0.05078,8.42,8.794,9.985
2026-06-06 21:25:13.330,2664652786,187330,1,1.01636,0.07739,0.27783,4.0,4.435,8.863
2026-06-06 21:25:13.330,2664652786,187330,2,1.05396,-0.11768,0.09253,-4.382,5.389,1.023
2026-06-06 21:25:14.530,2664653986,187530,1,1.00732,0.08618,0.2981,4.519,4.275,1.282
2026-06-06 21:25:14.530,2664653986,187530,2,1.06201,-0.11597,0.0813,0.13,2.985,-1.656
2026-06-06 21:25:14.736,2664654192,187736,1,1.00562,0.09375,0.30103,0.901,4.939,-0.939
2026-06-06 21:25:14.736,2664654192,187736,2,1.06079,-0.12036,0.09839,0.672,1.947,-1.771
2026-06-06 21:25:14.936,2664654392,187936,1,1.0105,0.10059,0.30396,2.099,2.84,-0.176
2026-06-06 21:25:14.936,2664654392,187936,2,1.05811,-0.10864,0.08618,-1.779,1.282,-1.244
2026-06-06 21:25:14.136,2664653592,188136,1,1.00806,0.10718,0.30981,-0.321,1.939,-0.237
2026-06-06 21:25:14.136,2664653592,188136,2,1.05933,-0.1106,0.09473,-0.84,0.74,-0.786
2026-06-06 21:25:14.341,2664653797,188341,1,1.01245,0.0979,0.29028,-2.115,2.87,-0.115
2026-06-06 21:25:14.341,2664653797,188341,2,1.05371,-0.10645,0.08862,-4.405,2.939,-1.305
2026-06-06 21:25:15.586,2664655042,188586,1,1.01147,0.09473,0.29712,3.626,0.824,2.305
