datetime,epoch_ms,ts_millis,mpu_id,ax,ay,az,gx,gy,gz
2026-06-06T02:51:26.980135,,,,,,,,,
2026-06-06 02:51:28.209,2597827665,6209,1,-0.19482,-0.82056,0.54224,0.954,2.023,0.466
2026-06-06 02:51:28.209,2597827665,6209,2,-0.90088,-0.29834,-0.01538,0.427,1.534,-0.183
2026-06-06 02:51:28.675,2597828131,6674,1,-0.20068,-0.81665,0.54565,0.908,2.473,0.58
2026-06-06 02:51:28.675,2597828131,6674,2,-0.90576,-0.29663,-0.01489,0.656,1.771,-0.947
2026-06-06 02:51:28.099,2597827555,7099,1,-0.19604,-0.80981,0.55176,-0.275,1.328,-0.244
2026-06-06 02:51:28.099,2597827555,7099,2,-0.89795,-0.30127,-0.01563,0.427,1.649,-0.588
2026-06-06 02:51:29.411,2597828867,7411,1,-0.19263,-0.80957,0.55005,-1.359,2.321,1.076
2026-06-06 02:51:29.411,2597828867,7411,2,-0.89893,-0.29761,-0.02026,0.611,1.802,-0.344
2026-06-06 02:51:29.687,2597829143,7687,1,-0.198,-0.81934,0.55786,1.534,2.603,1.107
2026-06-06 02:51:29.687,2597829143,7687,2,-0.89746,-0.29517,-0.01563,0.305,2.298,-0.718
2026-06-06 02:51:29.888,2597829344,7888,1,-0.19849,-0.80859,0.54785,-1.962,2.626,0.931
2026-06-06 02:51:29.888,2597829344,7888,2,-0.89258,-0.30005,-0.02124,0.42,1.267,-0.435
2026-06-06 02:51:29.122,2597828578,8121,1,-0.19165,-0.80713,0.53979,2.275,1.985,-0.038
2026-06-06 02:51:29.122,2597828578,8121,2,-0.89746,-0.30127,-0.01196,0.557,1.534,-0.74
2026-06-06 02:51:30.321,2597829777,8321,1,-0.1936,-0.79492,0.54785,-1.435,3.672,1.443
2026-06-06 02:51:30.321,2597829777,8321,2,-0.89624,-0.29565,-0.02246,0.252,1.786,-0.656
2026-06-06 02:51:30.521,2597829977,8521,1,-0.19995,-0.82275,0.5564,0.473,1.038,-1.008
2026-06-06 02:51:30.521,2597829977,8521,2,-0.89966,-0.29614,-0.01172,0.382,1.908,-0.901
2026-06-06 02:51:30.801,2597830257,8801,1,-0.19678,-0.83545,0.55444,1.565,2.931,0.962
2026-06-06 02:51:30.801,2597830257,8801,2,-0.896,-0.29297,-0.01196,0.389,1.038,-0.153
2026-06-06 02:51:31.157,2597830613,9157,1,-0.19531,-0.823,0.54761,5.092,1.496,-0.023
2026-06-06 02:51:31.157,2597830613,9157,2,-0.90625,-0.29883,-0.01343,0.321,1.603,-0.542
2026-06-06 02:51:31.357,2597830813,9357,1,-0.1875,-0.802,0.55591,2.855,1.489,0.221
2026-06-06 02:51:31.357,2597830813,9357,2,-0.90161,-0.29614,-0.01196,0.305,1.542,-0.412
2026-06-06 02:51:31.557,2597831013,9557,1,-0.20313,-0.8291,0.56445,2.282,1.374,-0.153
2026-06-06 02:51:31.557,2597831013,9557,2,-0.90308,-0.29663,-0.00659,0.489,1.084,-0.443
2026-06-06 02:51:31.757,2597831213,9757,1,-0.19482,-0.81299,0.55469,2.153,1.634,0.275
2026-06-06 02:51:31.757,2597831213,9757,2,-0.90698,-0.2998,-0.01929,0.489,1.779,-0.351
2026-06-06 02:51:31.011,2597830467,10011,1,-0.1958,-0.81177,0.56519,1.557,2.282,0.473
2026-06-06 02:51:31.011,2597830467,10011,2,-0.90723,-0.29541,-0.01733,0.427,1.313,-0.42
2026-06-06 02:51:32.211,2597831667,10211,1,-0.19971,-0.81396,0.56396,1.069,2.595,0.718
2026-06-06 02:51:32.211,2597831667,10211,2,-0.90234,-0.28662,-0.02173,0.45,1.466,-0.534
2026-06-06 02:51:32.447,2597831903,10447,1,-0.19434,-0.81104,0.56958,0.84,2.466,0.489
2026-06-06 02:51:32.447,2597831903,10447,2,-0.90137,-0.29956,-0.01343,0.466,1.603,-0.458
2026-06-06 02:51:32.647,2597832103,10647,1,-0.19946,-0.80957,0.54932,0.565,2.489,0.634
2026-06-06 02:51:32.647,2597832103,10647,2,-0.90527,-0.29492,-0.01099,0.641,1.542,-0.473
2026-06-06 02:51:32.847,2597832303,10847,1,-0.20361,-0.80859,0.54834,0.481,2.496,0.611
2026-06-06 02:51:32.847,2597832303,10847,2,-0.90674,-0.29663,-0.01318,0.519,1.603,-0.336
2026-06-06 02:51:33.623,2597833079,11623,1,-0.19653,-0.80957,0.55835,0.817,2.344,0.58
2026-06-06 02:51:33.623,2597833079,11623,2,-0.90479,-0.29248,-0.01978,0.496,1.695,-0.55
2026-06-06 02:51:35.371,2597834827,13371,1,-0.19922,-0.80908,0.55957,0.687,2.321,0.618
2026-06-06 02:51:35.371,2597834827,13371,2,-0.90259,-0.2937,-0.01147,0.374,1.504,-0.511
2026-06-06 02:51:35.795,2597835251,13795,1,-0.20044,-0.81177,0.5686,0.71,2.336,0.588
2026-06-06 02:51:35.795,2597835251,13795,2,-0.89771,-0.29028,-0.01733,0.618,1.573,-0.397
2026-06-06 02:51:36.496,2597835952,14496,1,-0.20435,-0.81226,0.56445,0.748,2.115,0.611
2026-06-06 02:51:36.496,2597835952,14496,2,-0.89868,-0.29028,-0.01221,0.603,1.702,-0.481
2026-06-06 02:51:36.901,2597836357,14901,1,-0.19922,-0.80908,0.56323,0.802,2.313,0.603
2026-06-06 02:51:36.901,2597836357,14901,2,-0.90674,-0.2959,-0.01147,0.45,1.496,-0.473
2026-06-06 02:51:37.260,2597836716,15260,1,-0.20117,-0.80884,0.5498,0.718,2.305,0.687
2026-06-06 02:51:37.260,2597836716,15260,2,-0.9043,-0.29614,-0.01221,0.443,1.618,-0.527
2026-06-06 02:51:37.460,2597836916,15460,1,-0.19678,-0.81348,0.55835,0.611,2.351,0.573
2026-06-06 02:51:37.460,2597836916,15460,2,-0.90552,-0.29395,-0.01563,0.328,1.573,-0.458
2026-06-06 02:51:37.660,2597837116,15660,1,-0.20093,-0.8064,0.55591,0.756,2.252,0.58
2026-06-06 02:51:37.660,2597837116,15660,2,-0.90649,-0.29395,-0.00903,0.321,1.802,-0.344
2026-06-06 02:51:37.860,2597837316,15860,1,-0.198,-0.81543,0.56396,0.71,2.122,0.611
2026-06-06 02:51:37.860,2597837316,15860,2,-0.90186,-0.30078,-0.00806,0.489,1.435,-0.405
2026-06-06 02:51:37.060,2597836516,16060,1,-0.2002,-0.80786,0.55542,0.817,2.26,0.557
2026-06-06 02:51:37.060,2597836516,16060,2,-0.90088,-0.29419,-0.01343,0.618,1.458,-0.519
2026-06-06 02:51:38.260,2597837716,16260,1,-0.19727,-0.81323,0.55542,0.802,2.153,0.565
2026-06-06 02:51:38.260,2597837716,16260,2,-0.89673,-0.29492,-0.01074,0.573,1.679,-0.443
2026-06-06 02:51:38.460,2597837916,16460,1,-0.20557,-0.80957,0.57104,0.687,2.282,0.618
2026-06-06 02:51:38.460,2597837916,16460,2,-0.90088,-0.29492,-0.01147,0.382,1.427,-0.573
2026-06-06 02:51:38.660,2597838116,16660,1,-0.20117,-0.80981,0.56689,0.672,2.443,0.687
2026-06-06 02:51:38.660,2597838116,16660,2,-0.90161,-0.29688,-0.00854,0.397,1.763,-0.473
2026-06-06 02:51:39.159,2597838615,17159,1,-0.19385,-0.81567,0.55933,0.672,2.237,0.397
2026-06-06 02:51:39.159,2597838615,17159,2,-0.90479,-0.29956,-0.0144,0.359,1.641,-0.718
2026-06-06 02:51:39.377,2597838833,17377,1,-0.19409,-0.8147,0.55103,1.214,2.282,0.511
2026-06-06 02:51:39.377,2597838833,17377,2,-0.90308,-0.28784,-0.01221,0.42,1.771,-0.656
2026-06-06 02:51:39.596,2597839052,17596,1,-0.19995,-0.8042,0.55444,0.519,2.328,0.618
2026-06-06 02:51:39.596,2597839052,17596,2,-0.90308,-0.2937,-0.0127,0.435,1.466,-0.55
2026-06-06 02:51:39.920,2597839376,17920,1,-0.19067,-0.7854,0.55835,-0.931,2.87,0.908
2026-06-06 02:51:39.920,2597839376,17920,2,-0.90137,-0.29248,-0.01099,0.443,1.901,-0.298
2026-06-06 02:51:39.120,2597838576,18120,1,-0.20215,-0.81445,0.5647,1.565,2.244,0.595
2026-06-06 02:51:39.120,2597838576,18120,2,-0.90137,-0.29395,-0.00806,0.275,2.229,-0.809
2026-06-06 02:51:40.329,2597839785,18329,1,-0.19922,-0.80884,0.55103,-0.817,2.321,0.626
2026-06-06 02:51:40.329,2597839785,18329,2,-0.90771,-0.29541,-0.01709,0.443,1.489,-0.511
2026-06-06 02:51:40.529,2597839985,18529,1,-0.19482,-0.80518,0.55273,-0.26,2.13,0.641
2026-06-06 02:51:40.529,2597839985,18529,2,-0.90234,-0.29224,-0.00342,0.611,2.115,-0.611
2026-06-06 02:51:40.729,2597840185,18729,1,-0.20532,-0.82373,0.55005,2.695,2.183,0.252
2026-06-06 02:51:40.729,2597840185,18729,2,-0.90479,-0.29443,-0.02148,0.618,1.58,-0.435
2026-06-06 02:51:40.929,2597840385,18929,1,-0.20117,-0.80981,0.56665,-1.313,2.908,0.855
2026-06-06 02:51:40.929,2597840385,18929,2,-0.90186,-0.29077,-0.01685,0.359,1.427,-0.504
2026-06-06 02:51:41.255,2597840711,19255,1,-0.19995,-0.80957,0.54565,-1.679,2.878,0.748
2026-06-06 02:51:41.255,2597840711,19255,2,-0.9021,-0.29761,-0.02148,0.542,1.336,-0.389
2026-06-06 02:51:41.626,2597841082,19625,1,-0.20337,-0.81616,0.56177,1.412,1.565,0.046
2026-06-06 02:51:41.626,2597841082,19625,2,-0.90259,-0.29688,-0.00684,0.313,1.504,-0.305
2026-06-06 02:51:41.097,2597840553,20097,1,-0.2019,-0.81763,0.56055,5.168,0.939,-0.565
2026-06-06 02:51:41.097,2597840553,20097,2,-0.89893,-0.29248,-0.02539,0.29,1.397,-0.191
2026-06-06 02:51:42.350,2597841806,20350,1,-0.20044,-0.81274,0.5564,0.229,1.817,-0.176
2026-06-06 02:51:42.350,2597841806,20350,2,-0.90503,-0.30225,-0.01196,0.565,1.603,-0.573
2026-06-06 02:51:42.550,2597842006,20550,1,-0.2002,-0.8147,0.57251,1.962,2.618,1.023
2026-06-06 02:51:42.550,2597842006,20550,2,-0.90503,-0.29932,-0.02344,0.45,1.962,-0.763
2026-06-06 02:51:42.750,2597842206,20750,1,-0.20117,-0.81934,0.56641,3.786,1.336,0.092
2026-06-06 02:51:42.750,2597842206,20750,2,-0.90771,-0.29785,-0.01465,0.16,1.71,-0.519
2026-06-06 02:51:42.950,2597842406,20950,1,-0.19556,-0.80591,0.57007,0.992,2.84,0.786
2026-06-06 02:51:42.950,2597842406,20950,2,-0.90723,-0.29761,-0.02075,0.496,1.496,-0.183
2026-06-06 02:51:43.150,2597842606,21150,1,-0.19604,-0.80737,0.55811,1.305,2.71,0.771
2026-06-06 02:51:43.150,2597842606,21150,2,-0.90381,-0.2937,-0.01172,0.443,1.634,-0.672
2026-06-06 02:51:43.350,2597842806,21350,1,-0.20068,-0.82007,0.55249,1.481,1.679,0.214
2026-06-06 02:51:43.350,2597842806,21350,2,-0.90454,-0.30103,-0.01538,0.588,1.847,-0.901
2026-06-06 02:51:43.550,2597843006,21550,1,-0.1936,-0.80298,0.55664,-2.725,2.412,0.519
2026-06-06 02:51:43.550,2597843006,21550,2,-0.896,-0.30078,-0.0166,0.511,2.092,-0.901
2026-06-06 02:51:43.750,2597843206,21750,1,-0.1958,-0.80762,0.55664,2.0,2.832,1.115
2026-06-06 02:51:43.750,2597843206,21750,2,-0.89941,-0.30127,-0.01636,0.244,1.389,0.183
2026-06-06 02:51:43.995,2597843451,21995,1,-0.19873,-0.82666,0.55127,4.053,2.634,0.702
2026-06-06 02:51:43.995,2597843451,21995,2,-0.90137,-0.29663,-0.0105,0.344,1.679,-0.473
2026-06-06 02:51:44.195,2597843651,22195,1,-0.19482,-0.80737,0.55811,-2.519,2.649,0.664
2026-06-06 02:51:44.195,2597843651,22195,2,-0.90283,-0.29614,-0.0127,0.656,1.588,-0.427
2026-06-06 02:51:44.426,2597843882,22426,1,-0.19946,-0.80322,0.56885,0.336,2.435,0.847
2026-06-06 02:51:44.426,2597843882,22426,2,-0.89941,-0.29688,-0.01636,0.282,1.702,-0.374
2026-06-06 02:51:44.626,2597844082,22626,1,-0.20142,-0.81055,0.55371,-3.748,2.618,0.962
2026-06-06 02:51:44.626,2597844082,22626,2,-0.9021,-0.29565,-0.01367,0.336,1.397,-0.374
2026-06-06 02:51:44.826,2597844282,22826,1,-0.19824,-0.81323,0.55884,2.122,2.107,0.588
2026-06-06 02:51:44.826,2597844282,22826,2,-0.90186,-0.29883,-0.02173,0.405,1.824,-0.504
2026-06-06 02:51:44.026,2597843482,23026,1,-0.20117,-0.81006,0.55737,2.115,2.053,0.527
2026-06-06 02:51:44.026,2597843482,23026,2,-0.9043,-0.2959,-0.01392,0.443,1.504,-0.489
2026-06-06 02:51:45.226,2597844682,23226,1,-0.19971,-0.80786,0.5603,0.718,2.45,0.427
2026-06-06 02:51:45.226,2597844682,23226,2,-0.89844,-0.29321,-0.02271,0.397,1.611,-0.366
2026-06-06 02:51:45.426,2597844882,23426,1,-0.20361,-0.80835,0.56543,0.832,2.237,0.672
2026-06-06 02:51:45.426,2597844882,23426,2,-0.89844,-0.30005,-0.01611,0.466,1.771,-0.397
2026-06-06 02:51:45.626,2597845082,23626,1,-0.19873,-0.8064,0.55859,1.053,2.603,0.58
2026-06-06 02:51:45.626,2597845082,23626,2,-0.90161,-0.29565,-0.01343,0.313,1.565,-0.504
2026-06-06 02:51:45.826,2597845282,23826,1,-0.19824,-0.81128,0.5752,0.817,2.328,0.679
2026-06-06 02:51:45.826,2597845282,23826,2,-0.90356,-0.29248,-0.01465,0.481,1.74,-0.282
2026-06-06 02:51:45.026,2597844482,24026,1,-0.20044,-0.80713,0.55859,0.611,2.55,0.71
2026-06-06 02:51:45.026,2597844482,24026,2,-0.90381,-0.30029,-0.01733,0.473,1.679,-0.382
2026-06-06 02:51:46.226,2597845682,24226,1,-0.20679,-0.80713,0.56104,0.908,2.473,0.618
2026-06-06 02:51:46.226,2597845682,24226,2,-0.90552,-0.28735,-0.01221,0.466,1.771,-0.527
2026-06-06 02:51:46.426,2597845882,24426,1,-0.19971,-0.80688,0.56323,0.87,2.397,0.542
2026-06-06 02:51:46.426,2597845882,24426,2,-0.90381,-0.2876,-0.00562,0.603,1.534,-0.618
2026-06-06 02:51:46.648,2597846104,24647,1,-0.20605,-0.80737,0.55933,0.664,2.26,0.504
2026-06-06 02:51:46.648,2597846104,24647,2,-0.90771,-0.29395,-0.01563,0.588,1.618,-0.618
2026-06-06 02:51:46.855,2597846311,24855,1,-0.19995,-0.80444,0.5603,0.672,2.206,0.649
2026-06-06 02:51:46.855,2597846311,24855,2,-0.90625,-0.2959,-0.01538,0.351,1.534,-0.534
2026-06-06 02:51:46.055,2597845511,25055,1,-0.19922,-0.80566,0.55664,0.786,2.374,0.595
2026-06-06 02:51:46.055,2597845511,25055,2,-0.90405,-0.29883,-0.00342,0.45,1.557,-0.282
2026-06-06 02:51:47.651,2597847107,25651,1,-0.20166,-0.80859,0.56934,0.641,2.282,0.534
2026-06-06 02:51:47.651,2597847107,25651,2,-0.90723,-0.29492,-0.00684,0.481,1.763,-0.435
2026-06-06 02:51:48.303,2597847759,26303,1,-0.20166,-0.8064,0.56812,0.786,2.466,0.588
2026-06-06 02:51:48.303,2597847759,26303,2,-0.90234,-0.29785,-0.01196,0.382,1.565,-0.374
2026-06-06 02:51:48.573,2597848029,26573,1,-0.20264,-0.81226,0.56079,0.687,2.382,0.786
2026-06-06 02:51:48.573,2597848029,26573,2,-0.90674,-0.2981,-0.0061,0.466,1.611,-0.573
2026-06-06 02:51:48.880,2597848336,26880,1,-0.20435,-0.80591,0.55664,0.771,2.29,0.534
2026-06-06 02:51:48.880,2597848336,26880,2,-0.89819,-0.29541,-0.01367,0.237,1.573,-0.519
2026-06-06 02:51:49.271,2597848727,27271,1,-0.2041,-0.80981,0.57007,0.733,2.313,0.641
2026-06-06 02:51:49.271,2597848727,27271,2,-0.90869,-0.2959,-0.00195,0.542,1.672,-0.382
2026-06-06 02:51:49.902,2597849358,27902,1,-0.20801,-0.80957,0.56445,0.664,2.42,0.588
2026-06-06 02:51:49.902,2597849358,27902,2,-0.90576,-0.29736,-0.01587,0.305,1.695,-0.481
2026-06-06 02:51:50.373,2597849829,28373,1,-0.20093,-0.80762,0.55322,0.733,2.42,0.603
2026-06-06 02:51:50.373,2597849829,28373,2,-0.90894,-0.2981,-0.00977,0.481,1.557,-0.557
2026-06-06 02:51:50.573,2597850029,28573,1,-0.19824,-0.8064,0.56006,0.733,2.16,0.641
2026-06-06 02:51:50.573,2597850029,28573,2,-0.90088,-0.29102,-0.00659,0.565,1.74,-0.527
2026-06-06 02:51:50.886,2597850342,28886,1,-0.19556,-0.80835,0.55811,1.061,2.351,0.382
2026-06-06 02:51:50.886,2597850342,28886,2,-0.89966,-0.28979,-0.01001,0.435,1.557,-0.511
2026-06-06 02:51:51.208,2597850664,29208,1,-0.19653,-0.80518,0.56152,0.855,2.282,0.588
2026-06-06 02:51:51.208,2597850664,29208,2,-0.90674,-0.29199,-0.01416,0.45,1.718,-0.466
2026-06-06 02:51:51.476,2597850932,29476,1,-0.19995,-0.80493,0.55396,0.664,2.359,0.473
2026-06-06 02:51:51.476,2597850932,29476,2,-0.89917,-0.29028,-0.01563,0.427,1.496,-0.435
2026-06-06 02:51:51.815,2597851271,29815,1,-0.20459,-0.80591,0.55493,0.626,2.405,0.58
2026-06-06 02:51:51.815,2597851271,29815,2,-0.90308,-0.2981,-0.02026,0.527,1.519,-0.45
2026-06-06 02:51:52.167,2597851623,30167,1,-0.20215,-0.80444,0.55396,-1.817,2.71,0.847
2026-06-06 02:51:52.167,2597851623,30167,2,-0.89893,-0.29614,-0.01074,0.435,1.412,-0.282
2026-06-06 02:51:52.580,2597852036,30579,1,-0.20996,-0.7981,0.56567,0.443,1.84,0.344
2026-06-06 02:51:52.580,2597852036,30579,2,-0.9043,-0.29102,-0.021,0.351,1.565,-0.16
2026-06-06 02:51:54.243,2597853699,32243,1,-0.19922,-0.79736,0.56567,0.061,2.237,0.672
2026-06-06 02:51:54.243,2597853699,32243,2,-0.90723,-0.29321,-0.02246,0.42,1.511,-0.153
2026-06-06 02:51:54.936,2597854392,32936,1,-0.19775,-0.81201,0.56982,3.405,2.489,0.626
2026-06-06 02:51:54.936,2597854392,32936,2,-0.90234,-0.30054,-0.02124,0.282,2.191,-0.603
2026-06-06 02:51:54.136,2597853592,33136,1,-0.19507,-0.80933,0.56567,1.557,0.573,-0.817
2026-06-06 02:51:54.136,2597853592,33136,2,-0.90381,-0.29712,-0.01538,0.397,1.695,-0.618
2026-06-06 02:51:55.336,2597854792,33336,1,-0.2002,-0.80591,0.57617,1.992,2.298,0.817
2026-06-06 02:51:55.336,2597854792,33336,2,-0.90283,-0.29639,-0.02002,0.275,1.344,-0.046
2026-06-06 02:51:55.536,2597854992,33536,1,-0.20239,-0.80737,0.56763,1.977,2.87,1.412
2026-06-06 02:51:55.536,2597854992,33536,2,-0.90186,-0.30127,-0.02051,0.313,2.229,-0.931
2026-06-06 02:51:55.736,2597855192,33736,1,-0.19604,-0.81299,0.55249,-0.336,1.779,-0.244
2026-06-06 02:51:55.736,2597855192,33736,2,-0.90112,-0.29492,-0.01514,0.397,1.359,-0.26
2026-06-06 02:51:55.936,2597855392,33936,1,-0.19971,-0.81226,0.56177,0.252,2.939,0.962
2026-06-06 02:51:55.936,2597855392,33936,2,-0.89941,-0.2998,-0.02148,0.328,1.832,-0.275
2026-06-06 02:51:56.583,2597856039,34583,1,-0.20044,-0.82056,0.55981,0.443,2.649,0.748
2026-06-06 02:51:56.583,2597856039,34583,2,-0.90381,-0.29321,-0.01709,0.389,1.466,-0.336
2026-06-06 02:51:58.999,2597858455,36999,1,-0.20239,-0.80835,0.56226,0.641,2.305,0.618
2026-06-06 02:51:58.999,2597858455,36999,2,-0.90454,-0.29541,-0.01343,0.565,1.618,-0.412
2026-06-06 02:51:59.983,2597859439,37983,1,-0.20044,-0.80664,0.57715,0.672,2.252,0.802
2026-06-06 02:51:59.983,2597859439,37983,2,-0.90356,-0.29614,-0.01025,0.557,1.588,-0.435
2026-06-06 02:52:02.382,2597861838,40382,1,-0.19824,-0.80396,0.56274,0.55,2.405,0.656
2026-06-06 02:52:02.382,2597861838,40382,2,-0.89917,-0.29565,-0.01611,0.328,1.542,-0.366
2026-06-06 02:52:02.608,2597862064,40607,1,-0.2041,-0.80518,0.56543,0.672,2.282,0.427
2026-06-06 02:52:02.608,2597862064,40607,2,-0.90967,-0.29785,-0.01782,0.351,1.458,-0.534
2026-06-06 02:52:02.810,2597862266,40810,1,-0.20654,-0.80347,0.5625,0.695,2.489,0.565
2026-06-06 02:52:02.810,2597862266,40810,2,-0.90356,-0.29663,-0.00928,0.435,1.603,-0.405
2026-06-06 02:52:03.563,2597863019,41563,1,-0.19946,-0.80493,0.56104,0.779,2.191,0.603
2026-06-06 02:52:03.563,2597863019,41563,2,-0.90161,-0.29297,-0.00806,0.534,1.687,-0.405
2026-06-06 02:52:03.127,2597862583,42127,1,-0.20508,-0.80444,0.56738,1.191,2.16,0.603
2026-06-06 02:52:03.127,2597862583,42127,2,-0.89722,-0.29785,-0.01953,0.511,1.511,-0.55
2026-06-06 02:52:04.327,2597863783,42327,1,-0.20117,-0.80396,0.55737,1.229,2.397,0.519
2026-06-06 02:52:04.327,2597863783,42327,2,-0.90332,-0.29492,-0.0188,0.443,1.656,-0.611
2026-06-06 02:52:04.527,2597863983,42527,1,-0.20776,-0.7981,0.55957,0.802,2.282,0.511
2026-06-06 02:52:04.527,2597863983,42527,2,-0.89893,-0.29614,-0.00854,0.458,1.74,-0.679
2026-06-06 02:52:04.727,2597864183,42727,1,-0.20264,-0.80444,0.5708,-0.443,2.481,0.725
2026-06-06 02:52:04.727,2597864183,42727,2,-0.90601,-0.29541,-0.02271,0.565,1.656,-0.519
2026-06-06 02:52:05.971,2597865427,43971,1,-0.20264,-0.80444,0.55518,-1.496,2.374,0.702
2026-06-06 02:52:05.971,2597865427,43971,2,-0.90234,-0.30005,-0.02075,0.542,1.405,-0.519
2026-06-06 02:52:07.145,2597866601,45144,1,-0.19775,-0.80005,0.5686,0.931,1.618,0.153
2026-06-06 02:52:07.145,2597866601,45144,2,-0.90552,-0.29907,-0.02441,0.443,1.496,-0.397
2026-06-06 02:52:07.717,2597867173,45717,1,-0.20557,-0.81372,0.54517,-1.466,3.267,0.824
2026-06-06 02:52:07.717,2597867173,45717,2,-0.89941,-0.30298,-0.0332,0.382,1.672,-0.588
2026-06-06 02:52:07.037,2597866493,46037,1,-0.2002,-0.80518,0.55591,2.321,3.183,1.443
2026-06-06 02:52:07.037,2597866493,46037,2,-0.89429,-0.29419,-0.02026,0.389,1.748,-0.473
2026-06-06 02:52:08.237,2597867693,46237,1,-0.19971,-0.78784,0.56299,1.137,1.87,0.061
2026-06-06 02:52:08.237,2597867693,46237,2,-0.8999,-0.30029,-0.01489,0.389,1.893,-1.031
2026-06-06 02:52:08.437,2597867893,46437,1,-0.20068,-0.79639,0.56616,3.038,1.985,0.099
2026-06-06 02:52:08.437,2597867893,46437,2,-0.9021,-0.30542,-0.02246,0.466,1.771,-0.336
2026-06-06 02:52:08.637,2597868093,46637,1,-0.1958,-0.79663,0.57153,-1.763,2.611,0.527
2026-06-06 02:52:08.637,2597868093,46637,2,-0.90503,-0.29639,-0.01611,0.519,1.58,-0.733
2026-06-06 02:52:08.837,2597868293,46837,1,-0.19971,-0.80957,0.56274,-0.328,2.168,0.443
2026-06-06 02:52:08.837,2597868293,46837,2,-0.90039,-0.302,-0.01343,0.511,1.611,-0.565
2026-06-06 02:52:08.037,2597867493,47037,1,-0.19238,-0.78931,0.56274,0.382,3.206,1.267
2026-06-06 02:52:08.037,2597867493,47037,2,-0.90625,-0.30078,-0.03101,0.275,1.618,-0.328
2026-06-06 02:52:09.237,2597868693,47237,1,-0.19385,-0.77759,0.57813,-2.641,2.824,1.366
2026-06-06 02:52:09.237,2597868693,47237,2,-0.8999,-0.2998,-0.01514,0.412,1.191,-0.802
2026-06-06 02:52:09.437,2597868893,47437,1,-0.20068,-0.79053,0.58496,2.603,1.534,-0.053
2026-06-06 02:52:09.437,2597868893,47437,2,-0.90308,-0.29102,-0.02197,0.427,1.221,0.084
2026-06-06 02:52:09.637,2597869093,47637,1,-0.19751,-0.82202,0.55176,0.626,2.733,1.099
2026-06-06 02:52:09.637,2597869093,47637,2,-0.8999,-0.30273,-0.02148,0.366,1.527,-0.481
2026-06-06 02:52:09.837,2597869293,47837,1,-0.20288,-0.80225,0.5625,0.061,2.885,0.924
2026-06-06 02:52:09.837,2597869293,47837,2,-0.90747,-0.29663,-0.01538,0.603,1.038,-0.412
2026-06-06 02:52:09.037,2597868493,48037,1,-0.19849,-0.7998,0.56201,0.779,2.198,0.466
2026-06-06 02:52:09.037,2597868493,48037,2,-0.89624,-0.29541,-0.0144,0.618,1.695,-0.466
2026-06-06 02:52:10.394,2597869850,48393,1,-0.20142,-0.8064,0.57544,-0.214,2.565,0.618
2026-06-06 02:52:10.394,2597869850,48393,2,-0.9043,-0.29395,-0.02051,0.359,1.42,-0.382
2026-06-06 02:52:10.787,2597870243,48787,1,-0.20703,-0.81152,0.56982,0.611,2.29,0.519
2026-06-06 02:52:10.787,2597870243,48787,2,-0.90576,-0.29443,-0.02393,0.466,1.641,-0.496
2026-06-06 02:52:10.040,2597869496,49040,1,-0.20361,-0.8125,0.5625,0.84,2.359,0.664
2026-06-06 02:52:10.040,2597869496,49040,2,-0.90503,-0.29785,-0.01221,0.282,1.565,-0.412
2026-06-06 02:52:11.451,2597870907,49451,1,-0.20703,-0.80933,0.56787,0.542,2.405,0.55
2026-06-06 02:52:11.451,2597870907,49451,2,-0.90137,-0.29443,-0.02197,0.504,1.695,-0.511
2026-06-06 02:52:11.845,2597871301,49845,1,-0.19971,-0.80566,0.56128,0.885,2.397,0.641
2026-06-06 02:52:11.845,2597871301,49845,2,-0.90112,-0.29272,-0.01343,0.366,1.565,-0.481
2026-06-06 02:52:11.045,2597870501,50045,1,-0.20508,-0.80347,0.56812,0.687,2.26,0.504
2026-06-06 02:52:11.045,2597870501,50045,2,-0.90234,-0.2937,-0.01807,0.366,1.687,-0.405
2026-06-06 02:52:12.245,2597871701,50245,1,-0.20264,-0.80127,0.5647,0.573,2.267,0.603
2026-06-06 02:52:12.245,2597871701,50245,2,-0.90137,-0.29517,-0.01807,0.511,1.687,-0.405
2026-06-06 02:52:12.445,2597871901,50445,1,-0.20288,-0.80371,0.55835,0.725,2.458,0.466
2026-06-06 02:52:12.445,2597871901,50445,2,-0.89893,-0.29688,-0.01416,0.511,1.679,-0.504
2026-06-06 02:52:12.727,2597872183,50727,1,-0.19849,-0.80396,0.56494,0.832,2.389,0.42
2026-06-06 02:52:12.727,2597872183,50727,2,-0.90063,-0.29907,-0.02148,0.313,1.718,-0.29
2026-06-06 02:52:12.927,2597872383,50927,1,-0.20728,-0.80273,0.56372,0.847,2.282,0.634
2026-06-06 02:52:12.927,2597872383,50927,2,-0.89893,-0.29541,-0.0127,0.427,1.672,-0.45
2026-06-06 02:52:12.127,2597871583,51127,1,-0.19849,-0.80176,0.56689,0.916,2.336,0.214
2026-06-06 02:52:12.127,2597871583,51127,2,-0.89844,-0.29907,-0.01733,0.489,1.527,-0.321
2026-06-06 02:52:13.537,2597872993,51536,1,-0.20215,-0.79956,0.55786,0.641,2.26,0.466
2026-06-06 02:52:13.537,2597872993,51536,2,-0.90015,-0.29443,-0.02295,0.275,1.588,-0.611
2026-06-06 02:52:13.109,2597872565,52109,1,-0.20874,-0.80078,0.5625,0.664,2.359,0.481
2026-06-06 02:52:13.109,2597872565,52109,2,-0.90967,-0.29443,-0.0166,0.496,1.664,-0.557
2026-06-06 02:52:14.388,2597873844,52388,1,-0.20703,-0.8064,0.55664,0.618,2.336,0.55
2026-06-06 02:52:14.388,2597873844,52388,2,-0.90625,-0.29492,-0.01147,0.443,1.756,-0.412
2026-06-06 02:52:14.920,2597874376,52920,1,-0.20483,-0.80469,0.56982,0.832,2.344,0.618
2026-06-06 02:52:14.920,2597874376,52920,2,-0.90698,-0.29443,-0.02393,0.344,1.656,-0.595
2026-06-06 02:52:15.150,2597874606,53150,1,-0.20728,-0.80713,0.56567,0.756,2.374,0.664
2026-06-06 02:52:15.150,2597874606,53150,2,-0.90259,-0.28589,-0.01953,0.366,1.672,-0.519
2026-06-06 02:52:15.384,2597874840,53384,1,-0.2063,-0.80908,0.56641,0.641,2.321,0.542
2026-06-06 02:52:15.384,2597874840,53384,2,-0.89917,-0.29907,-0.02271,0.305,1.695,-0.672
2026-06-06 02:52:15.584,2597875040,53584,1,-0.20337,-0.80347,0.56323,0.588,2.237,0.679
2026-06-06 02:52:15.584,2597875040,53584,2,-0.90381,-0.30273,-0.01929,0.427,1.611,-0.389
2026-06-06 02:52:15.784,2597875240,53784,1,-0.20386,-0.80493,0.56079,0.725,2.443,0.557
2026-06-06 02:52:15.784,2597875240,53784,2,-0.89795,-0.29688,-0.00635,0.405,1.634,-0.473
2026-06-06 02:52:15.015,2597874471,54014,1,-0.20313,-0.80371,0.5686,0.87,2.198,0.565
2026-06-06 02:52:15.015,2597874471,54014,2,-0.90088,-0.2937,-0.01929,0.427,1.519,-0.557
2026-06-06 02:52:16.214,2597875670,54214,1,-0.19995,-0.80469,0.57739,0.687,2.221,0.458
2026-06-06 02:52:16.214,2597875670,54214,2,-0.89868,-0.29712,-0.01465,0.42,1.687,-0.328
2026-06-06 02:52:16.495,2597875951,54495,1,-0.20337,-0.8042,0.5603,0.863,2.511,0.748
2026-06-06 02:52:16.495,2597875951,54495,2,-0.89917,-0.29297,-0.00928,0.511,1.656,-0.481
2026-06-06 02:52:16.911,2597876367,54911,1,-0.20508,-0.8103,0.57007,0.832,2.275,0.55
2026-06-06 02:52:16.911,2597876367,54911,2,-0.89844,-0.29126,-0.0188,0.29,1.71,-0.405
2026-06-06 02:52:17.351,2597876807,55351,1,-0.21509,-0.81274,0.55566,0.588,2.382,0.702
2026-06-06 02:52:17.351,2597876807,55351,2,-0.89746,-0.29834,-0.0105,0.435,1.481,-0.588
2026-06-06 02:52:17.551,2597877007,55551,1,-0.20581,-0.80591,0.56812,3.191,2.107,0.237
2026-06-06 02:52:17.551,2597877007,55551,2,-0.89551,-0.30249,-0.00928,0.481,1.573,-0.649
2026-06-06 02:52:17.751,2597877207,55751,1,-0.20239,-0.80835,0.56958,0.718,2.298,0.908
2026-06-06 02:52:17.751,2597877207,55751,2,-0.90552,-0.29688,-0.01343,0.634,1.275,-0.55
2026-06-06 02:52:17.951,2597877407,55951,1,-0.20557,-0.80078,0.58105,2.13,1.847,0.382
2026-06-06 02:52:17.951,2597877407,55951,2,-0.8999,-0.30029,-0.02051,0.29,1.649,-0.328
2026-06-06 02:52:18.151,2597877607,56151,1,-0.20361,-0.79761,0.58008,4.038,1.489,-0.176
2026-06-06 02:52:18.151,2597877607,56151,2,-0.90137,-0.29395,-0.01855,0.527,2.168,-0.733
2026-06-06 02:52:18.351,2597877807,56351,1,-0.20386,-0.78442,0.58228,4.115,2.336,0.702
2026-06-06 02:52:18.351,2597877807,56351,2,-0.90405,-0.29443,-0.02075,0.504,1.374,-0.656
2026-06-06 02:52:18.551,2597878007,56551,1,-0.2041,-0.80225,0.55518,4.305,1.641,0.229
2026-06-06 02:52:18.551,2597878007,56551,2,-0.89868,-0.29663,-0.01807,0.366,1.328,-0.466
2026-06-06 02:52:18.751,2597878207,56751,1,-0.20752,-0.81909,0.56104,0.702,2.779,0.672
2026-06-06 02:52:18.751,2597878207,56751,2,-0.90063,-0.29663,-0.01758,0.534,1.573,-0.458
2026-06-06 02:52:18.094,2597877550,57094,1,-0.20557,-0.83154,0.54956,5.87,1.817,0.473
2026-06-06 02:52:18.094,2597877550,57094,2,-0.90283,-0.29785,-0.0127,0.336,2.183,-0.527
2026-06-06 02:52:19.294,2597878750,57294,1,-0.19702,-0.80322,0.56836,-2.359,2.29,0.405
2026-06-06 02:52:19.294,2597878750,57294,2,-0.9021,-0.29321,-0.0188,0.374,1.924,-0.679
2026-06-06 02:52:19.513,2597878969,57513,1,-0.20337,-0.79053,0.57666,2.45,2.282,0.229
2026-06-06 02:52:19.513,2597878969,57513,2,-0.90283,-0.29761,-0.02612,0.588,1.16,-0.267
2026-06-06 02:52:19.717,2597879173,57717,1,-0.20825,-0.81079,0.55005,0.542,2.809,1.076
2026-06-06 02:52:19.717,2597879173,57717,2,-0.89795,-0.29419,-0.01172,0.42,1.725,-0.282
2026-06-06 02:52:19.933,2597879389,57933,1,-0.19873,-0.80078,0.54907,1.198,1.924,0.237
2026-06-06 02:52:19.933,2597879389,57933,2,-0.90552,-0.302,-0.01953,0.443,1.603,-0.557
2026-06-06 02:52:20.276,2597879732,58276,1,-0.19971,-0.80176,0.57129,-0.763,2.198,0.511
2026-06-06 02:52:20.276,2597879732,58276,2,-0.9043,-0.29395,-0.02539,0.481,1.328,-0.26
2026-06-06 02:52:20.476,2597879932,58476,1,-0.20483,-0.80933,0.56934,5.267,1.489,0.038
2026-06-06 02:52:20.476,2597879932,58476,2,-0.90405,-0.30176,-0.01709,0.328,1.809,-0.695
2026-06-06 02:52:20.676,2597880132,58676,1,-0.20166,-0.80786,0.56812,2.237,2.595,0.588
2026-06-06 02:52:20.676,2597880132,58676,2,-0.90771,-0.2981,-0.01392,0.405,1.45,-0.267
2026-06-06 02:52:20.876,2597880332,58876,1,-0.20068,-0.79932,0.56982,3.618,1.893,0.229
2026-06-06 02:52:20.876,2597880332,58876,2,-0.90088,-0.30127,-0.03003,0.252,1.794,-0.466
2026-06-06 02:52:20.076,2597879532,59076,1,-0.20068,-0.80396,0.56763,0.687,1.321,-0.489
2026-06-06 02:52:20.076,2597879532,59076,2,-0.90088,-0.30737,-0.02075,0.321,1.588,-0.305
2026-06-06 02:52:21.301,2597880757,59301,1,-0.20166,-0.79761,0.55835,-2.763,2.511,0.321
2026-06-06 02:52:21.301,2597880757,59301,2,-0.89771,-0.29297,-0.02563,0.321,1.351,-0.336
2026-06-06 02:52:21.501,2597880957,59501,1,-0.19629,-0.79932,0.56421,-2.863,2.725,1.176
2026-06-06 02:52:21.501,2597880957,59501,2,-0.90137,-0.29663,-0.01929,0.405,2.221,-0.687
2026-06-06 02:52:21.746,2597881202,59746,1,-0.19849,-0.80566,0.56274,1.305,2.756,1.008
2026-06-06 02:52:21.746,2597881202,59746,2,-0.91016,-0.2998,-0.01489,0.664,1.405,-0.313
2026-06-06 02:52:21.948,2597881404,59948,1,-0.19897,-0.8125,0.55347,0.076,3.305,1.489
2026-06-06 02:52:21.948,2597881404,59948,2,-0.89819,-0.29663,-0.01904,0.473,1.618,-0.573
2026-06-06 02:52:22.148,2597881604,60148,1,-0.20142,-0.80298,0.56641,1.977,2.985,0.878
2026-06-06 02:52:22.148,2597881604,60148,2,-0.90283,-0.30078,-0.02222,0.389,2.229,-0.542
2026-06-06 02:52:22.348,2597881804,60348,1,-0.20776,-0.81738,0.573,-2.466,2.695,0.809
2026-06-06 02:52:22.348,2597881804,60348,2,-0.90503,-0.29761,-0.01685,0.443,1.939,-0.45
2026-06-06 02:52:22.548,2597882004,60548,1,-0.2063,-0.80396,0.57471,3.55,1.733,0.168
2026-06-06 02:52:22.548,2597882004,60548,2,-0.90698,-0.29639,-0.01831,0.595,1.595,-0.489
2026-06-06 02:52:22.748,2597882204,60748,1,-0.20752,-0.80981,0.5647,-0.603,2.618,0.55
2026-06-06 02:52:22.748,2597882204,60748,2,-0.90161,-0.29761,-0.0188,0.244,1.649,-0.527
2026-06-06 02:52:23.285,2597882741,61285,1,-0.20361,-0.80249,0.55811,0.939,2.405,0.504
2026-06-06 02:52:23.285,2597882741,61285,2,-0.90332,-0.29712,-0.00659,0.389,1.588,-0.412
2026-06-06 02:52:23.673,2597883129,61672,1,-0.20825,-0.80347,0.56616,0.885,2.328,0.504
2026-06-06 02:52:23.673,2597883129,61672,2,-0.90503,-0.29956,-0.02344,0.359,1.595,-0.511
2026-06-06 02:52:23.875,2597883331,61874,1,-0.19922,-0.80249,0.56152,0.702,2.351,0.679
2026-06-06 02:52:23.875,2597883331,61874,2,-0.90283,-0.29688,-0.01221,0.328,1.664,-0.344
2026-06-06 02:52:23.074,2597882530,62074,1,-0.2063,-0.80151,0.56934,0.908,2.336,0.603
2026-06-06 02:52:23.074,2597882530,62074,2,-0.90088,-0.29956,-0.01978,0.489,1.504,-0.466
2026-06-06 02:52:24.274,2597883730,62274,1,-0.20288,-0.80298,0.57544,0.809,2.344,0.496
2026-06-06 02:52:24.274,2597883730,62274,2,-0.89819,-0.30127,-0.01709,0.29,1.672,-0.275
2026-06-06 02:52:24.474,2597883930,62474,1,-0.20703,-0.80103,0.56738,0.687,2.42,0.595
2026-06-06 02:52:24.474,2597883930,62474,2,-0.90479,-0.30005,-0.01782,0.366,1.649,-0.679
2026-06-06 02:52:24.674,2597884130,62674,1,-0.20459,-0.80811,0.57129,0.756,2.214,0.55
2026-06-06 02:52:24.674,2597884130,62674,2,-0.9043,-0.29639,-0.01709,0.511,1.725,-0.427
2026-06-06 02:52:24.874,2597884330,62874,1,-0.20337,-0.80469,0.57104,0.802,2.366,0.58
2026-06-06 02:52:24.874,2597884330,62874,2,-0.90601,-0.29614,-0.01611,0.58,1.412,-0.412
2026-06-06 02:52:24.074,2597883530,63074,1,-0.2085,-0.80225,0.55762,0.748,2.275,0.534
2026-06-06 02:52:24.074,2597883530,63074,2,-0.90234,-0.29907,-0.02051,0.374,1.595,-0.481
2026-06-06 02:52:25.274,2597884730,63274,1,-0.2041,-0.79932,0.5708,0.687,2.328,0.481
2026-06-06 02:52:25.274,2597884730,63274,2,-0.90381,-0.29321,-0.0105,0.405,1.71,-0.542
2026-06-06 02:52:25.622,2597885078,63622,1,-0.20581,-0.80127,0.56396,0.679,2.26,0.511
2026-06-06 02:52:25.622,2597885078,63622,2,-0.90332,-0.29932,-0.01489,0.359,1.695,-0.473
2026-06-06 02:52:25.989,2597885445,63989,1,-0.20239,-0.80664,0.56665,0.832,2.511,0.511
2026-06-06 02:52:25.989,2597885445,63989,2,-0.90674,-0.29419,-0.01172,0.397,1.725,-0.397
2026-06-06 02:52:26.323,2597885779,64323,1,-0.20068,-0.80127,0.57593,0.595,2.366,0.542
2026-06-06 02:52:26.323,2597885779,64323,2,-0.90088,-0.29517,-0.01904,0.55,1.649,-0.427
2026-06-06 02:52:26.589,2597886045,64588,1,-0.2041,-0.80542,0.573,0.626,2.321,0.481
2026-06-06 02:52:26.589,2597886045,64588,2,-0.89746,-0.30176,-0.00537,0.443,1.679,-0.374
2026-06-06 02:52:26.834,2597886290,64834,1,-0.20776,-0.7959,0.56519,0.771,2.412,0.679
2026-06-06 02:52:26.834,2597886290,64834,2,-0.90063,-0.30347,-0.01392,0.389,1.618,-0.641
2026-06-06 02:52:26.034,2597885490,65034,1,-0.20679,-0.80176,0.55859,0.634,2.298,0.55
2026-06-06 02:52:26.034,2597885490,65034,2,-0.90576,-0.2981,-0.0188,0.473,2.237,-0.71
2026-06-06 02:52:28.330,2597887786,66330,1,-0.19702,-0.80273,0.59058,7.13,0.466,1.076
2026-06-06T02:53:46.845702,,,,,,,,,
2026-06-06T02:54:27.051857,,,,,,,,,
2026-06-06 02:54:28.314,2598007770,10314,1,-0.22827,-0.80713,0.54688,1.542,2.176,0.573
2026-06-06 02:54:28.314,2598007770,10314,2,-0.90039,-0.3291,-0.01196,0.328,1.786,-0.458
2026-06-06 02:54:29.015,2598008471,11015,1,-0.22803,-0.80493,0.54736,0.985,2.237,0.466
2026-06-06 02:54:29.015,2598008471,11015,2,-0.89307,-0.32788,-0.00391,0.45,1.412,-0.26
2026-06-06 02:54:29.739,2598009195,11739,1,-0.23193,-0.80518,0.55347,1.099,2.45,0.618
2026-06-06 02:54:29.739,2598009195,11739,2,-0.89038,-0.32959,-0.00586,0.573,1.718,-0.656
2026-06-06 02:54:32.373,2598011829,14373,1,-0.22949,-0.81421,0.54956,0.763,2.183,0.519
2026-06-06 02:54:32.373,2598011829,14373,2,-0.88745,-0.32593,-0.0022,0.45,1.573,-0.534
2026-06-06 02:54:33.752,2598013208,15751,1,-0.2229,-0.80444,0.55054,0.672,2.282,0.458
2026-06-06 02:54:33.752,2598013208,15751,2,-0.89771,-0.32813,-0.01123,0.557,1.611,-0.435
2026-06-06 02:54:33.752,2598013208,15751,2,-0.89771,-0.32813,-0.01123,0.557,1.611,-0.435
2026-06-06 02:54:39.450,2598018906,21449,1,-0.22778,-0.81396,0.53906,0.718,2.573,0.84
2026-06-06 02:54:39.450,2598018906,21449,2,-0.896,-0.32349,-0.01172,0.267,2.084,-0.573
2026-06-06 02:54:39.667,2598019123,21667,1,-0.22388,-0.81226,0.54443,1.534,1.985,0.359
2026-06-06 02:54:39.667,2598019123,21667,2,-0.89233,-0.33228,-0.01001,0.45,1.863,-0.527
2026-06-06 02:54:39.867,2598019323,21867,1,-0.22876,-0.81104,0.54419,0.725,2.412,0.611
2026-06-06 02:54:39.867,2598019323,21867,2,-0.89453,-0.33472,-0.01782,0.298,1.893,-0.473
2026-06-06 02:54:40.067,2598019523,22067,1,-0.22192,-0.78882,0.552,-0.603,2.863,1.168
2026-06-06 02:54:40.067,2598019523,22067,2,-0.88501,-0.33374,0.00635,0.405,1.641,-0.649
2026-06-06 02:54:40.267,2598019723,22267,1,-0.22607,-0.8103,0.53467,-2.519,2.221,0.511
2026-06-06 02:54:40.267,2598019723,22267,2,-0.89258,-0.32813,-0.00708,0.427,1.786,-0.71
2026-06-06 02:54:40.467,2598019923,22467,1,-0.22998,-0.81543,0.53394,1.817,2.305,0.382
2026-06-06 02:54:40.467,2598019923,22467,1,-0.22998,-0.81543,0.53394,1.817,2.305,0.382
2026-06-06 02:54:40.467,2598019923,22467,2,-0.89209,-0.32813,-0.00562,0.397,1.603,-0.344
2026-06-06 02:54:40.467,2598019923,22467,2,-0.89209,-0.32813,-0.00562,0.397,1.603,-0.344
2026-06-06 02:55:00.576,2598040032,42576,1,-0.23364,-0.8064,0.54053,0.84,2.374,0.511
2026-06-06 02:55:00.576,2598040032,42576,1,-0.23364,-0.8064,0.54053,0.84,2.374,0.511
2026-06-06 02:55:00.576,2598040032,42576,2,-0.89331,-0.33105,-0.00317,0.405,1.511,-0.588
2026-06-06 02:55:00.576,2598040032,42576,2,-0.89331,-0.33105,-0.00317,0.405,1.511,-0.588
2026-06-06 02:55:20.691,2598060147,62691,1,-0.22339,-0.81152,0.53638,1.053,2.344,0.412
2026-06-06 02:55:20.691,2598060147,62691,1,-0.22339,-0.81152,0.53638,1.053,2.344,0.412
2026-06-06 02:55:20.691,2598060147,62691,2,-0.89502,-0.32642,-0.01318,0.595,1.649,-0.595
2026-06-06 02:55:20.691,2598060147,62691,2,-0.89502,-0.32642,-0.01318,0.595,1.649,-0.595
2026-06-06 02:55:30.865,2598070321,72865,1,-0.22827,-0.80933,0.54614,0.87,2.023,0.443
2026-06-06 02:55:30.865,2598070321,72865,1,-0.22827,-0.80933,0.54614,0.87,2.023,0.443
2026-06-06 02:55:30.865,2598070321,72865,2,-0.89429,-0.33398,-0.0061,0.435,1.603,-0.107
2026-06-06 02:55:42.501,2598081957,84500,1,-0.23511,-0.80591,0.55029,1.29,2.382,0.641
2026-06-06 02:55:42.501,2598081957,84500,1,-0.23511,-0.80591,0.55029,1.29,2.382,0.641
2026-06-06 02:55:42.501,2598081957,84500,2,-0.89404,-0.32959,-0.00439,0.29,1.481,-0.366
2026-06-06 02:55:42.501,2598081957,84500,2,-0.89404,-0.32959,-0.00439,0.29,1.481,-0.366
2026-06-06 02:55:52.905,2598092361,94905,1,-0.23267,-0.80908,0.54053,1.321,2.244,0.496
2026-06-06 02:55:52.905,2598092361,94905,1,-0.23267,-0.80908,0.54053,1.321,2.244,0.496
2026-06-06 02:56:13.974,2598113430,114974,2,-0.88208,-0.35742,-0.03662,0.443,2.023,-0.206
2026-06-06T02:56:35.591073,,,,,,,,,
2026-06-06 02:56:13.974,2598113430,114974,2,-0.88208,-0.35742,-0.03662,0.443,2.023,-0.206
2026-06-06 02:56:35.642,2598135098,137642,1,-0.24731,-0.79175,0.55811,1.122,2.137,0.374
2026-06-06 02:56:35.642,2598135098,137642,1,-0.24731,-0.79175,0.55811,1.122,2.137,0.374
2026-06-06 02:56:35.642,2598135098,137642,2,-0.87744,-0.36792,-0.052,0.26,1.794,-0.58
2026-06-06 02:56:40.875,2598140331,142875,1,-0.23462,-0.80469,0.54639,0.618,2.275,0.58
2026-06-06 02:56:40.875,2598140331,142875,2,-0.87256,-0.36694,-0.0459,0.344,1.687,-0.504
2026-06-06 02:56:40.875,2598140331,142875,2,-0.87256,-0.36694,-0.0459,0.344,1.687,-0.504
2026-06-06 02:56:46.004,2598145460,148004,1,-0.23853,-0.80322,0.5437,0.641,2.435,0.557
2026-06-06 02:56:46.004,2598145460,148004,2,-0.87427,-0.36572,-0.05103,0.519,1.679,-0.603
2026-06-06 02:56:46.204,2598145660,148204,1,-0.23926,-0.80176,0.5603,1.321,2.282,0.397
2026-06-06 02:56:46.204,2598145660,148204,2,-0.87158,-0.36279,-0.05908,0.389,2.145,-0.878
2026-06-06 02:56:46.404,2598145860,148404,1,-0.25317,-0.80127,0.5481,0.885,2.115,0.603
2026-06-06 02:56:46.404,2598145860,148404,2,-0.87207,-0.37109,-0.04956,0.183,1.435,-0.321
2026-06-06 02:56:46.404,2598145860,148404,2,-0.87207,-0.37109,-0.04956,0.183,1.435,-0.321
2026-06-06T02:58:29.754377,,,,,,,,,
2026-06-06 02:58:30.261,2598249717,7261,1,-0.21216,-0.79736,0.57544,1.031,2.641,0.626
2026-06-06 02:58:30.261,2598249717,7261,2,-0.8772,-0.37061,-0.03149,0.252,1.718,-0.664
2026-06-06 02:58:30.461,2598249917,7461,1,-0.21265,-0.80298,0.57813,0.832,2.305,0.557
2026-06-06 02:58:30.461,2598249917,7461,2,-0.86377,-0.37109,-0.04224,0.443,1.542,-0.244
2026-06-06 02:58:31.661,2598251117,7661,1,-0.2146,-0.7998,0.57104,1.008,2.214,0.527
2026-06-06 02:58:31.661,2598251117,7661,2,-0.87256,-0.37207,-0.03564,0.588,1.641,-0.336
2026-06-06 02:58:31.861,2598251317,7861,1,-0.21338,-0.8042,0.56665,0.794,2.412,0.496
2026-06-06 02:58:31.861,2598251317,7861,2,-0.87671,-0.37329,-0.02197,0.382,1.496,-0.252
2026-06-06 02:58:31.098,2598250554,8098,1,-0.21289,-0.79492,0.56934,0.718,2.336,0.542
2026-06-06 02:58:31.098,2598250554,8098,2,-0.87329,-0.36743,-0.03369,0.489,1.786,-0.466
2026-06-06 02:58:31.298,2598250754,8298,1,-0.20996,-0.80542,0.56885,0.626,2.237,0.618
2026-06-06 02:58:31.298,2598250754,8298,2,-0.88062,-0.37061,-0.01929,0.519,1.664,-0.366
2026-06-06 02:58:31.498,2598250954,8498,1,-0.20386,-0.79956,0.5769,0.542,2.214,0.435
2026-06-06 02:58:31.498,2598250954,8498,2,-0.87793,-0.37134,-0.02759,0.496,1.45,-0.458
2026-06-06 02:58:32.698,2598252154,8698,1,-0.21362,-0.79712,0.56885,0.664,2.359,0.626
2026-06-06 02:58:32.698,2598252154,8698,2,-0.87524,-0.37402,-0.03125,0.321,1.481,-0.321
2026-06-06 02:58:32.898,2598252354,8898,1,-0.20654,-0.80249,0.5752,0.824,2.359,0.618
2026-06-06 02:58:32.898,2598252354,8898,2,-0.88354,-0.3689,-0.04395,0.389,1.626,-0.542
2026-06-06 02:58:32.098,2598251554,9098,1,-0.20483,-0.80225,0.56714,0.771,2.252,0.588
2026-06-06 02:58:32.098,2598251554,9098,2,-0.87817,-0.37573,-0.03174,0.511,1.649,-0.359
2026-06-06 02:58:32.298,2598251754,9298,1,-0.21289,-0.80078,0.573,0.756,2.458,0.489
2026-06-06 02:58:32.298,2598251754,9298,2,-0.87207,-0.36792,-0.02686,0.359,1.58,-0.374
2026-06-06 02:58:32.498,2598251954,9498,1,-0.20654,-0.80347,0.57813,0.702,2.298,0.542
2026-06-06 02:58:32.498,2598251954,9498,2,-0.87207,-0.37158,-0.04028,0.504,1.641,-0.595
2026-06-06 02:58:33.698,2598253154,9698,1,-0.21191,-0.79688,0.5686,0.756,2.359,0.771
2026-06-06 02:58:33.698,2598253154,9698,2,-0.87671,-0.36694,-0.03711,0.405,1.649,-0.397
2026-06-06 02:58:33.898,2598253354,9898,1,-0.20825,-0.79956,0.57617,0.771,2.443,0.359
2026-06-06 02:58:33.898,2598253354,9898,2,-0.88135,-0.36963,-0.03003,0.328,1.718,-0.534
2026-06-06 02:58:33.098,2598252554,10098,1,-0.21045,-0.80347,0.57642,0.794,2.45,0.443
2026-06-06 02:58:33.098,2598252554,10098,2,-0.87329,-0.36743,-0.02808,0.466,1.634,-0.489
2026-06-06 02:58:33.298,2598252754,10298,1,-0.20728,-0.80322,0.56201,0.656,2.382,0.496
2026-06-06 02:58:33.298,2598252754,10298,2,-0.87915,-0.36743,-0.0376,0.496,1.672,-0.534
2026-06-06 02:58:33.498,2598252954,10498,1,-0.20972,-0.7959,0.56812,0.786,2.412,0.542
2026-06-06 02:58:33.498,2598252954,10498,2,-0.87598,-0.37207,-0.04102,0.481,1.718,-0.496
2026-06-06 02:58:34.698,2598254154,10698,1,-0.21313,-0.80127,0.57617,0.901,2.344,0.397
2026-06-06 02:58:34.698,2598254154,10698,2,-0.87744,-0.37134,-0.02832,0.504,1.641,-0.618
2026-06-06 02:58:34.898,2598254354,10898,1,-0.20898,-0.79297,0.56738,0.832,2.427,0.611
2026-06-06 02:58:34.898,2598254354,10898,2,-0.87476,-0.37354,-0.03369,0.489,1.58,-0.427
2026-06-06 02:58:34.143,2598253599,11143,1,-0.21558,-0.80054,0.57422,0.847,2.458,0.481
2026-06-06 02:58:34.143,2598253599,11143,2,-0.87866,-0.37256,-0.03906,0.305,1.664,-0.473
2026-06-06 02:58:34.396,2598253852,11396,1,-0.20923,-0.80127,0.56982,0.954,2.183,0.794
2026-06-06 02:58:34.396,2598253852,11396,2,-0.87573,-0.37354,-0.02954,0.489,1.672,-0.573
2026-06-06 02:58:35.596,2598255052,11596,1,-0.20215,-0.79688,0.57349,0.695,2.237,0.511
2026-06-06 02:58:35.596,2598255052,11596,2,-0.87598,-0.3689,-0.03613,0.489,1.427,-0.473
2026-06-06 02:58:35.796,2598255252,11796,1,-0.20996,-0.79663,0.57056,0.542,2.504,0.618
2026-06-06 02:58:35.796,2598255252,11796,2,-0.87207,-0.36768,-0.02686,0.473,1.573,-0.313
2026-06-06 02:58:35.996,2598255452,11996,1,-0.20581,-0.79834,0.57153,0.695,2.26,0.794
2026-06-06 02:58:35.996,2598255452,11996,2,-0.87671,-0.36694,-0.0249,0.313,1.779,-0.321
2026-06-06 02:58:35.196,2598254652,12196,1,-0.20532,-0.79761,0.5835,0.786,2.344,0.458
2026-06-06 02:58:35.196,2598254652,12196,2,-0.87476,-0.37109,-0.03394,0.534,1.481,-0.611
2026-06-06 02:58:35.396,2598254852,12396,1,-0.20654,-0.80249,0.56738,0.733,2.42,0.466
2026-06-06 02:58:35.396,2598254852,12396,2,-0.87817,-0.37329,-0.04004,0.588,1.611,-0.45
2026-06-06 02:58:36.596,2598256052,12596,1,-0.20752,-0.79932,0.57422,0.504,2.198,0.473
2026-06-06 02:58:36.596,2598256052,12596,2,-0.87549,-0.36987,-0.03247,0.336,1.679,-0.565
2026-06-06 02:58:36.796,2598256252,12796,1,-0.21069,-0.80249,0.57544,0.58,2.122,0.641
2026-06-06 02:58:36.796,2598256252,12796,2,-0.87476,-0.37451,-0.03027,0.298,1.573,-0.595
2026-06-06 02:58:36.996,2598256452,12996,1,-0.21533,-0.7981,0.57031,0.672,2.244,0.664
2026-06-06T02:58:35.761043,,,,,,,,,
2026-06-06 02:58:36.996,2598256452,12996,2,-0.87598,-0.37109,-0.02808,0.359,1.443,-0.389
2026-06-06 02:58:36.196,2598255652,13196,1,-0.21191,-0.802,0.5769,0.748,2.412,0.405
2026-06-06 02:58:36.196,2598255652,13196,2,-0.87183,-0.36523,-0.04126,0.45,1.656,-0.435
2026-06-06 02:58:36.396,2598255852,13396,1,-0.20801,-0.79834,0.57568,0.641,2.351,0.458
2026-06-06 02:58:36.396,2598255852,13396,2,-0.86841,-0.37036,-0.02197,0.473,1.458,-0.45
2026-06-06 02:58:37.596,2598257052,13596,1,-0.21094,-0.79565,0.56738,0.626,2.252,0.527
2026-06-06 02:58:37.596,2598257052,13596,2,-0.87134,-0.36328,-0.03638,0.473,1.557,-0.511
2026-06-06 02:58:37.796,2598257252,13796,1,-0.20801,-0.7959,0.5708,0.71,2.275,0.626
2026-06-06 02:58:37.796,2598257252,13796,2,-0.87524,-0.36987,-0.03027,0.458,1.573,-0.45
2026-06-06 02:58:37.996,2598257452,13996,1,-0.21021,-0.79907,0.56396,0.641,2.267,0.534
2026-06-06 02:58:37.996,2598257452,13996,2,-0.87964,-0.37207,-0.03491,0.397,1.534,-0.519
2026-06-06 02:58:37.196,2598256652,14196,1,-0.20728,-0.79907,0.57153,0.763,2.198,0.481
2026-06-06 02:58:37.196,2598256652,14196,2,-0.87402,-0.36621,-0.03027,0.489,1.664,-0.443
2026-06-06 02:58:37.396,2598256852,14396,1,-0.21289,-0.80103,0.56445,0.756,2.336,0.504
2026-06-06 02:58:37.396,2598256852,14396,2,-0.87573,-0.36694,-0.0354,0.542,1.588,-0.725
2026-06-06 02:58:38.596,2598258052,14596,1,-0.20898,-0.80542,0.573,0.878,2.405,0.649
2026-06-06 02:58:38.596,2598258052,14596,2,-0.87671,-0.36475,-0.03491,0.504,1.74,-0.481
2026-06-06 02:58:38.796,2598258252,14796,1,-0.21143,-0.80249,0.57275,0.824,2.496,0.397
2026-06-06 02:58:38.796,2598258252,14796,1,-0.21143,-0.80249,0.57275,0.824,2.496,0.397
2026-06-06 02:58:38.796,2598258252,14796,2,-0.87524,-0.36475,-0.03394,0.466,1.565,-0.435
2026-06-06 02:58:43.083,2598262539,20083,1,-0.21021,-0.80151,0.57178,0.687,2.45,0.595
2026-06-06 02:58:43.083,2598262539,20083,2,-0.875,-0.36597,-0.03662,0.435,1.679,-0.55
2026-06-06 02:58:43.283,2598262739,20283,1,-0.20801,-0.79395,0.57983,0.656,2.328,0.618
2026-06-06 02:58:43.283,2598262739,20283,2,-0.87671,-0.37378,-0.04272,0.252,1.649,-0.511
2026-06-06 02:58:43.483,2598262939,20483,1,-0.21191,-0.80078,0.56372,0.649,2.206,0.496
2026-06-06 02:58:43.483,2598262939,20483,2,-0.87085,-0.37549,-0.03076,0.282,1.794,-0.519
2026-06-06 02:58:44.683,2598264139,20683,1,-0.2063,-0.79834,0.56348,0.802,2.618,0.435
2026-06-06 02:58:44.683,2598264139,20683,2,-0.87183,-0.36816,-0.0293,0.611,1.687,-0.443
2026-06-06 02:58:44.894,2598264350,20894,1,-0.20898,-0.79907,0.56689,0.824,2.198,0.565
2026-06-06 02:58:44.894,2598264350,20894,1,-0.20898,-0.79907,0.56689,0.824,2.198,0.565
2026-06-06 02:58:44.894,2598264350,20894,2,-0.87988,-0.37378,-0.03271,0.359,1.595,-0.458
2026-06-06 02:58:49.460,2598268916,26460,1,-0.20996,-0.8042,0.57373,0.733,2.397,0.786
2026-06-06 02:58:49.460,2598268916,26460,2,-0.88184,-0.36914,-0.02539,0.382,1.656,-0.573
2026-06-06 02:58:50.660,2598270116,26660,1,-0.20825,-0.80469,0.5647,0.672,2.237,0.718
2026-06-06 02:58:50.660,2598270116,26660,2,-0.87964,-0.36914,-0.03833,0.389,1.687,-0.527
2026-06-06 02:58:50.860,2598270316,26860,1,-0.21143,-0.79956,0.56885,0.656,2.26,0.595
2026-06-06 02:58:50.860,2598270316,26860,2,-0.8728,-0.37012,-0.0293,0.427,1.687,-0.55
2026-06-06 02:58:50.060,2598269516,27060,1,-0.2085,-0.79834,0.57153,0.817,2.351,0.542
2026-06-06 02:58:50.060,2598269516,27060,2,-0.87207,-0.36719,-0.0354,0.534,1.588,-0.557
2026-06-06 02:58:50.260,2598269716,27260,1,-0.21069,-0.80566,0.56836,0.687,2.504,0.458
2026-06-06 02:58:50.260,2598269716,27260,2,-0.87988,-0.36963,-0.03369,0.397,1.557,-0.443
2026-06-06 02:58:50.460,2598269916,27460,1,-0.21069,-0.79639,0.58179,0.649,2.092,0.649
2026-06-06 02:58:50.460,2598269916,27460,2,-0.87402,-0.36646,-0.03149,0.344,1.527,-0.542
2026-06-06 02:58:51.660,2598271116,27660,1,-0.20776,-0.80225,0.56299,0.916,2.305,0.504
2026-06-06 02:58:51.660,2598271116,27660,2,-0.8728,-0.37695,-0.03857,0.519,1.634,-0.626
2026-06-06 02:58:51.860,2598271316,27860,1,-0.20825,-0.79443,0.57788,0.458,2.344,0.519
2026-06-06 02:58:51.860,2598271316,27860,2,-0.87109,-0.37573,-0.02661,0.427,1.687,-0.702
2026-06-06 02:58:51.060,2598270516,28060,1,-0.2146,-0.79736,0.5686,0.672,2.45,0.695
2026-06-06 02:58:51.060,2598270516,28060,2,-0.87915,-0.3689,-0.02808,0.313,1.718,-0.702
2026-06-06 02:58:51.260,2598270716,28260,1,-0.21387,-0.79834,0.56982,0.511,2.282,0.626
2026-06-06 02:58:51.260,2598270716,28260,2,-0.87671,-0.36743,-0.02539,0.618,1.725,-0.733
2026-06-06 02:58:51.460,2598270916,28460,1,-0.2146,-0.79712,0.57788,0.779,2.336,0.527
2026-06-06 02:58:51.460,2598270916,28460,2,-0.87988,-0.36963,-0.03369,0.481,1.672,-0.672
2026-06-06 02:58:52.660,2598272116,28660,1,-0.20947,-0.80493,0.56201,0.603,2.405,0.427
2026-06-06 02:58:52.660,2598272116,28660,2,-0.87744,-0.36743,-0.03271,0.611,1.427,-0.618
2026-06-06 02:58:52.860,2598272316,28860,1,-0.21045,-0.79541,0.57251,2.107,2.153,0.511
2026-06-06 02:58:52.860,2598272316,28860,2,-0.87329,-0.37207,-0.03613,0.489,1.702,-0.565
2026-06-06 02:58:52.060,2598271516,29060,1,-0.21558,-0.80615,0.56445,1.176,2.267,0.42
2026-06-06 02:58:52.060,2598271516,29060,2,-0.87231,-0.36646,-0.03809,0.542,1.595,-0.565
2026-06-06 02:58:52.260,2598271716,29260,1,-0.20581,-0.79736,0.57642,-0.229,2.153,0.603
2026-06-06 02:58:52.260,2598271716,29260,2,-0.87964,-0.36841,-0.03906,0.405,1.573,-0.397
2026-06-06 02:58:52.460,2598271916,29460,1,-0.21021,-0.79541,0.57324,-0.305,2.29,0.664
2026-06-06 02:58:52.460,2598271916,29460,2,-0.88013,-0.37378,-0.03662,0.565,1.489,-0.58
2026-06-06 02:58:53.660,2598273116,29660,1,-0.20142,-0.79883,0.56616,0.977,2.16,0.267
2026-06-06 02:58:53.660,2598273116,29660,2,-0.87817,-0.36865,-0.0293,0.366,1.542,-0.725
2026-06-06 02:58:53.860,2598273316,29860,1,-0.20972,-0.79761,0.56763,0.252,2.382,0.885
2026-06-06 02:58:53.860,2598273316,29860,2,-0.87573,-0.37036,-0.02783,0.435,1.794,-0.664
2026-06-06 02:58:53.060,2598272516,30060,1,-0.21167,-0.7981,0.56274,1.931,2.496,0.809
2026-06-06 02:58:53.060,2598272516,30060,2,-0.86987,-0.37598,-0.03662,0.489,1.374,-0.557
2026-06-06 02:58:53.260,2598272716,30260,1,-0.20923,-0.78809,0.57178,-0.763,2.573,0.618
2026-06-06 02:58:53.260,2598272716,30260,2,-0.87402,-0.3728,-0.03003,0.351,1.412,-0.351
2026-06-06 02:58:53.460,2598272916,30460,1,-0.21484,-0.80078,0.57031,0.786,2.336,0.366
2026-06-06 02:58:53.460,2598272916,30460,2,-0.87134,-0.37158,-0.03467,0.351,1.718,-0.397
2026-06-06 02:58:54.660,2598274116,30660,1,-0.20703,-0.80469,0.57715,0.863,2.374,0.557
2026-06-06 02:58:54.660,2598274116,30660,2,-0.86865,-0.37061,-0.03809,0.412,1.985,-0.397
2026-06-06 02:58:54.860,2598274316,30860,1,-0.21143,-0.7998,0.57593,0.229,2.42,0.534
2026-06-06 02:58:54.860,2598274316,30860,2,-0.87158,-0.37036,-0.03882,0.473,1.847,-0.626
2026-06-06 02:58:54.060,2598273516,31060,1,-0.21118,-0.79785,0.58398,-0.45,2.473,0.412
2026-06-06 02:58:54.060,2598273516,31060,2,-0.86938,-0.37402,-0.03931,0.267,1.542,-0.527
2026-06-06 02:58:54.260,2598273716,31260,1,-0.21558,-0.79761,0.5791,0.252,2.26,0.534
2026-06-06 02:58:54.260,2598273716,31260,2,-0.87769,-0.36816,-0.03687,0.282,1.809,-0.473
2026-06-06 02:58:54.460,2598273916,31460,1,-0.21606,-0.79077,0.57544,-0.397,2.649,0.412
2026-06-06 02:58:54.460,2598273916,31460,2,-0.87036,-0.37036,-0.02612,0.344,1.71,-0.313
2026-06-06 02:58:55.660,2598275116,31660,1,-0.21436,-0.8042,0.57349,1.824,2.397,0.534
2026-06-06 02:58:55.660,2598275116,31660,2,-0.87305,-0.37671,-0.03687,0.427,1.542,-0.344
2026-06-06 02:58:55.860,2598275316,31860,1,-0.20654,-0.79761,0.56812,0.87,2.221,0.55
2026-06-06 02:58:55.860,2598275316,31860,2,-0.87671,-0.37036,-0.0354,0.511,1.649,-0.389
2026-06-06 02:58:55.060,2598274516,32060,1,-0.21167,-0.80566,0.56958,0.427,2.122,0.435
2026-06-06 02:58:55.060,2598274516,32060,2,-0.87646,-0.36938,-0.02637,0.313,1.611,-0.252
2026-06-06 02:58:55.260,2598274716,32260,1,-0.20703,-0.7998,0.57446,0.733,2.366,0.71
2026-06-06 02:58:55.260,2598274716,32260,2,-0.87207,-0.36963,-0.03369,0.489,1.542,-0.45
2026-06-06 02:58:55.460,2598274916,32460,1,-0.20703,-0.80273,0.5769,0.382,2.29,0.656
2026-06-06 02:58:55.460,2598274916,32460,2,-0.87329,-0.37524,-0.01758,0.427,1.718,-0.458
2026-06-06 02:58:56.660,2598276116,32660,1,-0.20874,-0.80005,0.57031,0.74,2.267,0.679
2026-06-06 02:58:56.660,2598276116,32660,2,-0.87402,-0.37183,-0.03296,0.481,1.779,-0.489
2026-06-06 02:58:56.860,2598276316,32860,1,-0.20801,-0.79346,0.55737,0.847,2.16,0.664
2026-06-06 02:58:56.860,2598276316,32860,2,-0.87354,-0.36572,-0.03467,0.42,1.542,-0.58
2026-06-06 02:58:56.060,2598275516,33060,1,-0.21216,-0.79321,0.57959,0.679,2.412,0.489
2026-06-06 02:58:56.060,2598275516,33060,2,-0.88062,-0.3689,-0.03955,0.42,1.565,-0.58
2026-06-06 02:58:56.260,2598275716,33260,1,-0.20532,-0.80322,0.57178,0.618,2.26,0.511
2026-06-06 02:58:56.260,2598275716,33260,2,-0.87573,-0.36865,-0.03931,0.427,1.458,-0.389
2026-06-06 02:58:56.460,2598275916,33460,1,-0.20581,-0.7998,0.573,0.634,2.351,0.489
2026-06-06 02:58:56.460,2598275916,33460,2,-0.87842,-0.37378,-0.0271,0.519,1.771,-0.412
2026-06-06 02:58:57.660,2598277116,33660,1,-0.20483,-0.80249,0.573,0.863,2.321,0.489
2026-06-06 02:58:57.660,2598277116,33660,2,-0.87158,-0.3667,-0.02661,0.366,1.618,-0.466
2026-06-06 02:58:57.860,2598277316,33860,1,-0.20898,-0.79956,0.57471,0.634,2.489,0.519
2026-06-06 02:58:57.860,2598277316,33860,2,-0.87231,-0.37158,-0.02441,0.504,1.656,-0.634
2026-06-06 02:58:57.060,2598276516,34060,1,-0.21143,-0.80347,0.57568,0.733,2.382,0.748
2026-06-06 02:58:57.060,2598276516,34060,2,-0.87598,-0.3689,-0.02905,0.466,1.664,-0.427
2026-06-06 02:58:57.260,2598276716,34260,1,-0.20825,-0.7937,0.56934,0.725,2.336,0.511
2026-06-06 02:58:57.260,2598276716,34260,2,-0.87476,-0.37012,-0.02612,0.481,1.573,-0.565
2026-06-06 02:58:57.460,2598276916,34460,1,-0.20728,-0.79712,0.55591,0.679,2.351,0.557
2026-06-06 02:58:57.460,2598276916,34460,2,-0.88062,-0.36719,-0.02637,0.458,1.588,-0.321
2026-06-06 02:58:58.660,2598278116,34660,1,-0.21216,-0.79858,0.57544,0.748,2.336,0.427
2026-06-06 02:58:58.660,2598278116,34660,2,-0.87622,-0.36304,-0.02588,0.511,1.641,-0.489
2026-06-06 02:58:58.860,2598278316,34860,1,-0.20752,-0.79541,0.56836,0.687,2.29,0.542
2026-06-06 02:58:58.860,2598278316,34860,2,-0.87012,-0.36743,-0.03467,0.435,1.55,-0.542
2026-06-06 02:58:58.060,2598277516,35060,1,-0.20361,-0.80029,0.56763,0.55,2.229,0.641
2026-06-06 02:58:58.060,2598277516,35060,2,-0.8772,-0.36719,-0.02319,0.534,1.626,-0.733
2026-06-06 02:58:58.060,2598277516,35060,2,-0.8772,-0.36719,-0.02319,0.534,1.626,-0.733
2026-06-06 02:59:03.221,2598282677,40221,1,-0.20752,-0.80127,0.57373,0.779,2.336,0.511
2026-06-06 02:59:03.221,2598282677,40221,2,-0.88013,-0.36768,-0.02881,0.405,1.832,-0.802
2026-06-06 02:59:03.421,2598282877,40421,1,-0.20361,-0.80151,0.57007,0.55,2.374,0.679
2026-06-06 02:59:03.421,2598282877,40421,1,-0.20361,-0.80151,0.57007,0.55,2.374,0.679
2026-06-06 02:59:03.421,2598282877,40421,2,-0.87427,-0.36816,-0.0354,0.496,1.618,-0.344
2026-06-06 02:59:09.583,2598289039,45583,1,-0.21094,-0.7998,0.57129,0.878,2.29,0.748
2026-06-06 02:59:09.583,2598289039,45583,2,-0.87744,-0.37012,-0.03467,0.435,1.565,-0.313
2026-06-06 02:59:09.783,2598289239,45783,1,-0.21045,-0.80078,0.57202,0.939,2.458,0.595
2026-06-06 02:59:09.783,2598289239,45783,2,-0.87329,-0.37231,-0.03174,0.344,1.603,-0.603
2026-06-06 02:59:09.983,2598289439,45983,1,-0.20557,-0.79956,0.57373,0.763,2.389,0.573
2026-06-06 02:59:09.983,2598289439,45983,2,-0.87915,-0.36743,-0.03467,0.29,1.603,-0.374
2026-06-06 02:59:09.183,2598288639,46183,1,-0.21094,-0.80273,0.57471,0.802,2.489,0.489
2026-06-06 02:59:09.183,2598288639,46183,2,-0.87305,-0.37109,-0.02515,0.42,1.626,-0.588
2026-06-06 02:59:09.383,2598288839,46383,1,-0.21411,-0.7937,0.57007,0.611,2.313,0.374
2026-06-06 02:59:09.383,2598288839,46383,2,-0.8772,-0.37476,-0.02563,0.42,1.618,-0.542
2026-06-06 02:59:10.583,2598290039,46583,1,-0.20947,-0.80078,0.57251,0.725,2.275,0.55
2026-06-06 02:59:10.583,2598290039,46583,2,-0.87598,-0.37134,-0.03857,0.366,1.634,-0.527
2026-06-06 02:59:10.783,2598290239,46783,1,-0.20947,-0.79932,0.56812,0.84,2.374,0.603
2026-06-06 02:59:10.783,2598290239,46783,2,-0.87817,-0.36694,-0.0354,0.504,1.649,-0.344
2026-06-06 02:59:10.983,2598290439,46983,1,-0.21289,-0.79443,0.57813,0.878,2.397,0.519
2026-06-06 02:59:10.983,2598290439,46983,2,-0.87427,-0.37158,-0.03809,0.351,1.565,-0.496
2026-06-06 02:59:10.183,2598289639,47183,1,-0.20361,-0.79956,0.57202,0.947,2.519,0.634
2026-06-06 02:59:10.183,2598289639,47183,2,-0.87134,-0.37158,-0.0271,0.427,1.672,-0.542
2026-06-06 02:59:10.383,2598289839,47383,1,-0.2063,-0.80249,0.57422,0.687,2.221,0.557
2026-06-06 02:59:10.383,2598289839,47383,2,-0.87817,-0.37012,-0.03247,0.443,1.672,-0.504
2026-06-06 02:59:11.583,2598291039,47583,1,-0.21216,-0.79541,0.57568,0.573,2.405,0.626
2026-06-06 02:59:11.583,2598291039,47583,2,-0.86768,-0.36523,-0.03442,0.511,1.588,-0.412
2026-06-06 02:59:11.783,2598291239,47783,1,-0.20654,-0.79712,0.57764,0.817,2.374,0.679
2026-06-06 02:59:11.783,2598291239,47783,2,-0.87012,-0.36646,-0.03198,0.588,1.626,-0.565
2026-06-06 02:59:11.999,2598291455,47999,1,-0.20728,-0.80908,0.57324,0.847,2.198,0.557
2026-06-06 02:59:11.999,2598291455,47999,2,-0.87451,-0.375,-0.03369,0.397,1.771,-0.481
2026-06-06 02:59:11.199,2598290655,48199,1,-0.21191,-0.79639,0.57813,0.71,2.298,0.603
2026-06-06 02:59:11.199,2598290655,48199,2,-0.87524,-0.3689,-0.03125,0.336,1.718,-0.45
2026-06-06 02:59:11.399,2598290855,48399,1,-0.21313,-0.79736,0.57397,0.748,2.206,0.534
2026-06-06 02:59:11.399,2598290855,48399,2,-0.87207,-0.3689,-0.02612,0.489,1.748,-0.366
2026-06-06 02:59:12.599,2598292055,48599,1,-0.20288,-0.79639,0.55835,0.649,2.389,0.649
2026-06-06 02:59:12.599,2598292055,48599,2,-0.87817,-0.36768,-0.02612,0.519,1.626,-0.534
2026-06-06 02:59:12.799,2598292255,48799,1,-0.20435,-0.7937,0.56372,0.649,2.405,0.588
2026-06-06 02:59:12.799,2598292255,48799,2,-0.87964,-0.37231,-0.03027,0.55,1.603,-0.458
2026-06-06 02:59:12.999,2598292455,48999,1,-0.21021,-0.79834,0.57373,0.779,2.443,0.664
2026-06-06 02:59:12.999,2598292455,48999,1,-0.21021,-0.79834,0.57373,0.779,2.443,0.664
2026-06-06 02:59:12.999,2598292455,48999,2,-0.87329,-0.37085,-0.02002,0.313,1.618,-0.473
2026-06-06 02:59:22.126,2598301582,59126,1,-0.20752,-0.80322,0.57397,0.794,2.313,0.664
2026-06-06 02:59:22.126,2598301582,59126,2,-0.87964,-0.36548,-0.03638,0.458,1.748,-0.496
2026-06-06 02:59:22.326,2598301782,59326,1,-0.21045,-0.79736,0.57397,0.832,2.359,0.618
2026-06-06 02:59:22.326,2598301782,59326,2,-0.8772,-0.36841,-0.03101,0.359,1.573,-0.374
2026-06-06 02:59:22.526,2598301982,59526,1,-0.20898,-0.80029,0.57153,0.847,2.359,0.382
2026-06-06 02:59:22.526,2598301982,59526,2,-0.87866,-0.37476,-0.02222,0.481,1.679,-0.58
2026-06-06 02:59:23.726,2598303182,59726,1,-0.21094,-0.80298,0.57446,0.718,2.26,0.565
2026-06-06 02:59:23.726,2598303182,59726,2,-0.87329,-0.36792,-0.02319,0.351,1.756,-0.481
2026-06-06 02:59:23.926,2598303382,59926,1,-0.21045,-0.80396,0.55371,0.931,2.328,0.489
2026-06-06 02:59:23.926,2598303382,59926,2,-0.87622,-0.3645,-0.03149,0.496,1.588,-0.55
2026-06-06 02:59:23.126,2598302582,60126,1,-0.21167,-0.79761,0.57056,0.802,2.229,0.58
2026-06-06 02:59:23.126,2598302582,60126,2,-0.87793,-0.37109,-0.02466,0.42,1.733,-0.527
2026-06-06 02:59:23.326,2598302782,60326,1,-0.21338,-0.79614,0.56641,0.756,2.298,0.45
2026-06-06 02:59:23.326,2598302782,60326,1,-0.21338,-0.79614,0.56641,0.756,2.298,0.45
2026-06-06 02:59:23.326,2598302782,60326,2,-0.87573,-0.37085,-0.04028,0.389,1.786,-0.588
2026-06-06 02:59:28.530,2598307986,65530,1,-0.20996,-0.79907,0.57031,1.206,2.313,0.527
2026-06-06 02:59:28.530,2598307986,65530,2,-0.87939,-0.37036,-0.03882,0.45,1.748,-0.389
2026-06-06 02:59:29.863,2598309319,65863,1,-0.21313,-0.79785,0.57495,0.366,2.58,0.702
2026-06-06 02:59:29.863,2598309319,65863,2,-0.87695,-0.37158,-0.03345,0.328,1.748,-0.611
2026-06-06 02:59:29.146,2598308602,66145,1,-0.20923,-0.79224,0.57275,0.435,2.382,0.557
2026-06-06 02:59:29.146,2598308602,66145,2,-0.87744,-0.36548,-0.03223,0.496,1.534,-0.618
2026-06-06 02:59:39.529,2598318985,76529,1,-0.20874,-0.7981,0.57935,0.71,2.267,0.511
2026-06-06 02:59:39.529,2598318985,76529,2,-0.87939,-0.36914,-0.03247,0.466,1.672,-0.466
2026-06-06 02:59:39.529,2598318985,76529,2,-0.87939,-0.36914,-0.03247,0.466,1.672,-0.466
2026-06-06 02:59:57.215,2598336671,94215,1,-0.20923,-0.79956,0.57593,0.916,2.214,0.29
2026-06-06 02:59:57.215,2598336671,94215,2,-0.87378,-0.37744,-0.01978,0.389,1.947,-0.466
2026-06-06 02:59:57.415,2598336871,94415,1,-0.21143,-0.79761,0.57202,0.366,2.389,0.641
2026-06-06 02:59:57.415,2598336871,94415,2,-0.87524,-0.36938,-0.04346,0.382,1.664,-0.679
2026-06-06 02:59:58.615,2598338071,94615,1,-0.21021,-0.80078,0.5708,1.214,2.198,0.534
2026-06-06 02:59:58.615,2598338071,94615,2,-0.87573,-0.37476,-0.02954,0.389,1.626,-0.206
2026-06-06 02:59:58.815,2598338271,94815,1,-0.21021,-0.7998,0.57739,1.458,2.153,0.573
2026-06-06 02:59:58.815,2598338271,94815,2,-0.87793,-0.37695,-0.0293,0.351,1.603,-0.351
2026-06-06 02:59:58.015,2598337471,95015,1,-0.20728,-0.79248,0.5647,1.481,2.252,0.534
2026-06-06 02:59:58.015,2598337471,95015,2,-0.87646,-0.37305,-0.03345,0.489,1.55,-0.481
2026-06-06 02:59:58.215,2598337671,95215,1,-0.20825,-0.80127,0.57935,0.55,2.29,0.45
2026-06-06 02:59:58.215,2598337671,95215,2,-0.87622,-0.37012,-0.02954,0.237,1.489,-0.321
2026-06-06 02:59:58.415,2598337871,95415,1,-0.20581,-0.79736,0.56592,0.557,2.305,0.405
2026-06-06 02:59:58.415,2598337871,95415,2,-0.87524,-0.36572,-0.0354,0.427,1.527,-0.298
2026-06-06 02:59:58.415,2598337871,95415,2,-0.87524,-0.36572,-0.0354,0.427,1.527,-0.298
2026-06-06 03:00:08.552,2598348008,105552,1,-0.20605,-0.79565,0.57373,1.107,2.336,0.557
2026-06-06 03:00:08.552,2598348008,105552,2,-0.87622,-0.37183,-0.03198,0.389,1.809,-0.084
2026-06-06 03:00:09.752,2598349208,105752,1,-0.20898,-0.7959,0.55835,1.595,2.275,0.595
2026-06-06 03:00:09.752,2598349208,105752,2,-0.87842,-0.37061,-0.03296,0.405,1.679,-0.435
2026-06-06 03:00:09.952,2598349408,105952,1,-0.20874,-0.79785,0.56323,0.092,2.099,0.672
2026-06-06 03:00:09.952,2598349408,105952,1,-0.20874,-0.79785,0.56323,0.092,2.099,0.672
2026-06-06 03:00:09.952,2598349408,105952,2,-0.88135,-0.36792,-0.0293,0.328,1.527,-0.611
2026-06-06 03:00:14.089,2598353545,111089,1,-0.21362,-0.79614,0.57202,0.603,2.412,0.779
2026-06-06 03:00:14.089,2598353545,111089,2,-0.88062,-0.37256,-0.03198,0.214,1.603,-0.466
2026-06-06 03:00:14.289,2598353745,111289,1,-0.21216,-0.79883,0.57227,0.702,2.298,0.603
2026-06-06 03:00:14.289,2598353745,111289,2,-0.87646,-0.37061,-0.03809,0.458,1.695,-0.565
2026-06-06 03:00:14.289,2598353745,111289,2,-0.87646,-0.37061,-0.03809,0.458,1.695,-0.565
2026-06-06 03:00:19.468,2598358924,116468,1,-0.20996,-0.80884,0.56494,0.855,2.55,0.641
2026-06-06 03:00:19.468,2598358924,116468,2,-0.87109,-0.36865,-0.03369,0.344,1.763,-0.527
2026-06-06 03:00:20.668,2598360124,116668,1,-0.21338,-0.79688,0.57959,1.275,2.427,0.443
2026-06-06 03:00:20.668,2598360124,116668,2,-0.87939,-0.37061,-0.03271,0.366,1.542,-0.634
2026-06-06 03:00:20.868,2598360324,116868,1,-0.2041,-0.80225,0.56421,0.885,2.443,0.557
2026-06-06 03:00:20.868,2598360324,116868,2,-0.87671,-0.3728,-0.02832,0.481,1.542,-0.763
2026-06-06 03:00:20.068,2598359524,117068,1,-0.20923,-0.79883,0.57251,0.863,2.42,0.725
2026-06-06 03:00:20.068,2598359524,117068,2,-0.87256,-0.37329,-0.04175,0.366,1.557,-0.405
2026-06-06 03:00:20.268,2598359724,117268,1,-0.21362,-0.80518,0.57031,2.008,1.992,0.42
2026-06-06 03:00:20.268,2598359724,117268,2,-0.87012,-0.36743,-0.03735,0.443,1.817,-0.481
2026-06-06 03:00:20.468,2598359924,117468,1,-0.21021,-0.79419,0.57373,1.733,2.214,0.55
2026-06-06 03:00:20.468,2598359924,117468,2,-0.87451,-0.36816,-0.04053,0.412,1.603,-0.58
2026-06-06 03:00:21.668,2598361124,117668,1,-0.20801,-0.79761,0.56299,0.221,2.198,0.557
2026-06-06 03:00:21.668,2598361124,117668,2,-0.8772,-0.37061,-0.02832,0.45,1.504,-0.695
2026-06-06 03:00:21.868,2598361324,117868,1,-0.20874,-0.79688,0.58081,-0.282,2.58,0.573
2026-06-06 03:00:21.868,2598361324,117868,2,-0.87231,-0.36743,-0.03271,0.397,1.565,-0.809
2026-06-06 03:00:21.068,2598360524,118068,1,-0.20752,-0.79736,0.57178,1.122,2.328,0.45
2026-06-06 03:00:21.068,2598360524,118068,2,-0.87183,-0.37378,-0.02954,0.374,1.557,-0.641
2026-06-06 03:00:21.268,2598360724,118268,1,-0.21387,-0.80127,0.56982,0.351,2.573,0.687
2026-06-06 03:00:21.268,2598360724,118268,2,-0.87451,-0.37256,-0.03882,0.282,2.023,-1.023
2026-06-06 03:00:21.468,2598360924,118468,1,-0.20654,-0.79248,0.57593,0.176,2.374,0.687
2026-06-06 03:00:21.468,2598360924,118468,2,-0.88257,-0.37134,-0.03076,0.305,1.687,-0.534
2026-06-06 03:00:22.668,2598362124,118668,1,-0.21191,-0.79858,0.57446,1.015,2.107,0.405
2026-06-06 03:00:22.668,2598362124,118668,2,-0.88159,-0.37134,-0.03125,0.641,1.366,-0.519
2026-06-06 03:00:22.868,2598362324,118868,1,-0.21045,-0.79297,0.56787,1.679,2.229,0.542
2026-06-06 03:00:22.868,2598362324,118868,2,-0.86963,-0.37305,-0.03857,0.313,1.695,-0.473
2026-06-06 03:00:22.068,2598361524,119068,1,-0.20898,-0.79834,0.57886,-0.328,2.687,0.458
2026-06-06 03:00:22.068,2598361524,119068,2,-0.87158,-0.37207,-0.03174,0.397,1.649,-0.588
2026-06-06 03:00:22.268,2598361724,119268,1,-0.21094,-0.79663,0.57007,1.977,2.198,0.634
2026-06-06 03:00:22.268,2598361724,119268,2,-0.87329,-0.37231,-0.03345,0.351,1.763,-0.229
2026-06-06 03:00:22.468,2598361924,119468,1,-0.21021,-0.7959,0.56934,0.153,2.489,0.641
2026-06-06 03:00:22.468,2598361924,119468,2,-0.87183,-0.36523,-0.03564,0.305,1.695,-0.42
2026-06-06 03:00:23.668,2598363124,119668,1,-0.21118,-0.79419,0.57861,1.282,2.168,0.443
2026-06-06 03:00:23.668,2598363124,119668,2,-0.87671,-0.37549,-0.03711,0.321,1.687,-0.29
2026-06-06 03:00:23.868,2598363324,119868,1,-0.20996,-0.79785,0.57031,0.702,2.427,0.565
2026-06-06 03:00:23.868,2598363324,119868,2,-0.87744,-0.37256,-0.03296,0.366,1.756,-0.237
2026-06-06 03:00:23.068,2598362524,120068,1,-0.21265,-0.80005,0.57251,0.87,2.244,0.496
2026-06-06 03:00:23.068,2598362524,120068,2,-0.87231,-0.37061,-0.03516,0.443,1.55,-0.695
2026-06-06 03:00:23.268,2598362724,120268,1,-0.20923,-0.80005,0.56812,0.695,2.252,0.802
2026-06-06 03:00:23.268,2598362724,120268,2,-0.8772,-0.37573,-0.03809,0.42,1.649,-0.405
2026-06-06 03:00:23.468,2598362924,120468,1,-0.20923,-0.79028,0.57202,0.893,2.527,0.634
2026-06-06 03:00:23.468,2598362924,120468,2,-0.87988,-0.37354,-0.03223,0.573,1.718,-0.427
2026-06-06 03:00:24.668,2598364124,120668,1,-0.21045,-0.7998,0.56982,0.931,2.336,0.695
2026-06-06 03:00:24.668,2598364124,120668,2,-0.87427,-0.37207,-0.03809,0.45,1.611,-0.458
2026-06-06 03:00:24.668,2598364124,120668,2,-0.87427,-0.37207,-0.03809,0.45,1.611,-0.458
2026-06-06 03:00:29.867,2598369323,125867,1,-0.21143,-0.79688,0.56934,0.74,2.534,0.656
2026-06-06 03:00:29.867,2598369323,125867,1,-0.21143,-0.79688,0.56934,0.74,2.534,0.656
2026-06-06 03:00:29.867,2598369323,125867,2,-0.87354,-0.37622,-0.03052,0.611,1.42,-0.847
2026-06-06 03:00:34.006,2598373462,131006,1,-0.21094,-0.79639,0.55859,-0.885,2.695,0.794
2026-06-06 03:00:34.006,2598373462,131006,2,-0.87427,-0.37671,-0.03149,0.397,1.718,-0.351
2026-06-06 03:00:34.206,2598373662,131206,1,-0.20459,-0.79712,0.56372,1.084,2.42,0.824
2026-06-06 03:00:34.206,2598373662,131206,2,-0.87061,-0.37158,-0.03174,0.427,1.359,-0.725
2026-06-06 03:00:34.406,2598373862,131406,1,-0.20874,-0.7998,0.57813,-0.634,2.649,0.634
2026-06-06 03:00:34.406,2598373862,131406,2,-0.8689,-0.37305,-0.03687,0.275,1.611,-0.58
2026-06-06 03:00:35.606,2598375062,131606,1,-0.21118,-0.80615,0.56714,2.053,2.328,0.595
2026-06-06 03:00:35.606,2598375062,131606,2,-0.87769,-0.37036,-0.03638,0.565,1.565,-0.298
2026-06-06 03:00:35.806,2598375262,131806,1,-0.20996,-0.7998,0.57275,-0.382,2.656,0.42
2026-06-06 03:00:35.806,2598375262,131806,2,-0.87207,-0.37646,-0.03442,0.344,1.519,-0.366
2026-06-06 03:00:35.006,2598374462,132006,1,-0.20825,-0.79883,0.57251,0.58,2.405,0.489
2026-06-06 03:00:35.006,2598374462,132006,2,-0.87793,-0.375,-0.04443,0.397,1.588,-0.473
2026-06-06 03:00:35.206,2598374662,132206,1,-0.20898,-0.79956,0.573,1.504,2.29,0.702
2026-06-06 03:00:35.206,2598374662,132206,2,-0.87451,-0.37231,-0.02686,0.481,1.817,-0.519
2026-06-06 03:00:35.406,2598374862,132406,1,-0.21655,-0.79443,0.58203,1.099,2.168,0.55
2026-06-06 03:00:35.406,2598374862,132406,2,-0.87305,-0.37476,-0.02588,0.45,1.71,-0.206
2026-06-06 03:00:36.606,2598376062,132606,1,-0.21021,-0.79883,0.56812,-0.405,2.458,0.374
2026-06-06 03:00:36.606,2598376062,132606,2,-0.87256,-0.3728,-0.03369,0.588,1.557,-0.435
2026-06-06 03:00:36.806,2598376262,132806,1,-0.20117,-0.80566,0.57349,0.168,2.504,0.595
2026-06-06 03:00:36.806,2598376262,132806,2,-0.87378,-0.37402,-0.02661,0.427,1.458,-0.351
2026-06-06 03:00:36.006,2598375462,133006,1,-0.20752,-0.79492,0.56909,1.26,2.252,0.565
2026-06-06 03:00:36.006,2598375462,133006,2,-0.87671,-0.36963,-0.03662,0.328,1.702,-0.336
2026-06-06 03:00:36.206,2598375662,133206,1,-0.21216,-0.79517,0.57471,1.672,2.092,0.389
2026-06-06 03:00:36.206,2598375662,133206,2,-0.87988,-0.37622,-0.0293,0.305,1.702,-0.427
2026-06-06 03:00:36.406,2598375862,133406,1,-0.21143,-0.7998,0.57031,0.221,2.115,0.595
2026-06-06 03:00:36.406,2598375862,133406,2,-0.875,-0.36646,-0.03149,0.458,1.374,-0.458
2026-06-06 03:00:37.606,2598377062,133606,1,-0.20703,-0.79785,0.5647,0.504,2.336,0.55
2026-06-06 03:00:37.606,2598377062,133606,2,-0.87866,-0.37354,-0.04004,0.366,1.656,-0.45
2026-06-06 03:00:37.806,2598377262,133806,1,-0.20703,-0.79956,0.56104,1.115,2.405,0.427
2026-06-06 03:00:37.806,2598377262,133806,2,-0.86841,-0.37573,-0.03784,0.405,1.412,-0.427
2026-06-06 03:00:37.006,2598376462,134006,1,-0.20825,-0.79663,0.56421,0.855,2.405,0.656
2026-06-06 03:00:37.006,2598376462,134006,2,-0.87891,-0.37036,-0.03052,0.366,1.802,-0.611
2026-06-06 03:00:37.206,2598376662,134206,1,-0.21191,-0.79736,0.57837,0.847,2.191,0.489
2026-06-06 03:00:37.206,2598376662,134206,2,-0.87256,-0.37231,-0.03906,0.366,1.504,-0.435
2026-06-06 03:00:37.406,2598376862,134406,1,-0.20923,-0.79834,0.57666,0.748,2.366,0.687
2026-06-06 03:00:37.406,2598376862,134406,2,-0.875,-0.37012,-0.03247,0.366,1.588,-0.374
2026-06-06 03:00:38.606,2598378062,134606,1,-0.20972,-0.79492,0.57471,0.893,2.244,0.611
2026-06-06 03:00:38.606,2598378062,134606,2,-0.87671,-0.36987,-0.02173,0.489,1.565,-0.458
2026-06-06 03:00:38.806,2598378262,134806,1,-0.21704,-0.79736,0.57056,0.626,2.58,0.511
2026-06-06 03:00:38.806,2598378262,134806,2,-0.87671,-0.375,-0.02808,0.405,1.519,-0.42
2026-06-06 03:00:38.006,2598377462,135006,1,-0.20337,-0.79785,0.58032,0.809,2.374,0.649
2026-06-06 03:00:38.006,2598377462,135006,2,-0.8833,-0.37354,-0.02832,0.275,1.634,-0.397
2026-06-06 03:00:38.206,2598377662,135206,1,-0.21143,-0.79248,0.57446,0.924,2.252,0.42
2026-06-06 03:00:38.206,2598377662,135206,2,-0.87891,-0.37036,-0.02856,0.481,1.527,-0.397
2026-06-06 03:00:38.406,2598377862,135406,1,-0.21118,-0.79858,0.57275,0.855,2.244,0.542
2026-06-06 03:00:38.406,2598377862,135406,2,-0.88013,-0.36987,-0.03516,0.511,1.74,-0.603
2026-06-06 03:00:39.606,2598379062,135606,1,-0.2124,-0.79858,0.57666,0.679,2.313,0.504
2026-06-06 03:00:39.606,2598379062,135606,2,-0.87183,-0.37036,-0.02539,0.374,1.634,-0.672
2026-06-06 03:00:39.806,2598379262,135806,1,-0.21265,-0.79785,0.57104,0.58,2.405,0.695
2026-06-06 03:00:39.806,2598379262,135806,2,-0.8772,-0.36865,-0.03711,0.504,1.687,-0.412
2026-06-06 03:00:39.006,2598378462,136006,1,-0.22021,-0.79175,0.57153,0.74,2.305,0.611
2026-06-06 03:00:39.006,2598378462,136006,2,-0.87744,-0.37378,-0.0271,0.481,1.611,-0.359
2026-06-06 03:00:39.206,2598378662,136206,1,-0.21143,-0.78979,0.57544,0.679,2.359,0.527
2026-06-06 03:00:39.206,2598378662,136206,2,-0.87622,-0.37256,-0.03125,0.344,1.626,-0.397
2026-06-06 03:00:39.406,2598378862,136406,1,-0.20679,-0.80127,0.57251,0.786,2.412,0.641
2026-06-06 03:00:39.406,2598378862,136406,2,-0.87915,-0.36865,-0.0332,0.489,1.55,-0.473
2026-06-06 03:00:40.606,2598380062,136606,1,-0.2124,-0.7981,0.57104,0.725,2.45,0.489
2026-06-06 03:00:40.606,2598380062,136606,2,-0.87915,-0.36841,-0.03296,0.443,1.595,-0.519
2026-06-06 03:00:40.806,2598380262,136806,1,-0.21338,-0.79614,0.56274,1.038,2.26,0.443
2026-06-06 03:00:40.806,2598380262,136806,2,-0.87256,-0.37036,-0.02026,0.534,1.718,-0.557
2026-06-06 03:00:40.006,2598379462,137006,1,-0.21729,-0.79272,0.57422,0.809,2.275,0.573
2026-06-06 03:00:40.006,2598379462,137006,2,-0.87842,-0.36743,-0.03149,0.351,1.748,-0.611
2026-06-06 03:00:40.206,2598379662,137206,1,-0.21094,-0.79614,0.57373,0.885,2.214,0.366
2026-06-06 03:00:40.206,2598379662,137206,2,-0.87817,-0.37036,-0.03247,0.374,1.679,-0.389
2026-06-06 03:00:40.406,2598379862,137406,1,-0.21606,-0.80078,0.56934,0.924,2.282,0.389
2026-06-06 03:00:40.406,2598379862,137406,2,-0.87915,-0.37134,-0.04395,0.321,1.664,-0.534
2026-06-06 03:00:41.606,2598381062,137606,1,-0.20288,-0.79419,0.57324,0.702,2.336,0.534
2026-06-06 03:00:41.606,2598381062,137606,2,-0.87158,-0.36841,-0.02051,0.328,1.618,-0.611
2026-06-06 03:00:41.806,2598381262,137806,1,-0.20361,-0.79736,0.57373,0.878,2.153,0.595
2026-06-06 03:00:41.806,2598381262,137806,2,-0.88037,-0.36523,-0.03369,0.321,1.656,-0.435
2026-06-06 03:00:41.006,2598380462,138006,1,-0.2124,-0.79736,0.57275,0.802,2.328,0.626
2026-06-06 03:00:41.006,2598380462,138006,2,-0.87646,-0.36938,-0.02954,0.42,1.626,-0.45
2026-06-06 03:00:41.206,2598380662,138206,1,-0.20605,-0.79712,0.57007,0.718,2.252,0.389
2026-06-06 03:00:41.206,2598380662,138206,2,-0.87476,-0.37183,-0.03467,0.397,1.771,-0.496
2026-06-06 03:00:41.406,2598380862,138406,1,-0.20654,-0.80054,0.57422,0.664,2.397,0.702
2026-06-06 03:00:41.406,2598380862,138406,2,-0.88257,-0.36792,-0.03198,0.321,1.656,-0.473
2026-06-06 03:00:42.606,2598382062,138606,1,-0.2146,-0.79956,0.58643,0.763,2.397,0.656
2026-06-06 03:00:42.606,2598382062,138606,2,-0.87085,-0.36792,-0.03491,0.534,1.511,-0.489
2026-06-06 03:00:42.806,2598382262,138806,1,-0.21094,-0.80054,0.57666,0.649,2.412,0.573
2026-06-06 03:00:42.806,2598382262,138806,2,-0.87915,-0.37109,-0.03687,0.351,1.71,-0.473
2026-06-06 03:00:42.006,2598381462,139006,1,-0.2085,-0.79541,0.57251,0.763,2.504,0.489
2026-06-06 03:00:42.006,2598381462,139006,2,-0.8689,-0.3689,-0.02808,0.42,1.58,-0.443
2026-06-06 03:00:42.206,2598381662,139206,1,-0.20728,-0.79614,0.57056,0.733,2.466,0.504
2026-06-06 03:00:42.206,2598381662,139206,2,-0.8772,-0.3728,-0.02832,0.313,1.595,-0.473
2026-06-06 03:00:42.406,2598381862,139406,1,-0.20776,-0.79541,0.56396,0.779,2.282,0.527
2026-06-06 03:00:42.406,2598381862,139406,2,-0.88135,-0.37109,-0.03101,0.45,1.573,-0.496
2026-06-06 03:00:43.606,2598383062,139606,1,-0.20996,-0.79858,0.5686,0.71,2.45,0.618
2026-06-06 03:00:43.606,2598383062,139606,2,-0.87671,-0.3667,-0.02832,0.496,1.779,-0.618
2026-06-06 03:00:43.806,2598383262,139806,1,-0.20776,-0.79541,0.57983,0.84,2.305,0.473
2026-06-06 03:00:43.806,2598383262,139806,2,-0.87793,-0.37036,-0.02124,0.42,1.656,-0.534
2026-06-06 03:00:43.006,2598382462,140006,1,-0.20239,-0.80103,0.57007,0.664,2.305,0.679
2026-06-06 03:00:43.006,2598382462,140006,2,-0.8772,-0.36816,-0.03662,0.481,1.748,-0.519
2026-06-06 03:00:43.206,2598382662,140206,1,-0.20386,-0.7937,0.56738,0.802,2.389,0.618
2026-06-06 03:00:43.206,2598382662,140206,2,-0.87817,-0.36987,-0.02954,0.466,1.603,-0.427
2026-06-06 03:00:43.406,2598382862,140406,1,-0.21313,-0.79688,0.57764,0.885,2.328,0.832
2026-06-06 03:00:43.406,2598382862,140406,2,-0.87158,-0.36328,-0.03564,0.504,1.58,-0.55
2026-06-06 03:00:44.606,2598384062,140606,1,-0.21411,-0.80225,0.57764,0.863,2.374,0.473
2026-06-06 03:00:44.606,2598384062,140606,2,-0.87866,-0.37354,-0.0332,0.565,1.557,-0.458
2026-06-06 03:00:44.806,2598384262,140806,1,-0.21338,-0.7998,0.57227,0.863,2.298,0.649
2026-06-06 03:00:44.806,2598384262,140806,2,-0.87036,-0.37158,-0.02563,0.466,1.702,-0.573
2026-06-06 03:00:44.006,2598383462,141006,1,-0.21069,-0.79565,0.57788,0.924,2.252,0.779
2026-06-06 03:00:44.006,2598383462,141006,2,-0.8772,-0.36987,-0.03076,0.412,1.626,-0.359
2026-06-06 03:00:44.206,2598383662,141206,1,-0.2085,-0.79541,0.56885,0.702,2.328,0.641
2026-06-06 03:00:44.206,2598383662,141206,2,-0.87476,-0.36475,-0.04053,0.351,1.618,-0.588
2026-06-06 03:00:44.406,2598383862,141406,1,-0.2085,-0.79761,0.56909,0.855,2.351,0.618
2026-06-06 03:00:44.406,2598383862,141406,2,-0.87646,-0.36572,-0.0332,0.435,1.672,-0.672
2026-06-06 03:00:45.606,2598385062,141606,1,-0.20508,-0.80127,0.57373,0.267,2.237,0.511
2026-06-06 03:00:45.606,2598385062,141606,2,-0.87915,-0.36694,-0.0354,0.534,1.885,-0.565
2026-06-06 03:00:45.806,2598385262,141806,1,-0.21069,-0.80225,0.57202,0.733,2.412,0.573
2026-06-06 03:00:45.806,2598385262,141806,2,-0.88062,-0.36743,-0.03418,0.542,1.672,-0.725
2026-06-06 03:00:45.006,2598384462,142006,1,-0.21021,-0.79883,0.56958,1.985,2.084,0.481
2026-06-06 03:00:45.006,2598384462,142006,2,-0.87109,-0.36865,-0.02539,0.328,1.824,-0.519
2026-06-06 03:00:45.206,2598384662,142206,1,-0.20679,-0.79395,0.56567,1.405,2.16,0.649
2026-06-06 03:00:45.206,2598384662,142206,2,-0.87354,-0.36938,-0.0332,0.382,1.733,-0.504
2026-06-06 03:00:45.406,2598384862,142406,1,-0.20923,-0.7981,0.56665,0.282,2.298,0.458
2026-06-06 03:00:45.406,2598384862,142406,2,-0.87744,-0.37109,-0.03003,0.336,1.595,-0.397
2026-06-06 03:00:46.606,2598386062,142606,1,-0.21021,-0.80371,0.5708,0.733,2.275,0.748
2026-06-06 03:00:46.606,2598386062,142606,2,-0.87964,-0.37524,-0.02734,0.466,1.588,-0.466
2026-06-06 03:00:46.806,2598386262,142806,1,-0.21094,-0.7959,0.57373,-0.87,2.687,0.534
2026-06-06 03:00:46.806,2598386262,142806,2,-0.87476,-0.36938,-0.03687,0.229,1.832,-0.405
2026-06-06 03:00:46.006,2598385462,143006,1,-0.20898,-0.79468,0.57373,0.794,2.305,0.359
2026-06-06 03:00:46.006,2598385462,143006,2,-0.87451,-0.36572,-0.03247,0.382,1.466,-0.252
2026-06-06 03:00:46.206,2598385662,143206,1,-0.20947,-0.79492,0.57422,0.221,2.244,0.74
2026-06-06 03:00:46.206,2598385662,143206,2,-0.88086,-0.37109,-0.03101,0.542,1.695,-0.58
2026-06-06 03:00:46.406,2598385862,143406,1,-0.21143,-0.79443,0.57495,0.313,2.351,0.519
2026-06-06 03:00:46.406,2598385862,143406,2,-0.87671,-0.37256,-0.02759,0.198,1.977,-0.519
2026-06-06 03:00:47.606,2598387062,143606,1,-0.21362,-0.80103,0.56787,1.038,2.603,0.824
2026-06-06 03:00:47.606,2598387062,143606,2,-0.87305,-0.37402,-0.03491,0.427,1.588,-0.809
2026-06-06 03:00:47.806,2598387262,143806,1,-0.21509,-0.79761,0.56909,2.237,2.244,0.679
2026-06-06 03:00:47.806,2598387262,143806,2,-0.87573,-0.37671,-0.04053,0.45,1.641,-0.611
2026-06-06 03:00:47.006,2598386462,144006,1,-0.21167,-0.7959,0.57153,-0.031,2.313,0.725
2026-06-06 03:00:47.006,2598386462,144006,2,-0.87646,-0.36865,-0.03198,0.489,1.58,-0.389
2026-06-06 03:00:47.206,2598386662,144206,1,-0.21118,-0.79932,0.56836,0.771,2.176,0.412
2026-06-06 03:00:47.206,2598386662,144206,2,-0.87109,-0.37085,-0.02734,0.275,1.565,-0.206
2026-06-06 03:00:47.406,2598386862,144406,1,-0.20752,-0.7998,0.573,0.427,2.489,0.466
2026-06-06 03:00:47.406,2598386862,144406,2,-0.87964,-0.36987,-0.03857,0.359,1.374,-0.153
2026-06-06 03:00:48.606,2598388062,144606,1,-0.20923,-0.80249,0.57324,0.427,2.756,1.122
2026-06-06 03:00:48.606,2598388062,144606,2,-0.88159,-0.36597,-0.03223,0.595,1.58,-0.405
2026-06-06 03:00:48.806,2598388262,144806,1,-0.21289,-0.80005,0.56567,0.618,2.366,0.809
2026-06-06 03:00:48.806,2598388262,144806,2,-0.86694,-0.36841,-0.03125,0.641,1.496,-0.198
2026-06-06 03:00:48.006,2598387462,145006,1,-0.2063,-0.79492,0.57104,1.397,2.267,0.45
2026-06-06 03:00:48.006,2598387462,145006,2,-0.87451,-0.37573,-0.03687,0.389,1.679,-0.282
2026-06-06 03:00:48.206,2598387662,145206,1,-0.21362,-0.79785,0.56445,1.458,2.137,0.511
2026-06-06 03:00:48.206,2598387662,145206,2,-0.87891,-0.37427,-0.03662,0.267,1.733,-0.244
2026-06-06 03:00:48.406,2598387862,145406,1,-0.20825,-0.80176,0.56567,0.427,2.366,0.618
2026-06-06 03:00:48.406,2598387862,145406,2,-0.87915,-0.36743,-0.03687,0.344,1.504,-0.504
2026-06-06 03:00:49.606,2598389062,145606,1,-0.20898,-0.79932,0.56714,0.939,2.305,0.405
2026-06-06 03:00:49.606,2598389062,145606,2,-0.87598,-0.37866,-0.03613,0.328,1.527,-0.45
2026-06-06 03:00:49.806,2598389262,145806,1,-0.21338,-0.79492,0.57642,0.954,2.412,0.466
2026-06-06 03:00:49.806,2598389262,145806,2,-0.87378,-0.37061,-0.03223,0.397,1.557,-0.679
2026-06-06 03:00:49.006,2598388462,146006,1,-0.21436,-0.79761,0.55786,0.527,2.534,0.359
2026-06-06 03:00:49.006,2598388462,146006,2,-0.87915,-0.36743,-0.03833,0.565,1.504,-0.382
2026-06-06 03:00:49.206,2598388662,146206,1,-0.20752,-0.79199,0.57275,0.748,2.405,0.588
2026-06-06 03:00:49.206,2598388662,146206,2,-0.87842,-0.37134,-0.03101,0.527,1.458,-0.397
2026-06-06 03:00:49.406,2598388862,146406,1,-0.20801,-0.79907,0.57349,0.733,2.427,0.427
2026-06-06 03:00:49.406,2598388862,146406,2,-0.87158,-0.36865,-0.04028,0.443,1.679,-0.374
2026-06-06 03:00:50.606,2598390062,146606,1,-0.21338,-0.80103,0.56787,0.71,2.313,0.435
2026-06-06 03:00:50.606,2598390062,146606,2,-0.87012,-0.37476,-0.0437,0.542,1.534,-0.382
2026-06-06 03:00:50.806,2598390262,146806,1,-0.20923,-0.7998,0.56323,0.779,2.374,0.611
2026-06-06 03:00:50.806,2598390262,146806,2,-0.87329,-0.37305,-0.02979,0.351,1.511,-0.282
2026-06-06 03:00:50.006,2598389462,147006,1,-0.2063,-0.80347,0.56982,1.008,2.244,0.466
2026-06-06 03:00:50.006,2598389462,147006,2,-0.88086,-0.37183,-0.03516,0.382,1.687,-0.321
2026-06-06 03:00:50.206,2598389662,147206,1,-0.21094,-0.79443,0.58179,0.885,2.206,0.641
2026-06-06 03:00:50.206,2598389662,147206,2,-0.87817,-0.37061,-0.0293,0.435,1.748,-0.382
2026-06-06 03:00:50.406,2598389862,147406,1,-0.20728,-0.79785,0.56299,0.771,2.282,0.45
2026-06-06 03:00:50.406,2598389862,147406,2,-0.87793,-0.37402,-0.03076,0.29,1.71,-0.511
2026-06-06 03:00:51.606,2598391062,147606,1,-0.21069,-0.79761,0.57446,0.527,2.29,0.496
2026-06-06 03:00:51.606,2598391062,147606,2,-0.87451,-0.37817,-0.03174,0.504,1.573,-0.435
2026-06-06 03:00:51.806,2598391262,147806,1,-0.2124,-0.79468,0.57153,0.718,2.229,0.58
2026-06-06 03:00:51.806,2598391262,147806,2,-0.8667,-0.37256,-0.03247,0.412,1.733,-0.565
2026-06-06 03:00:51.006,2598390462,148006,1,-0.20947,-0.79785,0.57227,0.626,2.198,0.649
2026-06-06 03:00:51.006,2598390462,148006,2,-0.87256,-0.36768,-0.03687,0.237,1.71,-0.282
2026-06-06 03:00:51.206,2598390662,148206,1,-0.20898,-0.80054,0.56787,0.718,2.519,0.496
2026-06-06 03:00:51.206,2598390662,148206,2,-0.87744,-0.3728,-0.03418,0.527,1.611,-0.405
2026-06-06 03:00:51.406,2598390862,148406,1,-0.21216,-0.80298,0.57031,0.687,2.191,0.725
2026-06-06 03:00:51.406,2598390862,148406,2,-0.88232,-0.36475,-0.02954,0.466,1.649,-0.626
2026-06-06 03:00:52.606,2598392062,148606,1,-0.21191,-0.79468,0.5769,0.74,2.42,0.511
2026-06-06 03:00:52.606,2598392062,148606,2,-0.87427,-0.36938,-0.04688,0.412,1.679,-0.527
2026-06-06 03:00:52.806,2598392262,148806,1,-0.20605,-0.80298,0.56567,0.58,2.374,0.45
2026-06-06 03:00:52.806,2598392262,148806,2,-0.87354,-0.36694,-0.04224,0.244,1.603,-0.389
2026-06-06 03:00:52.006,2598391462,149006,1,-0.21069,-0.80054,0.57056,0.893,2.328,0.565
2026-06-06 03:00:52.006,2598391462,149006,2,-0.875,-0.37305,-0.04126,0.45,1.84,-0.511
2026-06-06 03:00:52.206,2598391662,149206,1,-0.21118,-0.79395,0.57739,0.672,2.275,0.756
2026-06-06 03:00:52.206,2598391662,149206,2,-0.87695,-0.36523,-0.03857,0.473,1.733,-0.397
2026-06-06 03:00:52.406,2598391862,149406,1,-0.20581,-0.79712,0.58276,0.771,2.412,0.565
2026-06-06 03:00:52.406,2598391862,149406,2,-0.8772,-0.37061,-0.03345,0.305,1.817,-0.481
2026-06-06 03:00:53.606,2598393062,149606,1,-0.2041,-0.8064,0.57227,1.061,2.443,0.511
2026-06-06 03:00:53.606,2598393062,149606,2,-0.87329,-0.37476,-0.04199,0.481,1.802,-0.45
2026-06-06 03:00:53.806,2598393262,149806,1,-0.20972,-0.79492,0.56665,0.847,2.191,0.71
2026-06-06 03:00:53.806,2598393262,149806,2,-0.87427,-0.36743,-0.03174,0.282,1.763,-0.504
2026-06-06 03:00:53.006,2598392462,150006,1,-0.21045,-0.79712,0.56104,0.947,2.206,0.672
2026-06-06 03:00:53.006,2598392462,150006,2,-0.88086,-0.37061,-0.01563,0.298,1.687,-0.466
2026-06-06 03:00:53.206,2598392662,150206,1,-0.21216,-0.79688,0.56982,0.695,2.237,0.359
2026-06-06 03:00:53.206,2598392662,150206,2,-0.87793,-0.37598,-0.04541,0.489,1.756,-0.351
2026-06-06 03:00:53.406,2598392862,150406,1,-0.20874,-0.79907,0.56885,0.802,2.275,0.687
2026-06-06 03:00:53.406,2598392862,150406,2,-0.87915,-0.37598,-0.03955,0.519,1.58,-0.565
2026-06-06 03:00:54.606,2598394062,150606,1,-0.20947,-0.802,0.56934,0.71,2.336,0.427
2026-06-06 03:00:54.606,2598394062,150606,2,-0.87988,-0.37134,-0.02905,0.481,1.71,-0.679
2026-06-06 03:00:54.806,2598394262,150806,1,-0.20654,-0.79419,0.56665,0.733,2.26,0.557
2026-06-06 03:00:54.806,2598394262,150806,2,-0.87842,-0.36938,-0.03125,0.344,1.733,-0.542
2026-06-06 03:00:54.006,2598393462,151006,1,-0.21069,-0.79419,0.58154,0.74,2.397,0.656
2026-06-06 03:00:54.006,2598393462,151006,2,-0.87305,-0.37329,-0.02905,0.405,1.557,-0.427
2026-06-06 03:00:54.206,2598393662,151206,1,-0.2085,-0.80298,0.56567,0.603,2.321,0.534
2026-06-06 03:00:54.206,2598393662,151206,2,-0.88037,-0.36841,-0.0293,0.496,1.672,-0.412
2026-06-06 03:00:54.406,2598393862,151406,1,-0.2041,-0.802,0.57227,0.725,2.305,0.55
2026-06-06 03:00:54.406,2598393862,151406,2,-0.87085,-0.37451,-0.02661,0.489,1.611,-0.573
2026-06-06 03:00:55.606,2598395062,151606,1,-0.21631,-0.79883,0.57251,0.626,2.466,0.55
2026-06-06 03:00:55.606,2598395062,151606,2,-0.87549,-0.36938,-0.02734,0.366,1.763,-0.344
2026-06-06 03:00:55.806,2598395262,151806,1,-0.20752,-0.80005,0.57324,0.603,2.397,0.481
2026-06-06 03:00:55.806,2598395262,151806,2,-0.88257,-0.36768,-0.02759,0.397,1.58,-0.626
2026-06-06 03:00:55.006,2598394462,152006,1,-0.21411,-0.80273,0.57129,0.672,2.374,0.573
2026-06-06 03:00:55.006,2598394462,152006,2,-0.87329,-0.37012,-0.03613,0.45,1.595,-0.374
2026-06-06 03:00:55.206,2598394662,152206,1,-0.20483,-0.79077,0.57056,0.733,2.366,0.656
2026-06-06 03:00:55.206,2598394662,152206,2,-0.87476,-0.37183,-0.0376,0.282,1.626,-0.42
2026-06-06 03:00:55.406,2598394862,152406,1,-0.20898,-0.7937,0.58545,0.985,2.282,0.618
2026-06-06 03:00:55.406,2598394862,152406,2,-0.8772,-0.36719,-0.03467,0.321,1.58,-0.611
2026-06-06 03:00:56.606,2598396062,152606,1,-0.20972,-0.7959,0.57544,0.695,2.321,0.618
2026-06-06 03:00:56.606,2598396062,152606,2,-0.8772,-0.37256,-0.03296,0.435,1.656,-0.435
2026-06-06 03:00:56.806,2598396262,152806,1,-0.20728,-0.79443,0.57568,0.611,2.359,0.817
2026-06-06 03:00:56.806,2598396262,152806,2,-0.88062,-0.36597,-0.03247,0.191,1.626,-0.443
2026-06-06 03:00:56.006,2598395462,153006,1,-0.21265,-0.79785,0.57568,0.641,2.321,0.435
2026-06-06 03:00:56.006,2598395462,153006,2,-0.88013,-0.36914,-0.03638,0.466,1.618,-0.389
2026-06-06 03:00:56.206,2598395662,153206,1,-0.21143,-0.7959,0.56665,0.74,2.42,0.733
2026-06-06 03:00:56.206,2598395662,153206,2,-0.87646,-0.36694,-0.02856,0.542,1.679,-0.534
2026-06-06 03:00:56.406,2598395862,153406,1,-0.21582,-0.79785,0.57056,0.802,2.282,0.511
2026-06-06 03:00:56.406,2598395862,153406,2,-0.87769,-0.36816,-0.03223,0.221,1.84,-0.55
2026-06-06 03:00:57.606,2598397062,153606,1,-0.20996,-0.80151,0.57129,0.771,2.328,0.595
2026-06-06 03:00:57.606,2598397062,153606,2,-0.87402,-0.37549,-0.02734,0.397,1.779,-0.397
2026-06-06 03:00:57.806,2598397262,153806,1,-0.21265,-0.7937,0.5752,0.802,2.252,0.397
2026-06-06 03:00:57.806,2598397262,153806,2,-0.87451,-0.36694,-0.03076,0.328,1.573,-0.504
2026-06-06 03:00:57.006,2598396462,154006,1,-0.2085,-0.80127,0.57397,0.542,2.214,0.427
2026-06-06 03:00:57.006,2598396462,154006,2,-0.88013,-0.36597,-0.03149,0.321,1.634,-0.42
2026-06-06 03:00:57.206,2598396662,154206,1,-0.21021,-0.79932,0.56714,0.641,2.412,0.611
2026-06-06 03:00:57.206,2598396662,154206,2,-0.87012,-0.37231,-0.0415,0.344,1.733,-0.489
2026-06-06 03:00:57.406,2598396862,154406,1,-0.20947,-0.80078,0.57593,1.298,2.427,0.641
2026-06-06 03:00:57.406,2598396862,154406,2,-0.86963,-0.37451,-0.02588,0.374,1.687,-0.718
2026-06-06 03:00:58.606,2598398062,154606,1,-0.20801,-0.7959,0.56714,1.153,2.565,0.809
2026-06-06 03:00:58.606,2598398062,154606,2,-0.87842,-0.36353,-0.02026,0.328,1.733,-0.496
2026-06-06 03:00:58.806,2598398262,154806,1,-0.20996,-0.80273,0.56738,0.687,2.374,0.664
2026-06-06 03:00:58.806,2598398262,154806,2,-0.86768,-0.36548,-0.0332,0.42,1.595,-0.611
2026-06-06 03:00:58.006,2598397462,155006,1,-0.21387,-0.802,0.56592,0.366,2.534,0.649
2026-06-06 03:00:58.006,2598397462,155006,2,-0.87231,-0.37354,-0.02856,0.466,1.802,-0.527
2026-06-06 03:00:58.206,2598397662,155206,1,-0.2146,-0.80396,0.5769,1.023,2.206,0.656
2026-06-06 03:00:58.206,2598397662,155206,2,-0.87744,-0.37817,-0.03418,0.397,1.74,-0.481
2026-06-06 03:00:58.406,2598397862,155406,1,-0.20728,-0.79639,0.55957,1.191,2.168,0.588
2026-06-06 03:00:58.406,2598397862,155406,2,-0.87622,-0.3667,-0.03662,0.328,1.893,-0.58
2026-06-06 03:00:59.606,2598399062,155606,1,-0.21387,-0.79126,0.57373,0.26,2.321,0.397
2026-06-06 03:00:59.606,2598399062,155606,2,-0.87866,-0.36987,-0.04077,0.359,1.481,-0.527
2026-06-06 03:00:59.806,2598399262,155806,1,-0.20947,-0.8064,0.5752,1.137,2.382,0.443
2026-06-06 03:00:59.806,2598399262,155806,2,-0.87183,-0.36743,-0.0249,0.412,1.412,-0.511
2026-06-06 03:00:59.006,2598398462,156006,1,-0.20996,-0.79565,0.57568,0.084,2.252,0.802
2026-06-06 03:00:59.006,2598398462,156006,2,-0.88232,-0.37036,-0.02344,0.496,1.672,-0.412
2026-06-06 03:00:59.206,2598398662,156206,1,-0.20728,-0.79907,0.57373,0.565,2.466,0.702
2026-06-06 03:00:59.206,2598398662,156206,2,-0.87183,-0.37354,-0.02881,0.397,1.863,-0.634
2026-06-06 03:00:59.406,2598398862,156406,1,-0.21021,-0.80005,0.56274,-0.718,2.237,0.489
2026-06-06 03:00:59.406,2598398862,156406,2,-0.87573,-0.37329,-0.03857,0.198,1.763,-0.595
2026-06-06 03:01:00.606,2598400062,156606,1,-0.20996,-0.80396,0.57666,1.679,2.328,0.786
2026-06-06 03:01:00.606,2598400062,156606,2,-0.87817,-0.37158,-0.03052,0.511,1.924,-0.802
2026-06-06 03:01:00.806,2598400262,156806,1,-0.21167,-0.79858,0.56641,0.641,2.374,0.664
2026-06-06 03:01:00.806,2598400262,156806,2,-0.86841,-0.36938,-0.0437,0.458,1.748,-0.435
2026-06-06 03:01:00.006,2598399462,157006,1,-0.22095,-0.80225,0.57324,-0.649,2.481,0.611
2026-06-06 03:01:00.006,2598399462,157006,2,-0.87207,-0.37183,-0.0376,0.519,1.634,-0.779
2026-06-06 03:01:00.206,2598399662,157206,1,-0.21094,-0.80273,0.58081,1.252,2.458,0.695
2026-06-06 03:01:00.206,2598399662,157206,2,-0.86743,-0.36523,-0.03711,0.374,1.557,-0.855
2026-06-06 03:01:00.406,2598399862,157406,1,-0.21289,-0.79834,0.56689,1.107,2.183,0.496
2026-06-06 03:01:00.406,2598399862,157406,2,-0.87378,-0.36865,-0.03564,0.672,1.496,-0.748
2026-06-06 03:01:01.606,2598401062,157606,1,-0.21191,-0.7937,0.573,1.038,2.351,0.588
2026-06-06 03:01:01.606,2598401062,157606,2,-0.87402,-0.37085,-0.02905,0.336,1.885,-0.313
2026-06-06 03:01:01.806,2598401262,157806,1,-0.20776,-0.80054,0.56812,1.931,2.45,0.504
2026-06-06 03:01:01.806,2598401262,157806,2,-0.87158,-0.37109,-0.03271,0.405,1.588,-0.26
2026-06-06 03:01:01.006,2598400462,158006,1,-0.20679,-0.79883,0.56787,0.962,2.29,0.618
2026-06-06 03:01:01.006,2598400462,158006,2,-0.87671,-0.36694,-0.0376,0.588,1.634,-0.458
2026-06-06 03:01:01.206,2598400662,158206,1,-0.20679,-0.79883,0.56494,1.351,2.282,0.427
2026-06-06 03:01:01.206,2598400662,158206,2,-0.87988,-0.37695,-0.03198,0.481,1.542,-0.023
2026-06-06 03:01:01.406,2598400862,158406,1,-0.21094,-0.79956,0.57642,0.794,2.443,0.481
2026-06-06 03:01:01.406,2598400862,158406,2,-0.87646,-0.36865,-0.03418,0.351,1.626,-0.45
2026-06-06 03:01:02.606,2598402062,158606,1,-0.20996,-0.80005,0.5813,0.099,2.466,0.527
2026-06-06 03:01:02.606,2598402062,158606,2,-0.88184,-0.36621,-0.03687,0.443,1.511,-0.496
2026-06-06 03:01:02.806,2598402262,158806,1,-0.20923,-0.7981,0.57324,0.74,2.511,0.534
2026-06-06 03:01:02.806,2598402262,158806,2,-0.87109,-0.37085,-0.03418,0.527,1.519,-0.267
2026-06-06 03:01:02.006,2598401462,159006,1,-0.20752,-0.79712,0.5769,0.603,2.298,0.664
2026-06-06 03:01:02.006,2598401462,159006,2,-0.875,-0.37671,-0.03638,0.435,1.649,-0.534
2026-06-06 03:01:02.206,2598401662,159206,1,-0.20776,-0.80151,0.57422,0.74,2.427,0.695
2026-06-06 03:01:02.206,2598401662,159206,2,-0.87329,-0.36743,-0.02856,0.496,1.718,-0.359
2026-06-06 03:01:02.406,2598401862,159406,1,-0.21167,-0.79956,0.57251,0.733,2.397,0.542
2026-06-06 03:01:02.406,2598401862,159406,2,-0.87817,-0.36719,-0.03027,0.427,1.595,-0.397
2026-06-06 03:01:03.606,2598403062,159606,1,-0.21069,-0.80493,0.55908,0.58,2.389,0.458
2026-06-06 03:01:03.606,2598403062,159606,2,-0.87939,-0.36938,-0.03101,0.573,1.611,-0.389
2026-06-06 03:01:03.806,2598403262,159806,1,-0.21265,-0.79932,0.57813,0.847,2.206,0.649
2026-06-06 03:01:03.806,2598403262,159806,2,-0.875,-0.37476,-0.03345,0.221,1.527,-0.359
2026-06-06 03:01:03.006,2598402462,160006,1,-0.20605,-0.7998,0.56372,0.527,2.252,0.519
2026-06-06 03:01:03.006,2598402462,160006,2,-0.87427,-0.37158,-0.02808,0.489,1.58,-0.397
2026-06-06 03:01:03.206,2598402662,160206,1,-0.20703,-0.79736,0.56909,0.656,2.473,0.489
2026-06-06 03:01:03.206,2598402662,160206,2,-0.8811,-0.3689,-0.03174,0.374,1.664,-0.443
2026-06-06 03:01:03.406,2598402862,160406,1,-0.21655,-0.80029,0.5686,0.695,2.198,0.595
2026-06-06 03:01:03.406,2598402862,160406,2,-0.87402,-0.36475,-0.03101,0.351,1.695,-0.427
2026-06-06 03:01:04.606,2598404062,160606,1,-0.21387,-0.79907,0.57178,0.656,2.282,0.504
2026-06-06 03:01:04.606,2598404062,160606,2,-0.87256,-0.36475,-0.04248,0.382,1.687,-0.443
2026-06-06 03:01:04.806,2598404262,160806,1,-0.20776,-0.80005,0.57007,0.985,2.519,0.58
2026-06-06 03:01:04.806,2598404262,160806,2,-0.87476,-0.36743,-0.02783,0.466,1.527,-0.634
2026-06-06 03:01:04.006,2598403462,161006,1,-0.20923,-0.79492,0.57739,0.985,2.275,0.565
2026-06-06 03:01:04.006,2598403462,161006,2,-0.87598,-0.37134,-0.04028,0.435,1.565,-0.359
2026-06-06 03:01:04.206,2598403662,161206,1,-0.2041,-0.79834,0.5647,0.771,2.267,0.679
2026-06-06 03:01:04.206,2598403662,161206,2,-0.87915,-0.37085,-0.02881,0.45,1.771,-0.489
2026-06-06 03:01:04.406,2598403862,161406,1,-0.20996,-0.79492,0.5708,0.74,2.382,0.504
2026-06-06 03:01:04.406,2598403862,161406,2,-0.87524,-0.3728,-0.04321,0.489,1.58,-0.55
2026-06-06 03:01:05.606,2598405062,161606,1,-0.21216,-0.79932,0.57129,0.656,2.366,0.519
2026-06-06 03:01:05.606,2598405062,161606,2,-0.87012,-0.36914,-0.03125,0.382,1.603,-0.687
2026-06-06 03:01:05.806,2598405262,161806,1,-0.20752,-0.79639,0.57056,0.611,2.366,0.435
2026-06-06 03:01:05.806,2598405262,161806,2,-0.87305,-0.37231,-0.03296,0.618,1.656,-0.656
2026-06-06 03:01:05.006,2598404462,162006,1,-0.21582,-0.79712,0.573,0.824,2.336,0.603
2026-06-06 03:01:05.006,2598404462,162006,2,-0.87964,-0.36572,-0.03711,0.366,1.664,-0.55
2026-06-06 03:01:05.206,2598404662,162206,1,-0.21362,-0.7959,0.57007,0.611,2.313,0.626
2026-06-06 03:01:05.206,2598404662,162206,2,-0.8811,-0.37158,-0.04199,0.573,1.519,-0.557
2026-06-06 03:01:05.406,2598404862,162406,1,-0.21216,-0.79688,0.56616,0.618,2.191,0.481
2026-06-06 03:01:05.406,2598404862,162406,2,-0.8728,-0.36816,-0.03101,0.466,1.435,-0.328
2026-06-06 03:01:06.606,2598406062,162606,1,-0.2146,-0.79663,0.57666,0.626,2.359,0.519
2026-06-06 03:01:06.606,2598406062,162606,2,-0.87207,-0.37109,-0.0354,0.672,1.565,-0.573
2026-06-06 03:01:06.806,2598406262,162806,1,-0.20435,-0.7959,0.56836,0.634,2.374,0.527
2026-06-06 03:01:06.806,2598406262,162806,2,-0.87329,-0.3728,-0.02417,0.55,1.725,-0.481
2026-06-06 03:01:06.006,2598405462,163006,1,-0.2041,-0.80078,0.56494,0.573,2.389,0.695
2026-06-06 03:01:06.006,2598405462,163006,2,-0.87427,-0.3667,-0.02954,0.42,1.725,-0.527
2026-06-06 03:01:06.206,2598405662,163206,1,-0.21216,-0.79858,0.56494,0.771,2.321,0.603
2026-06-06 03:01:06.206,2598405662,163206,2,-0.87817,-0.3728,-0.02271,0.511,1.664,-0.321
2026-06-06 03:01:06.406,2598405862,163406,1,-0.21338,-0.79883,0.56787,0.817,2.229,0.603
2026-06-06 03:01:06.406,2598405862,163406,2,-0.87573,-0.37402,-0.03418,0.473,1.618,-0.389
2026-06-06 03:01:07.606,2598407062,163606,1,-0.21631,-0.79541,0.57251,0.718,2.26,0.672
2026-06-06 03:01:07.606,2598407062,163606,2,-0.87939,-0.37207,-0.04175,0.458,1.58,-0.58
2026-06-06 03:01:07.806,2598407262,163806,1,-0.21216,-0.80005,0.57129,0.809,2.298,0.603
2026-06-06 03:01:07.806,2598407262,163806,2,-0.87793,-0.36816,-0.03931,0.336,1.695,-0.481
2026-06-06 03:01:07.006,2598406462,164006,1,-0.20532,-0.79395,0.57935,0.863,2.443,0.489
2026-06-06 03:01:07.006,2598406462,164006,2,-0.87036,-0.36426,-0.03149,0.527,1.679,-0.42
2026-06-06 03:01:07.006,2598406462,164006,2,-0.87036,-0.36426,-0.03149,0.527,1.679,-0.42
2026-06-06 03:01:12.129,2598411585,169129,1,-0.20581,-0.80396,0.57495,1.359,2.634,0.71
2026-06-06 03:01:12.129,2598411585,169129,2,-0.87524,-0.36987,-0.03857,0.397,1.824,-0.55
2026-06-06 03:01:12.329,2598411785,169329,1,-0.21094,-0.79688,0.57837,1.725,2.389,0.42
2026-06-06 03:01:12.329,2598411785,169329,2,-0.87646,-0.36719,-0.03198,0.351,1.351,-0.672
2026-06-06 03:01:12.529,2598411985,169529,1,-0.20923,-0.79932,0.58252,0.191,2.405,0.565
2026-06-06 03:01:12.529,2598411985,169529,2,-0.8728,-0.37402,-0.03394,0.412,2.0,-0.458
2026-06-06 03:01:13.729,2598413185,169729,1,-0.2063,-0.79468,0.56299,0.427,2.389,0.679
2026-06-06 03:01:13.729,2598413185,169729,2,-0.87744,-0.3728,-0.0415,0.282,1.878,-0.55
2026-06-06 03:01:13.929,2598413385,169929,1,-0.21021,-0.79883,0.57153,2.092,2.466,0.473
2026-06-06 03:01:13.929,2598413385,169929,2,-0.87329,-0.37939,-0.03345,0.55,1.55,-0.557
2026-06-06 03:01:13.129,2598412585,170129,1,-0.20947,-0.7981,0.56934,0.237,2.313,0.435
2026-06-06 03:01:13.129,2598412585,170129,2,-0.87329,-0.36938,-0.03955,0.45,1.641,-0.435
2026-06-06 03:01:13.329,2598412785,170329,1,-0.21021,-0.80225,0.57007,0.359,2.321,0.359
2026-06-06 03:01:13.329,2598412785,170329,2,-0.87451,-0.37549,-0.04517,0.427,1.679,-0.42
2026-06-06 03:01:13.529,2598412985,170529,1,-0.20898,-0.80054,0.56763,0.87,2.298,0.405
2026-06-06 03:01:13.529,2598412985,170529,2,-0.8728,-0.3728,-0.03198,0.45,1.496,-0.458
2026-06-06 03:01:14.729,2598414185,170729,1,-0.20313,-0.7959,0.57568,1.435,2.29,0.565
2026-06-06 03:01:14.729,2598414185,170729,2,-0.87256,-0.36816,-0.04272,0.458,1.649,-0.366
2026-06-06 03:01:14.929,2598414385,170929,1,-0.21436,-0.78906,0.5752,0.595,2.351,0.557
2026-06-06 03:01:14.929,2598414385,170929,2,-0.87354,-0.37427,-0.02637,0.313,1.679,-0.237
2026-06-06 03:01:14.129,2598413585,171129,1,-0.21045,-0.79663,0.57031,0.649,2.366,0.527
2026-06-06 03:01:14.129,2598413585,171129,2,-0.8728,-0.36719,-0.03687,0.397,1.618,-0.298
2026-06-06 03:01:14.329,2598413785,171329,1,-0.20825,-0.79688,0.57324,0.885,2.42,0.435
2026-06-06 03:01:14.329,2598413785,171329,2,-0.87305,-0.37109,-0.04517,0.397,1.664,-0.473
2026-06-06 03:01:14.529,2598413985,171529,1,-0.20581,-0.79956,0.56201,0.42,2.443,0.626
2026-06-06 03:01:14.529,2598413985,171529,2,-0.87915,-0.37061,-0.03345,0.534,1.649,-0.511
2026-06-06 03:01:15.729,2598415185,171729,1,-0.20898,-0.79858,0.58032,0.672,2.13,0.382
2026-06-06 03:01:15.729,2598415185,171729,2,-0.87476,-0.37329,-0.0293,0.435,1.527,-0.344
2026-06-06 03:01:15.935,2598415391,171935,1,-0.20728,-0.80054,0.56592,0.992,2.275,0.458
2026-06-06 03:01:15.935,2598415391,171935,2,-0.87061,-0.36987,-0.04395,0.389,1.527,-0.504
2026-06-06 03:01:15.135,2598414591,172135,1,-0.20581,-0.79419,0.56689,0.649,2.305,0.649
2026-06-06 03:01:15.135,2598414591,172135,2,-0.87451,-0.37305,-0.03223,0.42,1.779,-0.496
2026-06-06 03:01:15.335,2598414791,172335,1,-0.20898,-0.7998,0.58203,0.664,2.58,0.359
2026-06-06 03:01:15.335,2598414791,172335,2,-0.87183,-0.36816,-0.03613,0.481,1.542,-0.443
2026-06-06 03:01:15.535,2598414991,172535,1,-0.21191,-0.79712,0.57251,0.779,2.496,0.695
2026-06-06 03:01:15.535,2598414991,172535,2,-0.87817,-0.37158,-0.03735,0.344,1.71,-0.573
2026-06-06 03:01:16.735,2598416191,172735,1,-0.20581,-0.79126,0.57861,0.756,2.374,0.55
2026-06-06 03:01:16.735,2598416191,172735,2,-0.87866,-0.36768,-0.02686,0.435,1.664,-0.382
2026-06-06 03:01:16.935,2598416391,172935,1,-0.20752,-0.80176,0.57373,0.802,2.26,0.695
2026-06-06 03:01:16.935,2598416391,172935,2,-0.87939,-0.37085,-0.03198,0.534,1.641,-0.26
2026-06-06 03:01:16.135,2598415591,173135,1,-0.20459,-0.79761,0.57397,0.687,2.366,0.534
2026-06-06 03:01:16.135,2598415591,173135,2,-0.87817,-0.37207,-0.03735,0.313,1.58,-0.557
2026-06-06 03:01:16.335,2598415791,173335,1,-0.20728,-0.79468,0.56738,0.824,2.305,0.557
2026-06-06 03:01:16.335,2598415791,173335,2,-0.87964,-0.3667,-0.03174,0.595,1.634,-0.366
2026-06-06 03:01:16.535,2598415991,173535,1,-0.20508,-0.80127,0.5686,0.977,2.229,0.534
2026-06-06 03:01:16.535,2598415991,173535,2,-0.87915,-0.36499,-0.02783,0.351,1.809,-0.519
2026-06-06 03:01:17.735,2598417191,173735,1,-0.21143,-0.80176,0.5686,1.023,2.336,0.382
2026-06-06 03:01:17.735,2598417191,173735,2,-0.87354,-0.36426,-0.03882,0.527,1.687,-0.435
2026-06-06 03:01:17.935,2598417391,173935,1,-0.2085,-0.79126,0.56836,0.756,2.351,0.504
2026-06-06 03:01:17.935,2598417391,173935,2,-0.86938,-0.36792,-0.02588,0.267,1.809,-0.473
2026-06-06 03:01:17.135,2598416591,174135,1,-0.21069,-0.80176,0.5708,0.664,2.405,0.504
2026-06-06 03:01:17.135,2598416591,174135,2,-0.87524,-0.37549,-0.04175,0.519,1.664,-0.534
2026-06-06 03:01:17.335,2598416791,174335,1,-0.20898,-0.80151,0.5752,0.779,2.366,0.626
2026-06-06 03:01:17.335,2598416791,174335,2,-0.88135,-0.36719,-0.03198,0.412,1.672,-0.473
2026-06-06 03:01:17.535,2598416991,174535,1,-0.20923,-0.79663,0.57056,0.557,2.198,0.664
2026-06-06 03:01:17.535,2598416991,174535,2,-0.87158,-0.36621,-0.03442,0.405,1.756,-0.504
2026-06-06 03:01:18.735,2598418191,174735,1,-0.2063,-0.80322,0.57056,0.664,2.26,0.656
2026-06-06 03:01:18.735,2598418191,174735,2,-0.87549,-0.37158,-0.04126,0.328,1.45,-0.489
2026-06-06 03:01:18.935,2598418391,174935,1,-0.20898,-0.80298,0.57227,0.557,2.206,0.656
2026-06-06 03:01:18.935,2598418391,174935,2,-0.87866,-0.36938,-0.02368,0.466,1.664,-0.389
2026-06-06 03:01:18.135,2598417591,175135,1,-0.20972,-0.80737,0.56689,0.771,2.313,0.611
2026-06-06 03:01:18.135,2598417591,175135,2,-0.87573,-0.37183,-0.03369,0.321,1.603,-0.473
2026-06-06 03:01:18.335,2598417791,175335,1,-0.20801,-0.79834,0.57373,0.733,2.153,0.626
2026-06-06 03:01:18.335,2598417791,175335,2,-0.87964,-0.36865,-0.03125,0.321,1.779,-0.603
2026-06-06 03:01:18.535,2598417991,175535,1,-0.2124,-0.79736,0.57153,0.656,2.458,0.458
2026-06-06 03:01:18.535,2598417991,175535,2,-0.87964,-0.36768,-0.02808,0.351,1.718,-0.466
2026-06-06 03:01:19.735,2598419191,175735,1,-0.20605,-0.7998,0.57324,0.618,2.321,0.595
2026-06-06 03:01:19.735,2598419191,175735,2,-0.87134,-0.36694,-0.03442,0.305,1.664,-0.305
2026-06-06 03:01:19.935,2598419391,175935,1,-0.20996,-0.80005,0.55835,0.687,2.42,0.603
2026-06-06 03:01:19.935,2598419391,175935,2,-0.88062,-0.36963,-0.03418,0.229,1.542,-0.366
2026-06-06 03:01:19.135,2598418591,176135,1,-0.2063,-0.7959,0.57031,0.863,2.412,0.618
2026-06-06 03:01:19.135,2598418591,176135,2,-0.8772,-0.3667,-0.03101,0.435,1.756,-0.489
2026-06-06 03:01:19.335,2598418791,176335,1,-0.2085,-0.79858,0.57324,0.901,2.336,0.664
2026-06-06 03:01:19.335,2598418791,176335,2,-0.86987,-0.36987,-0.03418,0.435,1.649,-0.405
2026-06-06 03:01:19.535,2598418991,176535,1,-0.21021,-0.80273,0.5686,0.649,2.351,0.71
2026-06-06 03:01:19.535,2598418991,176535,2,-0.8772,-0.37134,-0.03369,0.427,1.611,-0.489
2026-06-06 03:01:20.735,2598420191,176735,1,-0.20947,-0.79688,0.56982,0.679,2.313,0.519
2026-06-06 03:01:20.735,2598420191,176735,2,-0.87329,-0.37231,-0.03516,0.534,1.725,-0.443
2026-06-06 03:01:20.935,2598420391,176935,1,-0.20996,-0.80347,0.57397,0.763,2.374,0.511
2026-06-06 03:01:20.935,2598420391,176935,2,-0.87329,-0.36963,-0.03369,0.29,1.634,-0.313
2026-06-06 03:01:20.135,2598419591,177135,1,-0.21265,-0.79932,0.573,0.763,2.412,0.634
2026-06-06 03:01:20.135,2598419591,177135,2,-0.8728,-0.36768,-0.04004,0.511,1.679,-0.45
2026-06-06 03:01:20.335,2598419791,177335,1,-0.21045,-0.79932,0.56787,0.763,2.527,0.511
2026-06-06 03:01:20.335,2598419791,177335,2,-0.87744,-0.36841,-0.02808,0.267,1.725,-0.336
2026-06-06 03:01:20.535,2598419991,177535,1,-0.20752,-0.79834,0.57861,0.832,2.382,0.565
2026-06-06 03:01:20.535,2598419991,177535,2,-0.87427,-0.36816,-0.02856,0.504,1.557,-0.565
2026-06-06 03:01:21.735,2598421191,177735,1,-0.21021,-0.79614,0.57251,0.771,2.458,0.687
2026-06-06 03:01:21.735,2598421191,177735,2,-0.87964,-0.36035,-0.02197,0.458,1.504,-0.534
2026-06-06 03:01:21.935,2598421391,177935,1,-0.20361,-0.80273,0.5647,0.481,2.321,0.519
2026-06-06 03:01:21.935,2598421391,177935,2,-0.87793,-0.36621,-0.03027,0.489,1.511,-0.511
2026-06-06 03:01:21.135,2598420591,178135,1,-0.21143,-0.79883,0.58472,0.786,2.313,0.672
2026-06-06 03:01:21.135,2598420591,178135,2,-0.87451,-0.37109,-0.03638,0.351,1.794,-0.435
2026-06-06 03:01:21.335,2598420791,178335,1,-0.20825,-0.79492,0.58691,0.893,2.397,0.656
2026-06-06 03:01:21.335,2598420791,178335,2,-0.88208,-0.37061,-0.03662,0.443,1.718,-0.435
2026-06-06 03:01:21.535,2598420991,178535,1,-0.21021,-0.7981,0.56812,0.786,2.275,0.664
2026-06-06 03:01:21.535,2598420991,178535,2,-0.87598,-0.36572,-0.02466,0.458,1.679,-0.466
2026-06-06 03:01:22.735,2598422191,178735,1,-0.20996,-0.80249,0.58008,0.679,2.344,0.55
2026-06-06 03:01:22.735,2598422191,178735,2,-0.87549,-0.37109,-0.0354,0.351,1.71,-0.389
2026-06-06 03:01:22.935,2598422391,178935,1,-0.20703,-0.79932,0.57251,0.779,2.26,0.725
2026-06-06 03:01:22.935,2598422391,178935,2,-0.87769,-0.37549,-0.03247,0.244,1.702,-0.595
2026-06-06 03:01:22.135,2598421591,179135,1,-0.20947,-0.80396,0.57593,0.779,2.275,0.702
2026-06-06 03:01:22.135,2598421591,179135,2,-0.87451,-0.37354,-0.03491,0.397,1.809,-0.42
2026-06-06 03:01:22.335,2598421791,179335,1,-0.21118,-0.80029,0.57886,0.557,2.305,0.656
2026-06-06 03:01:22.335,2598421791,179335,2,-0.87476,-0.37646,-0.03027,0.382,1.885,-0.565
2026-06-06 03:01:22.535,2598421991,179535,1,-0.2124,-0.7915,0.57837,1.076,2.366,0.542
2026-06-06 03:01:22.535,2598421991,179535,2,-0.87842,-0.36987,-0.04175,0.527,1.718,-0.427
2026-06-06 03:01:23.735,2598423191,179735,1,-0.21021,-0.79932,0.58008,0.405,2.305,0.679
2026-06-06 03:01:23.735,2598423191,179735,2,-0.86841,-0.36914,-0.03198,0.389,1.748,-0.695
2026-06-06 03:01:23.935,2598423391,179935,1,-0.2085,-0.79834,0.57202,0.71,2.519,0.603
2026-06-06 03:01:23.935,2598423391,179935,2,-0.87988,-0.36865,-0.02832,0.466,1.473,-0.321
2026-06-06 03:01:23.135,2598422591,180135,1,-0.20703,-0.79443,0.56201,1.893,2.29,0.779
2026-06-06 03:01:23.135,2598422591,180135,2,-0.88013,-0.37158,-0.03271,0.374,1.656,-0.412
2026-06-06 03:01:23.335,2598422791,180335,1,-0.20874,-0.80493,0.57446,1.16,2.344,0.527
2026-06-06 03:01:23.335,2598422791,180335,2,-0.87891,-0.37744,-0.02734,0.336,1.832,-0.481
2026-06-06 03:01:23.535,2598422991,180535,1,-0.21265,-0.79883,0.56982,1.137,2.328,0.588
2026-06-06 03:01:23.535,2598422991,180535,2,-0.86768,-0.375,-0.02954,0.412,1.779,-0.366
2026-06-06 03:01:24.735,2598424191,180735,1,-0.21484,-0.79541,0.58228,1.802,2.061,0.466
2026-06-06 03:01:24.735,2598424191,180735,2,-0.86865,-0.3728,-0.03394,0.405,1.87,-0.71
2026-06-06 03:01:24.935,2598424391,180935,1,-0.21167,-0.79883,0.56812,1.344,2.313,0.817
2026-06-06 03:01:24.935,2598424391,180935,2,-0.87671,-0.37524,-0.02881,0.221,1.893,-0.832
2026-06-06 03:01:24.135,2598423591,181135,1,-0.21387,-0.79956,0.57202,1.992,2.015,0.519
2026-06-06 03:01:24.135,2598423591,181135,2,-0.86694,-0.37158,-0.02832,0.42,1.893,-0.71
2026-06-06 03:01:24.335,2598423791,181335,1,-0.21069,-0.7981,0.5708,0.321,2.519,0.664
2026-06-06 03:01:24.335,2598423791,181335,2,-0.87842,-0.37085,-0.02905,0.603,1.817,-0.344
2026-06-06 03:01:24.535,2598423991,181535,1,-0.20728,-0.79419,0.56641,0.504,2.427,0.588
2026-06-06 03:01:24.535,2598423991,181535,2,-0.88037,-0.3728,-0.03149,0.321,1.847,-0.45
2026-06-06 03:01:25.735,2598425191,181735,1,-0.21094,-0.79907,0.5647,-0.427,2.351,0.405
2026-06-06 03:01:25.735,2598425191,181735,2,-0.87378,-0.3728,-0.03247,0.351,1.908,-0.824
2026-06-06 03:01:25.935,2598425391,181935,1,-0.21313,-0.80078,0.57642,1.305,2.183,0.359
2026-06-06 03:01:25.935,2598425391,181935,2,-0.87524,-0.37109,-0.03345,0.42,1.611,-0.481
2026-06-06 03:01:25.135,2598424591,182135,1,-0.20923,-0.79761,0.57031,1.092,2.252,0.313
2026-06-06 03:01:25.135,2598424591,182135,2,-0.87988,-0.36719,-0.04663,0.45,1.733,-0.618
2026-06-06 03:01:25.335,2598424791,182335,1,-0.21191,-0.79004,0.56592,0.023,2.466,0.42
2026-06-06 03:01:25.335,2598424791,182335,2,-0.87183,-0.36987,-0.03735,0.389,1.634,-0.832
2026-06-06 03:01:25.535,2598424991,182535,1,-0.2085,-0.80225,0.57446,0.893,2.382,0.573
2026-06-06 03:01:25.535,2598424991,182535,2,-0.8833,-0.37183,-0.02612,0.435,1.74,-0.275
2026-06-06 03:01:26.735,2598426191,182735,1,-0.21387,-0.79883,0.57056,0.718,2.412,0.588
2026-06-06 03:01:26.735,2598426191,182735,2,-0.87085,-0.3728,-0.0249,0.405,1.687,-0.069
2026-06-06 03:01:26.935,2598426391,182935,1,-0.2085,-0.80396,0.56348,2.802,2.16,0.595
2026-06-06 03:01:26.935,2598426391,182935,2,-0.87573,-0.37402,-0.02515,0.275,1.618,-0.55
2026-06-06 03:01:26.135,2598425591,183135,1,-0.21436,-0.79346,0.56616,1.794,2.214,0.496
2026-06-06 03:01:26.135,2598425591,183135,2,-0.87524,-0.37012,-0.03149,0.542,1.511,-0.511
2026-06-06 03:01:26.335,2598425791,183335,1,-0.20728,-0.79614,0.57788,1.046,2.481,0.634
2026-06-06 03:01:26.335,2598425791,183335,2,-0.87476,-0.37036,-0.03564,0.313,1.771,-0.611
2026-06-06 03:01:26.535,2598425991,183535,1,-0.21143,-0.79443,0.57373,1.023,2.168,0.481
2026-06-06 03:01:26.535,2598425991,183535,2,-0.87524,-0.37402,-0.02979,0.55,1.466,-0.183
2026-06-06 03:01:27.735,2598427191,183735,1,-0.20679,-0.79614,0.57324,0.397,2.351,0.595
2026-06-06 03:01:27.735,2598427191,183735,2,-0.88159,-0.36865,-0.02856,0.374,1.603,-0.321
2026-06-06 03:01:27.935,2598427391,183935,1,-0.21118,-0.79077,0.57764,0.328,2.298,0.573
2026-06-06 03:01:27.935,2598427391,183935,2,-0.8772,-0.36646,-0.03223,0.405,1.58,-0.359
2026-06-06 03:01:27.135,2598426591,184135,1,-0.21338,-0.79736,0.56958,1.092,2.282,0.588
2026-06-06 03:01:27.135,2598426591,184135,2,-0.87085,-0.3728,-0.04004,0.305,1.672,-0.366
2026-06-06 03:01:27.335,2598426791,184335,1,-0.20898,-0.79834,0.56226,0.672,2.344,0.542
2026-06-06 03:01:27.335,2598426791,184335,2,-0.87402,-0.37256,-0.03857,0.427,1.443,-0.519
2026-06-06 03:01:27.535,2598426991,184535,1,-0.21021,-0.80176,0.57031,0.809,2.321,0.71
2026-06-06 03:01:27.535,2598426991,184535,2,-0.87793,-0.37061,-0.04053,0.252,1.702,-0.481
2026-06-06 03:01:28.735,2598428191,184735,1,-0.20435,-0.80249,0.56201,0.725,2.496,0.481
2026-06-06 03:01:28.735,2598428191,184735,2,-0.87769,-0.36523,-0.02124,0.45,1.718,-0.595
2026-06-06 03:01:28.935,2598428391,184935,1,-0.21411,-0.79736,0.56641,0.664,2.389,0.618
2026-06-06 03:01:28.935,2598428391,184935,2,-0.87866,-0.36914,-0.0271,0.328,1.679,-0.534
2026-06-06 03:01:28.135,2598427591,185135,1,-0.20654,-0.7959,0.56641,0.656,2.298,0.466
2026-06-06 03:01:28.135,2598427591,185135,2,-0.87573,-0.37305,-0.02124,0.519,1.389,-0.344
2026-06-06 03:01:28.335,2598427791,185335,1,-0.21021,-0.79541,0.573,0.771,2.496,0.656
2026-06-06 03:01:28.335,2598427791,185335,2,-0.87476,-0.36475,-0.03735,0.374,1.573,-0.405
2026-06-06 03:01:28.535,2598427991,185535,1,-0.21045,-0.80591,0.57471,0.771,2.107,0.611
2026-06-06 03:01:28.535,2598427991,185535,2,-0.87622,-0.3645,-0.03271,0.374,1.557,-0.458
2026-06-06 03:01:29.735,2598429191,185735,1,-0.20532,-0.79639,0.57495,0.618,2.176,0.534
2026-06-06 03:01:29.735,2598429191,185735,2,-0.87183,-0.37476,-0.02832,0.519,1.511,-0.366
2026-06-06 03:01:29.935,2598429391,185935,1,-0.20776,-0.79785,0.5625,0.603,2.183,0.611
2026-06-06 03:01:29.935,2598429391,185935,2,-0.87402,-0.37085,-0.04346,0.573,1.74,-0.527
2026-06-06 03:01:29.135,2598428591,186135,1,-0.21143,-0.79956,0.56787,0.756,2.336,0.618
2026-06-06 03:01:29.135,2598428591,186135,2,-0.88037,-0.36743,-0.03076,0.45,1.656,-0.374
2026-06-06 03:01:29.335,2598428791,186335,1,-0.20996,-0.79541,0.56372,0.794,2.313,0.527
2026-06-06 03:01:29.335,2598428791,186335,2,-0.87744,-0.36987,-0.03613,0.519,1.595,-0.412
2026-06-06 03:01:29.535,2598428991,186535,1,-0.21118,-0.79785,0.55615,0.939,2.16,0.542
2026-06-06 03:01:29.535,2598428991,186535,2,-0.87476,-0.37476,-0.02563,0.366,1.733,-0.313
2026-06-06 03:01:30.735,2598430191,186735,1,-0.21021,-0.80298,0.57031,0.931,2.305,0.687
2026-06-06 03:01:30.735,2598430191,186735,2,-0.87622,-0.36865,-0.03638,0.214,1.679,-0.58
2026-06-06 03:01:30.935,2598430391,186935,1,-0.21118,-0.80127,0.57349,0.901,2.374,0.397
2026-06-06 03:01:30.935,2598430391,186935,2,-0.87305,-0.36548,-0.0271,0.359,1.565,-0.374
2026-06-06 03:01:30.135,2598429591,187135,1,-0.20752,-0.80688,0.56592,1.0,2.344,0.573
2026-06-06 03:01:30.135,2598429591,187135,2,-0.88306,-0.37451,-0.03174,0.412,1.595,-0.473
2026-06-06 03:01:30.335,2598429791,187335,1,-0.20776,-0.79956,0.56641,0.718,2.328,0.473
2026-06-06 03:01:30.335,2598429791,187335,1,-0.20776,-0.79956,0.56641,0.718,2.328,0.473
2026-06-06 03:01:30.335,2598429791,187335,2,-0.87476,-0.37793,-0.02954,0.458,1.702,-0.557
2026-06-06 03:01:35.455,2598434911,192455,1,-0.20459,-0.79736,0.57275,1.511,2.29,0.534
2026-06-06 03:01:35.455,2598434911,192455,2,-0.87549,-0.36987,-0.03125,0.191,1.611,-0.275
2026-06-06 03:01:36.655,2598436111,192655,1,-0.21045,-0.80127,0.57397,0.817,2.359,0.527
2026-06-06 03:01:36.655,2598436111,192655,2,-0.87891,-0.36304,-0.02466,0.42,1.466,-0.489
2026-06-06 03:01:36.855,2598436311,192855,1,-0.21167,-0.79932,0.56763,-0.573,2.557,0.542
2026-06-06 03:01:36.855,2598436311,192855,2,-0.87988,-0.37622,-0.02905,0.267,1.763,-0.443
2026-06-06 03:01:36.055,2598435511,193055,1,-0.2124,-0.79395,0.57202,0.954,2.473,0.458
2026-06-06 03:01:36.055,2598435511,193055,2,-0.87305,-0.37231,-0.02686,0.565,1.473,-0.496
2026-06-06 03:01:36.255,2598435711,193255,1,-0.21704,-0.80054,0.58252,1.649,2.198,0.489
2026-06-06 03:01:36.255,2598435711,193255,2,-0.87305,-0.37036,-0.03125,0.527,1.672,-0.695
2026-06-06 03:01:36.455,2598435911,193455,1,-0.20679,-0.7998,0.57813,1.145,2.206,0.649
2026-06-06 03:01:36.455,2598435911,193455,2,-0.87915,-0.37524,-0.03052,0.275,1.809,-0.733
2026-06-06 03:01:37.655,2598437111,193655,1,-0.20752,-0.79175,0.56812,,2.443,0.832
2026-06-06 03:01:37.655,2598437111,193655,2,-0.87427,-0.37378,-0.03247,0.351,1.489,-0.344
2026-06-06 03:01:37.855,2598437311,193855,1,-0.20728,-0.79932,0.57007,1.229,2.359,0.473
2026-06-06 03:01:37.855,2598437311,193855,2,-0.87109,-0.37158,-0.03027,0.351,1.511,-0.626
2026-06-06 03:01:37.055,2598436511,194055,1,-0.21021,-0.80054,0.57349,0.42,2.542,0.817
2026-06-06 03:01:37.055,2598436511,194055,2,-0.87573,-0.37549,-0.03101,0.359,2.008,-0.611
2026-06-06 03:01:37.255,2598436711,194255,1,-0.21362,-0.79663,0.56812,3.198,2.305,0.626
2026-06-06 03:01:37.255,2598436711,194255,2,-0.87451,-0.37231,-0.03564,0.366,1.847,-0.252
2026-06-06 03:01:37.255,2598436711,194255,2,-0.87451,-0.37231,-0.03564,0.366,1.847,-0.252
2026-06-06 03:01:42.369,2598441825,199369,1,-0.21997,-0.78857,0.58154,0.779,2.351,0.573
2026-06-06 03:01:42.369,2598441825,199369,2,-0.8772,-0.36841,-0.03979,0.313,1.519,-0.443
2026-06-06 03:01:43.569,2598443025,199569,1,-0.21997,-0.79053,0.57886,0.802,2.237,0.504
2026-06-06 03:01:43.569,2598443025,199569,2,-0.87402,-0.37085,-0.04053,0.397,1.618,-0.504
2026-06-06 03:01:43.769,2598443225,199769,1,-0.21802,-0.7915,0.57593,0.718,2.351,0.466
2026-06-06 03:01:43.769,2598443225,199769,2,-0.87744,-0.37305,-0.03833,0.237,1.618,-0.527
2026-06-06 03:01:43.969,2598443425,199969,1,-0.21704,-0.79004,0.57544,0.84,2.389,0.496
2026-06-06 03:01:43.969,2598443425,199969,2,-0.87915,-0.36914,-0.03296,0.389,1.618,-0.313
2026-06-06 03:01:43.169,2598442625,200169,1,-0.22095,-0.7915,0.5813,0.962,2.282,0.573
2026-06-06 03:01:43.169,2598442625,200169,2,-0.87524,-0.36865,-0.03833,0.351,1.542,-0.481
2026-06-06 03:01:43.369,2598442825,200369,1,-0.21924,-0.7854,0.5835,0.74,2.397,0.405
2026-06-06 03:01:43.369,2598442825,200369,2,-0.87842,-0.36304,-0.03247,0.519,1.664,-0.542
2026-06-06 03:01:44.569,2598444025,200569,1,-0.21606,-0.79175,0.59302,0.557,2.351,0.618
2026-06-06 03:01:44.569,2598444025,200569,2,-0.875,-0.37256,-0.021,0.374,1.687,-0.359
2026-06-06 03:01:44.769,2598444225,200769,1,-0.21509,-0.78003,0.58276,0.817,2.427,0.542
2026-06-06 03:01:44.769,2598444225,200769,2,-0.87036,-0.37451,-0.0332,0.481,1.626,-0.389
2026-06-06 03:01:44.969,2598444425,200969,1,-0.21362,-0.7937,0.58813,0.924,2.389,0.58
2026-06-06 03:01:44.969,2598444425,200969,2,-0.88037,-0.37402,-0.03809,0.603,1.58,-0.527
2026-06-06 03:01:44.169,2598443625,201169,1,-0.22095,-0.79224,0.58032,0.58,2.374,0.664
2026-06-06 03:01:44.169,2598443625,201169,2,-0.87305,-0.36743,-0.02979,0.252,1.626,-0.45
2026-06-06 03:01:44.369,2598443825,201369,1,-0.21851,-0.79248,0.58569,0.649,2.359,0.489
2026-06-06 03:01:44.369,2598443825,201369,2,-0.87842,-0.36914,-0.03223,0.466,1.84,-0.42
2026-06-06 03:01:45.569,2598445025,201569,1,-0.21777,-0.79321,0.5769,0.718,2.313,0.611
2026-06-06 03:01:45.569,2598445025,201569,2,-0.87817,-0.37476,-0.02954,0.427,1.603,-0.527
2026-06-06 03:01:45.769,2598445225,201769,1,-0.21118,-0.7937,0.58594,0.84,2.328,0.573
2026-06-06 03:01:45.769,2598445225,201769,2,-0.8728,-0.37598,-0.03027,0.389,1.634,-0.42
2026-06-06 03:01:45.969,2598445425,201969,1,-0.21973,-0.78906,0.58643,0.542,2.298,0.504
2026-06-06 03:01:45.969,2598445425,201969,2,-0.8728,-0.37109,-0.03003,0.427,1.756,-0.557
2026-06-06 03:01:45.169,2598444625,202169,1,-0.22168,-0.78906,0.57861,0.649,2.267,0.466
2026-06-06 03:01:45.169,2598444625,202169,2,-0.87695,-0.37134,-0.04126,0.382,1.725,-0.435
2026-06-06 03:01:45.369,2598444825,202369,1,-0.21899,-0.79492,0.58252,0.71,2.267,0.542
2026-06-06 03:01:45.369,2598444825,202369,2,-0.87378,-0.3689,-0.04883,0.481,1.656,-0.389
2026-06-06 03:01:46.569,2598446025,202569,1,-0.22412,-0.78809,0.59009,0.802,2.168,0.611
2026-06-06 03:01:46.569,2598446025,202569,2,-0.87012,-0.36938,-0.03589,0.26,1.695,-0.626
2026-06-06 03:01:46.769,2598446225,202769,1,-0.22095,-0.78442,0.58179,0.725,2.412,0.588
2026-06-06T03:15:07.912101,,,,,,,,,
2026-06-06 03:15:08.282,2599247738,5282,1,-0.21167,-0.80103,0.57031,0.809,2.115,0.458
2026-06-06 03:15:08.282,2599247738,5282,2,-0.83032,-0.45093,-0.10254,0.29,1.748,-0.626
2026-06-06 03:15:09.482,2599248938,5482,1,-0.20728,-0.79883,0.56494,0.87,2.542,0.611
2026-06-06 03:15:09.482,2599248938,5482,2,-0.83008,-0.4458,-0.10522,0.038,1.328,-0.26
2026-06-06 03:15:09.682,2599249138,5682,1,-0.20508,-0.7981,0.57422,0.809,2.374,0.626
2026-06-06 03:15:09.682,2599249138,5682,2,-0.83691,-0.4458,-0.10864,0.55,1.466,-0.595
2026-06-06 03:15:09.882,2599249338,5882,1,-0.20313,-0.80225,0.56836,0.802,2.397,0.55
2026-06-06 03:15:09.882,2599249338,5882,2,-0.82446,-0.44751,-0.10327,0.244,1.443,-0.55
2026-06-06 03:15:09.082,2599248538,6082,1,-0.20654,-0.79907,0.57153,1.061,2.435,0.618
2026-06-06 03:15:09.082,2599248538,6082,2,-0.83032,-0.45093,-0.104,0.412,1.328,-0.206
2026-06-06 03:15:09.282,2599248738,6282,1,-0.21021,-0.80322,0.573,0.534,2.565,0.626
2026-06-06 03:15:09.282,2599248738,6282,2,-0.83008,-0.44775,-0.10522,0.702,1.962,-1.015
2026-06-06 03:15:10.482,2599249938,6482,1,-0.20557,-0.80835,0.56787,0.954,2.435,0.496
2026-06-06 03:15:10.482,2599249938,6482,2,-0.83374,-0.4458,-0.10205,0.267,1.763,-0.397
2026-06-06 03:15:10.682,2599250138,6682,1,-0.2041,-0.80151,0.56494,0.786,2.313,0.603
2026-06-06 03:15:10.682,2599250138,6682,2,-0.8291,-0.44971,-0.10034,0.527,1.649,-0.58
2026-06-06 03:15:10.882,2599250338,6882,1,-0.20752,-0.78613,0.5647,2.458,2.153,0.916
2026-06-06 03:15:10.882,2599250338,6882,2,-0.83716,-0.48364,-0.10498,1.382,1.038,-1.206
2026-06-06 03:15:10.082,2599249538,7082,1,-0.25269,-0.896,0.60376,-11.382,3.84,-1.107
2026-06-06 03:15:10.082,2599249538,7082,2,-0.80688,-0.47217,-0.10278,5.695,-0.137,-8.458
2026-06-06 03:15:10.282,2599249738,7282,1,-0.21216,-0.78589,0.56616,4.275,2.031,1.282
2026-06-06 03:15:10.282,2599249738,7282,2,-0.83984,-0.45142,-0.11084,-0.267,0.031,2.13
2026-06-06 03:15:11.482,2599250938,7482,1,-0.20044,-0.79639,0.57935,0.947,2.603,0.466
2026-06-06 03:15:11.482,2599250938,7482,2,-0.82446,-0.45654,-0.11133,0.725,1.527,-0.885
2026-06-06 03:15:11.682,2599251138,7682,1,-0.20947,-0.79541,0.57104,1.076,2.489,0.534
2026-06-06 03:15:11.682,2599251138,7682,2,-0.82446,-0.45654,-0.10889,0.42,1.473,-0.427
2026-06-06 03:15:11.882,2599251338,7882,1,-0.21265,-0.78882,0.58008,0.718,2.229,0.527
2026-06-06 03:15:11.882,2599251338,7882,2,-0.83667,-0.46021,-0.11597,0.504,1.763,-0.58
2026-06-06 03:15:11.082,2599250538,8082,1,-0.20508,-0.79346,0.58301,0.664,2.229,0.359
2026-06-06 03:15:11.082,2599250538,8082,2,-0.82813,-0.4585,-0.10498,0.397,1.664,-0.435
2026-06-06 03:15:11.282,2599250738,8282,1,-0.20239,-0.79761,0.57202,0.611,2.359,0.42
2026-06-06 03:15:11.282,2599250738,8282,2,-0.82422,-0.45898,-0.11279,0.489,1.817,-0.519
2026-06-06 03:15:12.482,2599251938,8482,1,-0.21631,-0.79761,0.5769,0.74,2.244,0.473
2026-06-06 03:15:12.482,2599251938,8482,2,-0.82788,-0.46094,-0.11304,0.443,1.618,-0.504
2026-06-06 03:15:12.938,2599252394,8938,1,-0.20679,-0.79858,0.57446,0.626,2.252,0.687
2026-06-06 03:15:12.938,2599252394,8938,2,-0.82471,-0.45483,-0.11255,0.519,1.618,-0.496
2026-06-06 03:15:12.138,2599251594,9138,1,-0.20581,-0.80396,0.57251,0.603,2.282,0.519
2026-06-06 03:15:12.138,2599251594,9138,2,-0.8269,-0.46069,-0.10474,0.595,1.611,-0.611
2026-06-06 03:15:12.338,2599251794,9338,1,-0.2063,-0.80176,0.57153,0.817,2.305,0.504
2026-06-06 03:15:12.338,2599251794,9338,2,-0.82129,-0.45654,-0.10962,0.397,1.611,-0.42
2026-06-06 03:15:13.538,2599252994,9538,1,-0.2124,-0.79932,0.56396,0.611,2.351,0.664
2026-06-06 03:15:13.538,2599252994,9538,2,-0.82666,-0.45459,-0.11108,0.458,1.641,-0.466
2026-06-06 03:15:13.738,2599253194,9738,1,-0.20313,-0.79932,0.58691,0.573,2.122,0.649
2026-06-06 03:15:13.738,2599253194,9738,2,-0.82788,-0.46069,-0.11108,0.221,1.595,-0.519
2026-06-06 03:15:13.938,2599253394,9938,1,-0.20825,-0.80566,0.57642,0.794,2.16,0.664
2026-06-06 03:15:13.938,2599253394,9938,2,-0.82739,-0.45337,-0.11694,0.473,1.626,-0.45
2026-06-06 03:15:13.138,2599252594,10138,1,-0.20508,-0.7937,0.58105,0.489,2.473,0.664
2026-06-06 03:15:13.138,2599252594,10138,2,-0.82983,-0.46045,-0.1084,0.42,1.725,-0.443
2026-06-06 03:15:13.338,2599252794,10338,1,-0.20557,-0.7998,0.573,0.84,2.137,0.718
2026-06-06 03:15:13.338,2599252794,10338,2,-0.8269,-0.45825,-0.10181,0.626,1.679,-0.504
2026-06-06 03:15:14.538,2599253994,10538,1,-0.2002,-0.79785,0.58179,0.832,2.481,0.557
2026-06-06 03:15:14.538,2599253994,10538,2,-0.82568,-0.45728,-0.11182,0.473,1.771,-0.534
2026-06-06 03:15:14.738,2599254194,10738,1,-0.21606,-0.7937,0.57568,0.351,2.198,0.71
2026-06-06 03:15:14.738,2599254194,10738,2,-0.82886,-0.46143,-0.10986,0.45,1.565,-0.511
2026-06-06 03:15:14.938,2599254394,10938,1,-0.20801,-0.8042,0.56689,0.634,2.397,0.702
