datetime,epoch_ms,ts_millis,mpu_id,ax,ay,az,gx,gy,gz
2026-06-11T17:23:52.275344,,,,,,,,,
2026-06-11 17:23:52.075,3082171531,8075,1,0.49316,-0.23047,0.9082,40.45,69.168,12.893
2026-06-11 17:23:52.075,3082171531,8075,2,1.00269,-0.16992,0.01685,-0.985,-0.267,-3.748
2026-06-11 17:23:52.275,3082171731,8275,1,0.79492,-0.1687,0.71021,-6.962,3.198,-3.267
2026-06-11 17:23:52.275,3082171731,8275,2,1.06079,-0.21582,-0.00781,0.145,-6.244,2.473
2026-06-11 17:23:52.515,3082171971,8515,1,0.68066,-0.67505,0.85352,-17.282,-6.237,-62.053
2026-06-11 17:23:52.515,3082171971,8515,2,1.01758,-0.22705,-0.03687,11.053,-1.42,1.901
2026-06-11 17:23:53.715,3082173171,8715,1,0.77856,-0.2168,0.71021,16.26,33.107,-0.069
2026-06-11 17:23:53.715,3082173171,8715,2,1.05103,-0.21094,-0.03516,-7.405,-0.832,-1.069
2026-06-11 17:23:53.915,3082173371,8915,1,0.73511,-0.15259,0.80005,21.137,39.382,9.237
2026-06-11 17:23:53.915,3082173371,8915,2,1.04077,-0.2063,-0.01758,4.183,6.939,-0.87
2026-06-11 17:23:53.156,3082172612,9156,1,0.75879,-0.18286,0.7439,-3.053,0.679,-0.985
2026-06-11 17:23:53.156,3082172612,9156,2,1.03345,-0.20093,-0.00391,-4.985,-6.145,0.313
2026-06-11 17:23:53.356,3082172812,9356,1,0.76343,-0.17725,0.73047,-0.748,1.695,0.824
2026-06-11 17:23:53.356,3082172812,9356,2,1.03223,-0.2168,-0.02148,1.13,-0.214,1.267
2026-06-11 17:23:53.556,3082173012,9556,1,0.77661,-0.19507,0.7063,0.634,-1.42,1.229
2026-06-11 17:23:53.556,3082173012,9556,2,1.04053,-0.21631,-0.0332,-0.458,-0.313,0.122
2026-06-11 17:23:54.794,3082174250,9794,1,0.79297,-0.18921,0.71582,-0.511,1.252,-1.099
2026-06-11 17:23:54.794,3082174250,9794,2,1.03784,-0.22266,-0.04102,-0.496,-1.565,0.031
2026-06-11 17:23:54.994,3082174450,9994,1,0.80005,-0.17798,0.69971,0.992,1.466,-0.137
2026-06-11 17:23:54.994,3082174450,9994,2,1.03638,-0.21387,-0.04297,0.389,-0.382,-0.672
2026-06-11 17:23:54.194,3082173650,10194,1,0.80225,-0.177,0.69897,0.046,2.237,0.107
2026-06-11 17:23:54.194,3082173650,10194,2,1.03125,-0.22119,-0.05835,0.916,1.321,-0.122
2026-06-11 17:23:54.394,3082173850,10394,1,0.80151,-0.18579,0.7019,0.527,2.603,0.939
2026-06-11 17:23:54.394,3082173850,10394,2,1.03223,-0.22314,-0.05054,1.473,1.908,0.031
2026-06-11 17:23:54.594,3082174050,10594,1,0.79932,-0.18408,0.7063,0.893,3.122,1.412
2026-06-11 17:23:54.594,3082174050,10594,2,1.04614,-0.24731,-0.10718,2.221,5.542,0.962
2026-06-11 17:23:55.794,3082175250,10794,1,0.81372,-0.1731,0.62183,-1.977,2.71,6.473
2026-06-11 17:23:55.794,3082175250,10794,2,1.03345,-0.26001,-0.02539,-23.947,-0.099,0.145
2026-06-11 17:23:55.994,3082175450,10994,1,0.90625,-0.26392,0.63037,6.45,26.489,5.275
2026-06-11 17:23:55.994,3082175450,10994,2,1.0791,-0.18799,0.0166,20.756,58.496,-21.015
2026-06-11 17:23:55.194,3082174650,11194,1,0.89233,-0.16382,0.57471,23.359,63.023,0.634
2026-06-11 17:23:55.194,3082174650,11194,2,1.0498,-0.19604,0.26929,40.122,101.244,-16.076
2026-06-11 17:23:55.394,3082174850,11394,1,0.25903,-0.1438,1.25537,13.863,60.878,18.237
2026-06-11 17:23:55.394,3082174850,11394,2,0.99219,0.03491,0.72168,7.687,17.992,-12.321
2026-06-11 17:23:55.594,3082175050,11594,1,0.30762,-0.08618,1.12451,2.015,-6.336,-5.908
2026-06-11 17:23:55.594,3082175050,11594,2,0.86255,0.0105,0.53394,-12.443,-16.534,-2.29
2026-06-11 17:23:56.794,3082176250,11794,1,0.25366,-0.09473,0.80225,-20.229,-42.26,-17.069
2026-06-11 17:23:56.794,3082176250,11794,2,0.74316,-0.03979,0.37256,-28.939,-62.489,16.229
2026-06-11 17:23:56.994,3082176450,11994,1,0.68384,-0.20068,0.74731,-29.534,-26.794,-18.198
2026-06-11 17:23:56.994,3082176450,11994,2,1.11206,-0.18359,0.25586,-28.977,-8.13,-8.443
2026-06-11 17:23:56.194,3082175650,12194,1,0.82983,-0.24414,0.61743,4.893,44.252,-5.0
2026-06-11 17:23:56.194,3082175650,12194,2,1.13965,-0.1084,0.42847,33.084,97.16,-23.786
2026-06-11 17:23:56.394,3082175850,12394,1,0.09253,0.15894,0.7002,66.473,163.214,-9.58
2026-06-11 17:23:56.394,3082175850,12394,2,0.87085,0.07324,0.6897,29.924,110.71,-21.267
2026-06-11 17:23:56.594,3082176050,12594,1,-0.62622,0.2666,1.57837,14.458,60.84,19.58
2026-06-11 17:23:56.594,3082176050,12594,2,0.53638,0.33447,1.01538,25.832,-38.122,45.496
2026-06-11 17:23:57.794,3082177250,12794,1,-0.3894,0.0271,1.13379,-39.16,-164.122,22.0
2026-06-11 17:23:57.794,3082177250,12794,2,1.00659,0.08936,0.48364,14.458,-183.092,74.954
2026-06-11 17:23:57.994,3082177450,12994,1,0.57886,-0.20337,0.41602,-27.366,-123.595,9.527
2026-06-11 17:23:57.994,3082177450,12994,2,1.05859,-0.20776,0.2793,-12.397,-108.458,36.069
2026-06-11 17:23:57.194,3082176650,13194,1,0.84229,-0.30737,0.62891,-6.282,-32.382,0.466
2026-06-11 17:23:57.194,3082176650,13194,2,1.05688,-0.30981,0.02612,23.863,-40.435,10.87
2026-06-11 17:23:57.397,3082176853,13397,1,0.86108,-0.35645,0.57031,14.977,3.214,16.26
2026-06-11 17:23:57.397,3082176853,13397,2,1.02856,-0.35815,0.10278,12.885,8.099,-2.809
2026-06-11 17:23:57.597,3082177053,13597,1,0.84375,-0.18896,0.86841,37.473,35.962,47.733
2026-06-11 17:23:57.597,3082177053,13597,2,1.16406,-0.18579,0.13257,71.405,56.931,29.687
2026-06-11 17:23:58.797,3082178253,13797,1,0.70264,-0.00269,0.66138,69.84,55.321,96.71
2026-06-11 17:23:58.797,3082178253,13797,2,1.05371,-0.12085,0.32349,85.595,78.435,24.702
2026-06-11 17:23:58.001,3082177457,14001,1,0.08203,0.08252,0.70215,56.519,134.382,72.771
2026-06-11 17:23:58.001,3082177457,14001,2,0.68726,0.11792,0.37012,74.809,116.557,-21.008
2026-06-11 17:23:58.201,3082177657,14201,1,-0.43457,-0.08813,1.21191,53.328,95.191,64.374
2026-06-11 17:23:58.201,3082177657,14201,2,0.45386,0.29736,0.92944,84.84,45.458,-4.794
2026-06-11 17:23:58.401,3082177857,14401,1,-0.52832,0.03125,1.13525,8.947,18.817,-0.969
2026-06-11 17:23:58.401,3082177857,14401,2,0.39941,0.25391,1.03564,-9.557,-0.061,2.55
2026-06-11 17:23:58.601,3082178057,14601,1,-0.33813,0.00415,0.94507,-4.641,-16.137,-4.328
2026-06-11 17:23:58.601,3082178057,14601,2,0.43823,0.19287,0.98218,-13.046,-9.069,0.947
2026-06-11 17:23:59.801,3082179257,14801,1,-0.30566,0.00098,0.98657,-5.87,-0.344,5.664
2026-06-11 17:23:59.801,3082179257,14801,2,0.48267,0.18408,0.97974,-1.504,-0.641,9.748
2026-06-11 17:23:59.001,3082178457,15001,1,-0.29932,-0.04541,1.00781,-6.13,-1.916,5.092
2026-06-11 17:23:59.001,3082178457,15001,2,0.49268,0.16748,0.97925,1.313,0.611,5.74
2026-06-11 17:23:59.201,3082178657,15201,1,-0.29102,-0.04077,1.0,-2.679,1.382,4.084
2026-06-11 17:23:59.201,3082178657,15201,2,0.48438,0.17334,0.98218,-0.634,2.542,3.298
2026-06-11 17:23:59.401,3082178857,15401,1,-0.30444,-0.05884,1.00806,-4.977,2.244,0.29
2026-06-11 17:23:59.401,3082178857,15401,2,0.48022,0.15869,0.99756,1.061,-1.473,-1.664
2026-06-11 17:23:59.601,3082179057,15601,1,-0.2937,-0.0603,1.0022,4.168,-2.962,-3.237
2026-06-11 17:23:59.601,3082179057,15601,2,0.49707,0.17822,0.97754,-1.809,-3.489,-3.382
2026-06-11 17:24:00.801,3082180257,15801,1,-0.28613,-0.06567,1.02295,3.336,-1.076,-4.748
2026-06-11 17:24:00.801,3082180257,15801,2,0.51538,0.16699,0.97241,-4.16,-4.611,-6.824
2026-06-11 17:24:00.001,3082179457,16001,1,-0.26099,-0.06128,1.02563,3.817,-2.412,-5.519
2026-06-11 17:24:00.001,3082179457,16001,2,0.53687,0.17944,0.9707,-1.557,-6.344,-6.305
2026-06-11 17:24:00.201,3082179657,16201,1,-0.21924,-0.04761,0.99609,-0.718,-6.015,-4.763
2026-06-11 17:24:00.201,3082179657,16201,2,0.56348,0.16406,0.9751,-7.084,-13.733,-2.015
2026-06-11 17:24:00.401,3082179857,16401,1,-0.43408,-0.04224,1.37891,-23.618,-51.427,-16.672
2026-06-11 17:24:00.401,3082179857,16401,2,0.6626,0.11206,0.90576,-38.359,-82.183,20.496
2026-06-11 17:24:00.601,3082180057,16601,1,-0.01001,-0.10693,0.71118,-63.366,-164.145,-48.962
2026-06-11 17:24:00.601,3082180057,16601,2,0.77832,-0.11035,0.33228,-89.42,-123.122,19.221
2026-06-11 17:24:01.801,3082181257,16801,1,0.96826,-0.32227,0.52197,-11.405,-61.427,-18.069
2026-06-11 17:24:01.801,3082181257,16801,2,1.03052,-0.05542,-0.02881,-10.435,-38.573,-37.443
2026-06-11 17:24:01.009,3082180465,17009,1,0.86011,-0.18628,0.44727,11.122,5.015,0.702
2026-06-11 17:24:01.009,3082180465,17009,2,0.84082,-0.03979,-0.0354,53.527,46.847,10.901
2026-06-11 17:24:01.209,3082180665,17209,1,1.05493,-0.51855,0.93481,-13.977,22.397,14.779
2026-06-11 17:24:01.209,3082180665,17209,2,0.88745,-0.00098,0.35864,-94.588,38.756,-23.679
2026-06-11 17:24:01.409,3082180865,17409,1,0.52661,-0.46362,0.64941,-20.84,28.733,-32.466
2026-06-11 17:24:01.409,3082180865,17409,2,0.88452,-0.54907,0.06909,-21.595,-6.855,7.931
2026-06-11 17:24:01.609,3082181065,17609,1,0.61133,-0.52246,0.72339,52.748,-43.649,69.519
2026-06-11 17:24:01.609,3082181065,17609,2,1.27588,-0.2749,0.1875,197.824,-66.16,33.092
2026-06-11 17:24:02.809,3082182265,17809,1,0.98608,-0.15698,0.72095,18.458,-12.489,37.802
2026-06-11 17:24:02.809,3082182265,17809,2,0.97314,0.0542,0.06812,153.87,-43.824,1.374
2026-06-11 17:24:02.009,3082181465,18009,1,0.82129,-0.052,0.70679,-6.481,-9.817,17.954
2026-06-11 17:24:02.009,3082181465,18009,2,0.98804,-0.01001,0.1665,58.13,44.763,19.344
2026-06-11 17:24:02.209,3082181665,18209,1,0.80542,-0.29688,0.76343,-48.244,14.71,-18.275
2026-06-11 17:24:02.209,3082181665,18209,2,0.94312,-0.20947,0.1748,36.641,93.122,10.435
2026-06-11 17:24:02.409,3082181865,18409,1,0.76929,-0.29736,0.80444,-12.908,-1.84,-27.824
2026-06-11 17:24:02.409,3082181865,18409,2,1.32202,-0.26538,0.17944,15.0,150.053,-24.893
2026-06-11 17:24:02.609,3082182065,18609,1,0.59863,-0.46558,0.88477,-221.405,137.931,-92.71
2026-06-11 17:24:02.609,3082182065,18609,2,0.35938,-0.38574,1.31396,250.13,-250.137,250.13
2026-06-11 17:24:03.809,3082183265,18809,1,0.86523,-0.12427,0.70801,-109.588,-0.725,-25.321
2026-06-11 17:24:03.809,3082183265,18809,2,0.99927,-0.19409,0.13403,25.405,117.504,-6.763
2026-06-11 17:24:03.009,3082182465,19009,1,0.74561,-0.16968,0.73853,-34.931,16.29,-8.168
2026-06-11 17:24:03.009,3082182465,19009,2,1.02881,-0.12378,0.22388,-16.092,16.511,-3.55
2026-06-11T17:24:03.565100,,,,,,,,,
2026-06-11 17:24:03.209,3082182665,19209,1,0.66455,-0.23584,0.78979,0.931,11.382,2.802
2026-06-11 17:24:03.209,3082182665,19209,2,0.98022,-0.1394,0.27002,0.031,-37.214,2.756
2026-06-11 17:24:03.409,3082182865,19409,1,0.54639,-0.18652,0.72485,-8.641,-5.176,9.145
2026-06-11 17:24:03.409,3082182865,19409,2,0.71606,-0.10059,-0.25146,-13.908,-17.84,-12.168
2026-06-11 17:24:03.609,3082183065,19609,1,0.73389,-0.20728,0.72729,-9.344,-17.672,-3.863
2026-06-11 17:24:03.609,3082183065,19609,2,1.37744,0.04712,0.28589,9.992,-63.252,-4.069
2026-06-11 17:24:04.809,3082184265,19809,1,0.75488,-0.26709,0.75098,31.855,3.618,4.42
2026-06-11 17:24:04.809,3082184265,19809,2,0.98315,-0.18677,0.20508,-17.626,45.618,-17.863
2026-06-11 17:24:04.102,3082183558,20102,1,0.74438,-0.2146,0.81128,3.191,6.0,-2.626
2026-06-11 17:24:04.102,3082183558,20102,2,1.02734,-0.19312,0.28345,-27.649,-29.939,-7.191
2026-06-11 17:24:04.331,3082183787,20331,1,0.74219,-0.12939,0.75098,10.229,-22.489,-13.771
2026-06-11 17:24:04.331,3082183787,20331,2,1.84961,-0.29907,-0.14697,-5.176,-3.977,9.115
2026-06-11 17:24:04.667,3082184123,20667,1,0.96826,-0.21021,0.38159,19.511,69.679,9.221
2026-06-11 17:24:04.667,3082184123,20667,2,0.98169,-0.22241,0.16309,-8.427,-20.84,-6.435
2026-06-11 17:24:04.667,3082184123,20667,2,0.98169,-0.22241,0.16309,-8.427,-20.84,-6.435
2026-06-11 17:24:10.034,3082189490,26033,1,0.82104,-0.15894,0.56274,9.847,-1.282,1.916
2026-06-11 17:24:10.034,3082189490,26033,2,1.02173,-0.25122,0.0498,-64.504,-51.252,-27.435
2026-06-11 17:24:10.233,3082189689,26233,1,0.94263,-0.21289,0.49805,-52.588,7.847,-46.893
2026-06-11 17:24:10.233,3082189689,26233,2,0.93896,-0.30493,0.00513,-23.603,25.618,11.969
2026-06-11 17:24:10.433,3082189889,26433,1,0.90161,-0.32495,0.50391,-28.565,19.863,-9.412
2026-06-11 17:24:10.433,3082189889,26433,2,1.04175,-0.25415,-0.0752,-20.885,20.947,-1.763
2026-06-11 17:24:12.684,3082192140,28684,1,0.88623,-0.26611,0.48706,-48.939,10.542,-21.26
2026-06-11 17:24:12.684,3082192140,28684,2,1.03394,-0.30688,-0.07422,-38.573,22.947,14.305
2026-06-11 17:24:13.884,3082193340,28884,1,0.92236,-0.34546,0.46875,-34.718,12.069,-17.351
2026-06-11 17:24:13.884,3082193340,28884,2,0.99292,-0.30859,-0.01221,-15.115,1.168,-4.786
2026-06-11 17:24:13.084,3082192540,29084,1,0.89746,-0.29224,0.49146,8.191,-1.824,9.344
2026-06-11 17:24:13.084,3082192540,29084,2,0.98633,-0.31665,-0.00415,28.252,10.267,7.305
2026-06-11 17:24:13.300,3082192756,29300,1,0.90234,-0.41089,0.36206,24.26,19.557,3.534
2026-06-11 17:24:13.300,3082192756,29300,2,1.04541,-0.37646,-0.06641,31.985,-13.939,-9.321
2026-06-11 17:24:13.500,3082192956,29500,1,0.90649,-0.2561,0.52661,51.198,-3.122,20.557
2026-06-11 17:24:13.500,3082192956,29500,2,1.00659,-0.25244,-0.0166,57.794,-8.649,6.45
2026-06-11 17:24:14.700,3082194156,29700,1,0.92334,-0.34326,0.50635,11.107,8.389,8.0
2026-06-11 17:24:14.700,3082194156,29700,2,1.03369,-0.17578,-0.0188,37.252,23.733,10.313
2026-06-11 17:24:14.991,3082194447,29991,1,0.81665,-0.17065,0.66919,27.832,9.809,14.45
2026-06-11 17:24:14.991,3082194447,29991,2,1.0459,-0.14697,-0.02246,-18.595,-4.695,-11.916
2026-06-11 17:24:14.207,3082193663,30207,1,0.8064,-0.12598,0.65454,-1.618,1.931,-4.557
2026-06-11 17:24:14.207,3082193663,30207,2,1.03882,-0.18506,0.01929,-8.153,3.824,-3.0
2026-06-11 17:24:14.407,3082193863,30407,1,0.88647,-0.16724,0.62476,-2.702,1.412,-7.55
2026-06-11 17:24:14.407,3082193863,30407,2,1.07739,-0.18896,0.04663,-0.412,9.237,4.122
2026-06-11 17:24:14.607,3082194063,30607,1,0.8418,-0.17114,0.61963,-6.985,6.916,1.0
2026-06-11 17:24:14.607,3082194063,30607,2,1.01855,-0.12207,-0.02246,-16.313,3.214,6.557
2026-06-11 17:24:15.814,3082195270,30814,1,0.84888,-0.10767,0.59692,-14.191,7.824,-6.069
2026-06-11 17:24:15.814,3082195270,30814,2,1.05444,-0.24609,0.03979,-21.443,-17.359,8.214
2026-06-11 17:24:15.014,3082194470,31014,1,0.84424,-0.18286,0.61084,10.954,-10.344,7.901
2026-06-11 17:24:15.014,3082194470,31014,2,1.03687,-0.16479,0.04517,-35.084,-15.771,-15.076
2026-06-11 17:24:15.214,3082194670,31214,1,0.9104,-0.2063,0.55566,-21.87,7.847,-17.023
2026-06-11 17:24:15.214,3082194670,31214,2,1.10791,-0.26147,0.00586,-41.962,4.718,1.038
2026-06-11 17:24:15.414,3082194870,31414,1,0.87598,-0.27661,0.56177,-40.206,26.466,-20.901
2026-06-11 17:24:15.414,3082194870,31414,2,1.00073,-0.28052,0.03589,-50.924,26.855,-3.489
2026-06-11 17:24:15.614,3082195070,31614,1,0.8186,-0.30273,0.5896,-27.435,9.74,-15.061
2026-06-11 17:24:15.614,3082195070,31614,2,1.01855,-0.26538,0.04565,-8.725,14.534,10.962
2026-06-11 17:24:16.814,3082196270,31814,1,0.81494,-0.32251,0.59009,-16.695,11.573,-1.473
2026-06-11 17:24:16.814,3082196270,31814,2,1.01733,-0.25439,0.05835,0.069,9.634,3.221
2026-06-11 17:24:16.017,3082195473,32017,1,0.83643,-0.34326,0.61841,7.351,-5.038,2.107
2026-06-11 17:24:16.017,3082195473,32017,2,0.99561,-0.27197,0.073,-7.977,5.26,-11.573
2026-06-11 17:24:16.217,3082195673,32217,1,0.78394,-0.29102,0.62427,24.489,-10.275,19.389
2026-06-11 17:24:16.217,3082195673,32217,2,1.09229,-0.26221,0.07764,52.672,10.061,11.237
2026-06-11 17:24:16.417,3082195873,32417,1,0.87573,-0.21021,0.58862,21.099,-11.0,19.626
2026-06-11 17:24:16.417,3082195873,32417,2,1.07666,-0.16919,0.06079,22.58,-24.298,-9.183
2026-06-11 17:24:16.617,3082196073,32617,1,0.91211,-0.19873,0.59766,61.786,5.992,33.947
2026-06-11 17:24:16.617,3082196073,32617,2,1.12231,-0.03589,0.02246,53.885,1.824,-10.962
2026-06-11 17:24:17.817,3082197273,32817,1,0.80029,-0.08813,0.67505,38.313,6.061,11.634
2026-06-11 17:24:17.817,3082197273,32817,2,1.01099,-0.01685,0.07568,12.794,3.389,-15.023
2026-06-11 17:24:17.017,3082196473,33017,1,0.81665,-0.08472,0.67114,-21.023,-3.863,-17.847
2026-06-11 17:24:17.017,3082196473,33017,2,1.12061,-0.28809,0.15527,-13.229,26.099,10.473
2026-06-11 17:24:17.226,3082196682,33226,1,0.81982,-0.15381,0.62842,-6.702,4.885,-16.435
2026-06-11 17:24:17.226,3082196682,33226,2,1.0835,-0.16333,0.0647,-23.099,2.336,-5.824
2026-06-11 17:24:17.426,3082196882,33426,1,0.81763,-0.16406,0.69824,-9.855,16.076,-2.275
2026-06-11 17:24:17.426,3082196882,33426,2,1.04126,-0.06738,0.14478,-14.252,20.13,-8.481
2026-06-11 17:24:17.626,3082197082,33626,1,0.75464,-0.09546,0.72266,-22.87,7.878,-11.794
2026-06-11 17:24:17.626,3082197082,33626,2,0.99512,-0.0061,0.12207,-34.664,-15.359,6.931
2026-06-11 17:24:18.836,3082198292,33836,1,0.69849,-0.32666,0.6604,-18.092,-14.183,-12.443
2026-06-11 17:24:18.836,3082198292,33836,2,0.98706,-0.09131,0.06079,24.229,6.351,-17.626
2026-06-11 17:24:18.036,3082197492,34036,1,0.91724,-0.19653,0.62695,-10.435,-31.481,-2.26
2026-06-11 17:24:18.036,3082197492,34036,2,1.05981,-0.13257,0.01978,-61.595,-59.603,-4.824
2026-06-11 17:24:18.236,3082197692,34236,1,0.8916,-0.2644,0.44727,-46.74,-9.588,-10.878
2026-06-11 17:24:18.236,3082197692,34236,2,1.09009,-0.14111,-0.05762,-21.824,-0.939,1.771
2026-06-11 17:24:18.436,3082197892,34436,1,0.89185,-0.40552,0.46777,-16.29,17.221,-3.565
2026-06-11 17:24:18.436,3082197892,34436,2,1.06958,-0.28125,-0.16895,10.824,12.817,-7.58
2026-06-11 17:24:18.636,3082198092,34636,1,0.85791,-0.35522,0.49731,26.504,-6.031,24.855
2026-06-11 17:24:18.636,3082198092,34636,2,1.16919,-0.16724,-0.09595,44.656,-14.076,6.527
2026-06-11 17:24:19.836,3082199292,34836,1,0.90405,-0.22168,0.45435,41.008,-22.305,17.641
2026-06-11 17:24:19.836,3082199292,34836,2,1.04663,-0.15967,-0.10913,38.58,25.634,9.26
2026-06-11 17:24:19.036,3082198492,35036,1,0.88989,-0.24365,0.50586,14.183,4.214,12.985
2026-06-11 17:24:19.036,3082198492,35036,2,1.03955,-0.17529,-0.08594,22.634,7.618,-2.435
2026-06-11 17:24:19.236,3082198692,35236,1,0.91968,-0.20264,0.51416,20.992,0.504,6.908
2026-06-11 17:24:19.236,3082198692,35236,2,1.06079,-0.14697,-0.06006,10.672,8.153,-8.092
2026-06-11 17:24:19.436,3082198892,35436,1,0.90771,-0.1416,0.50854,4.763,-5.282,-4.153
2026-06-11 17:24:19.436,3082198892,35436,2,1.07837,-0.21509,-0.00488,-11.511,2.412,7.366
2026-06-11 17:24:19.636,3082199092,35636,1,0.90283,-0.23169,0.50391,-9.183,2.282,-5.832
2026-06-11 17:24:19.636,3082199092,35636,2,1.03369,-0.18384,0.00952,-5.191,-16.42,1.252
2026-06-11 17:24:20.836,3082200292,35836,1,0.948,-0.20215,0.50415,-15.641,7.733,-10.992
2026-06-11 17:24:20.836,3082200292,35836,2,1.02197,-0.17114,-0.0459,-18.466,3.038,-13.237
2026-06-11 17:24:20.036,3082199492,36036,1,0.98022,-0.20117,0.52075,-7.13,9.511,-10.13
2026-06-11 17:24:20.036,3082199492,36036,2,1.02686,-0.16138,0.01611,-5.214,9.328,-3.458
2026-06-11 17:24:20.236,3082199692,36236,1,0.89355,-0.21484,0.51489,-15.824,13.924,-4.84
2026-06-11 17:24:20.236,3082199692,36236,2,1.05396,-0.18359,0.0332,-1.298,14.061,4.382
2026-06-11 17:24:20.436,3082199892,36436,1,0.90381,-0.20703,0.54077,-13.496,16.351,7.29
2026-06-11 17:24:20.436,3082199892,36436,2,1.04077,-0.21582,-0.03687,-16.748,0.817,1.901
2026-06-11 17:24:20.636,3082200092,36636,1,0.86865,-0.25781,0.56421,10.763,-0.107,5.74
2026-06-11 17:24:20.636,3082200092,36636,2,1.04297,-0.15454,0.02002,3.008,-2.855,2.366
2026-06-11 17:24:21.839,3082201295,36839,1,0.8396,-0.23438,0.58032,-8.885,9.702,-7.763
2026-06-11 17:24:21.839,3082201295,36839,2,1.03906,-0.21582,0.01416,-2.992,3.076,-2.603
2026-06-11 17:24:21.039,3082200495,37039,1,0.88892,-0.20776,0.5686,-10.817,0.847,-6.817
2026-06-11 17:24:21.039,3082200495,37039,2,1.05249,-0.18555,0.0415,-9.313,-3.656,0.16
2026-06-11 17:24:21.239,3082200695,37239,1,0.89087,-0.21606,0.54736,-5.015,-1.046,-1.634
2026-06-11 17:24:21.239,3082200695,37239,2,1.04346,-0.20508,0.02368,-0.534,-5.748,-0.916
2026-06-11 17:24:21.439,3082200895,37439,1,0.88989,-0.22388,0.54199,0.695,-0.122,1.298
2026-06-11 17:24:21.439,3082200895,37439,2,1.05054,-0.20386,0.02612,4.473,-0.679,-0.198
2026-06-11 17:24:21.639,3082201095,37639,1,0.90137,-0.21265,0.52856,3.397,0.412,1.595
2026-06-11 17:24:21.639,3082201095,37639,2,1.04639,-0.1814,0.01831,-1.42,-1.679,1.916
2026-06-11 17:24:22.839,3082202295,37839,1,0.90967,-0.22412,0.52563,-3.198,2.534,-0.908
2026-06-11 17:24:22.839,3082202295,37839,2,1.0542,-0.18726,0.01099,-5.198,-1.71,-1.053
2026-06-11 17:24:22.039,3082201495,38039,1,0.89453,-0.22314,0.52783,0.985,1.466,0.626
2026-06-11 17:24:22.039,3082201495,38039,2,1.04028,-0.20093,0.00073,0.817,-1.779,-0.924
2026-06-11 17:24:22.239,3082201695,38239,1,0.90283,-0.22705,0.51636,6.374,-1.191,3.649
2026-06-11 17:24:22.239,3082201695,38239,2,1.0376,-0.21094,-0.00171,9.046,0.656,-1.397
2026-06-11 17:24:22.439,3082201895,38439,1,0.91919,-0.22168,0.5144,6.206,1.74,2.832
2026-06-11 17:24:22.439,3082201895,38439,2,1.03076,-0.2085,-0.00684,8.038,-1.0,-0.237
2026-06-11 17:24:22.639,3082202095,38639,1,0.9082,-0.23828,0.50366,10.328,0.618,5.908
2026-06-11 17:24:22.639,3082202095,38639,2,1.03516,-0.2229,0.01465,11.687,3.031,-2.168
2026-06-11 17:24:23.839,3082203295,38839,1,0.93481,-0.22998,0.50684,3.252,5.145,3.595
2026-06-11 17:24:23.839,3082203295,38839,2,1.00073,-0.25269,0.03491,3.412,3.366,3.847
2026-06-11 17:24:23.039,3082202495,39039,1,0.90894,-0.27637,0.53638,10.771,4.855,9.366
2026-06-11 17:24:23.039,3082202495,39039,2,1.03955,-0.16968,0.01001,5.786,4.557,-9.046
2026-06-11 17:24:23.239,3082202695,39239,1,0.89673,-0.20532,0.55444,15.794,10.992,6.527
2026-06-11 17:24:23.239,3082202695,39239,2,1.08667,-0.18384,0.05347,13.481,-3.687,-1.733
2026-06-11 17:24:23.439,3082202895,39439,1,0.88989,-0.17212,0.54053,46.802,39.313,13.092
2026-06-11 17:24:23.439,3082202895,39439,2,0.99731,-0.03613,-0.05835,20.641,90.939,-25.924
2026-06-11 17:24:23.639,3082203095,39639,1,0.49341,-0.14014,0.46851,12.275,65.13,-12.038
2026-06-11 17:24:23.639,3082203095,39639,2,0.77686,0.00635,0.24951,14.031,92.351,-19.389
2026-06-11 17:24:24.914,3082204370,39913,1,0.42261,-0.11768,1.04077,-15.809,36.282,-12.802
2026-06-11 17:24:24.914,3082204370,39913,2,0.84009,-0.08228,0.56592,-33.435,-17.206,14.107
2026-06-11 17:24:24.113,3082203569,40113,1,0.46777,-0.29517,1.04468,-33.931,-43.519,-1.26
2026-06-11 17:24:24.113,3082203569,40113,2,1.24927,0.06763,0.74731,-85.511,-87.763,-7.092
2026-06-11 17:24:24.313,3082203769,40313,1,0.64526,-0.39551,1.26367,-23.649,43.45,-10.687
2026-06-11 17:24:24.313,3082203769,40313,2,0.90332,-0.30737,0.44751,-57.191,48.26,-12.511
2026-06-11 17:24:24.513,3082203969,40513,1,0.39355,-0.24902,0.82764,15.099,-16.725,17.695
2026-06-11 17:24:24.513,3082203969,40513,2,1.12915,-0.22656,0.62695,28.237,-24.29,13.511
2026-06-11 17:24:25.713,3082205169,40713,1,0.93506,-0.427,1.18237,5.603,17.29,6.328
2026-06-11 17:24:25.713,3082205169,40713,2,1.41382,-0.1167,0.60547,44.962,106.87,-32.023
2026-06-11 17:24:25.913,3082205369,40913,1,0.27832,-0.18335,1.01782,-8.069,56.496,8.565
2026-06-11 17:24:25.913,3082205369,40913,2,0.69067,-0.02026,0.73462,-1.389,24.962,6.947
2026-06-11 17:24:25.113,3082204569,41113,1,0.17896,-0.27759,1.10425,-11.985,-13.992,-1.954
2026-06-11 17:24:25.113,3082204569,41113,2,0.92749,-0.08691,0.79248,-10.153,-56.267,-4.328
2026-06-11 17:24:25.350,3082204806,41349,1,0.46289,-0.28833,1.16699,-8.481,-81.069,-17.435
2026-06-11 17:24:25.350,3082204806,41349,2,0.93408,-0.12207,0.39502,-28.748,-50.015,-2.977
2026-06-11 17:24:25.549,3082205005,41549,1,0.15674,-0.16382,0.31934,11.183,-59.985,-1.901
2026-06-11 17:24:25.549,3082205005,41549,2,0.21582,0.03662,0.3938,52.496,-45.588,9.115
2026-06-11 17:24:26.749,3082206205,41749,1,1.03247,-0.39502,0.53198,65.695,-2.115,7.595
2026-06-11 17:24:26.749,3082206205,41749,2,1.16382,-0.25879,0.00391,-41.076,-86.527,-4.45
2026-06-11 17:24:26.949,3082206405,41949,1,0.98779,-0.23901,0.68286,15.84,33.649,11.931
2026-06-11 17:24:26.949,3082206405,41949,2,1.02173,-0.15674,0.15991,9.542,8.038,8.618
2026-06-11 17:24:26.149,3082205605,42149,1,0.85376,-0.22412,0.6582,-1.397,12.817,-1.45
2026-06-11 17:24:26.149,3082205605,42149,2,1.0769,-0.15576,0.16797,-2.252,2.702,-1.206
2026-06-11 17:24:26.349,3082205805,42349,1,0.67432,-0.21924,0.6748,19.42,51.603,4.229
2026-06-11 17:24:26.349,3082205805,42349,2,1.06152,-0.14136,0.25537,2.0,0.061,-12.435
2026-06-11 17:24:26.549,3082206005,42549,1,0.53296,-0.13501,0.90674,24.42,38.122,17.0
2026-06-11 17:24:26.549,3082206005,42549,2,0.93506,-0.11719,0.42456,24.863,26.198,8.282
2026-06-11 17:24:27.749,3082207205,42749,1,0.48047,-0.1272,1.03394,17.489,26.366,9.687
2026-06-11 17:24:27.749,3082207205,42749,2,1.25513,-0.12598,0.43457,23.038,-2.076,1.344
2026-06-11 17:24:27.949,3082207405,42949,1,0.50122,-0.09644,0.86816,-11.496,-9.176,-3.237
2026-06-11 17:24:27.949,3082207405,42949,2,0.98145,-0.00757,0.37354,-8.626,-38.053,8.641
2026-06-11 17:24:27.149,3082206605,43149,1,0.44531,-0.16699,0.70068,-2.626,18.718,-4.336
2026-06-11 17:24:27.149,3082206605,43149,2,0.58472,-0.01685,0.38403,27.214,47.038,-3.824
2026-06-11 17:24:27.349,3082206805,43349,1,0.39648,-0.12939,0.69312,5.527,17.977,-1.466
2026-06-11 17:24:27.349,3082206805,43349,2,0.79517,-0.0752,0.57031,-8.672,10.626,-6.885
2026-06-11 17:24:27.549,3082207005,43549,1,0.27075,-0.18774,0.91602,2.985,11.863,2.924
2026-06-11 17:24:27.549,3082207005,43549,2,0.81104,-0.00781,0.5437,2.588,-32.985,14.939
2026-06-11 17:24:28.749,3082208205,43749,1,0.47583,-0.0022,1.4978,-15.588,-48.145,5.519
2026-06-11 17:24:28.749,3082208205,43749,2,1.78394,-0.07495,0.63599,-38.55,40.511,25.573
2026-06-11 17:24:28.949,3082208405,43949,1,0.56885,-0.38403,0.95728,-19.489,18.763,3.313
2026-06-11 17:24:28.949,3082208405,43949,2,0.77686,-0.18042,0.31567,3.771,55.672,-16.672
2026-06-11 17:24:28.149,3082207605,44149,1,0.45996,-0.38525,1.04565,6.137,-15.496,-10.252
2026-06-11 17:24:28.149,3082207605,44149,2,1.04883,-0.16406,0.62085,4.55,-8.763,-17.107
2026-06-11 17:24:28.349,3082207805,44349,1,0.479,-0.10938,0.89771,26.603,-15.817,12.519
2026-06-11 17:24:28.349,3082207805,44349,2,0.9436,-0.03271,0.44043,25.008,-10.802,3.237
2026-06-11 17:24:28.549,3082208005,44549,1,0.60547,-0.10303,0.93628,2.992,1.511,3.389
2026-06-11 17:24:28.549,3082208005,44549,2,1.02515,-0.03271,0.4397,19.145,18.214,-1.55
2026-06-11 17:24:29.749,3082209205,44749,1,0.54175,-0.13794,0.90356,-8.702,10.344,-4.626
2026-06-11 17:24:29.749,3082209205,44749,2,1.02686,-0.10889,0.44849,5.351,11.71,2.817
2026-06-11 17:24:29.949,3082209405,44949,1,0.53638,-0.18433,0.92871,-2.099,7.137,1.458
2026-06-11 17:24:29.949,3082209405,44949,2,1.02783,-0.13794,0.44824,5.489,7.87,2.359
2026-06-11 17:24:29.149,3082208605,45149,1,0.47632,-0.19482,0.93115,0.893,5.084,5.122
2026-06-11 17:24:29.149,3082208605,45149,2,1.01953,-0.10327,0.47363,-1.779,2.771,2.366
2026-06-11 17:24:29.349,3082208805,45349,1,0.4541,-0.23633,1.03076,4.603,0.038,-4.87
2026-06-11 17:24:29.349,3082208805,45349,2,0.93799,-0.13721,0.48462,-16.481,-24.916,-3.924
2026-06-11 17:24:29.549,3082209005,45549,1,0.51416,-0.13135,0.87549,2.046,-21.443,-4.008
2026-06-11 17:24:29.549,3082209005,45549,2,1.06348,-0.11255,0.4209,-8.008,-3.924,-0.687
2026-06-11 17:24:30.749,3082210205,45749,1,0.5542,-0.11084,0.87402,-1.557,0.122,-8.45
2026-06-11 17:24:30.749,3082210205,45749,2,1.04761,-0.11694,0.37915,-21.939,-6.511,2.664
2026-06-11 17:24:30.949,3082210405,45949,1,0.54175,-0.19873,0.88428,7.702,-6.573,3.351
2026-06-11 17:24:30.949,3082210405,45949,2,1.01514,-0.14087,0.35449,15.214,-16.405,-0.45
2026-06-11 17:24:30.149,3082209605,46149,1,0.58667,-0.10181,0.91138,8.008,6.756,17.252
2026-06-11 17:24:30.149,3082209605,46149,2,0.99805,-0.08447,0.37549,-2.061,-1.824,6.084
2026-06-11 17:24:30.349,3082209805,46349,1,0.59521,-0.15283,0.89551,-0.58,3.603,9.45
2026-06-11 17:24:30.349,3082209805,46349,2,1.0249,-0.10742,0.39478,-4.015,-3.74,6.26
2026-06-11 17:24:30.549,3082210005,46549,1,0.56714,-0.21021,0.92065,-5.71,1.634,0.55
2026-06-11 17:24:30.549,3082210005,46549,2,1.00195,-0.18823,0.27075,-5.802,4.786,-1.504
2026-06-11 17:24:31.749,3082211205,46749,1,0.58667,-0.24805,0.88574,-13.718,-8.115,-7.282
2026-06-11 17:24:31.749,3082211205,46749,2,1.00073,-0.12769,0.30933,-0.809,4.061,-6.313
2026-06-11 17:24:31.949,3082211405,46949,1,0.63818,-0.19775,0.8689,-2.267,7.824,-12.176
2026-06-11 17:24:31.949,3082211405,46949,2,1.04834,-0.18506,0.36108,-13.252,10.702,-4.214
2026-06-11 17:24:31.149,3082210605,47149,1,0.59399,-0.20801,0.86401,0.71,8.992,-3.282
2026-06-11 17:24:31.149,3082210605,47149,2,1.06299,-0.20923,0.31567,7.076,13.763,-10.015
2026-06-11 17:24:31.349,3082210805,47349,1,0.96362,-0.35083,1.14771,-1.969,6.443,8.573
2026-06-11 17:24:31.349,3082210805,47349,2,1.40674,-0.00195,0.69482,53.55,112.748,-14.168
2026-06-11 17:24:31.549,3082211005,47549,1,0.30469,-0.16602,1.06934,13.191,34.214,3.519
2026-06-11 17:24:31.549,3082211005,47549,2,0.7417,0.00977,0.55444,10.687,30.595,-3.16
2026-06-11 17:24:32.749,3082212205,47749,1,0.31616,-0.29688,1.02734,-30.779,-16.779,-15.557
2026-06-11 17:24:32.749,3082212205,47749,2,0.99292,-0.16675,0.63257,-30.282,-50.702,9.504
2026-06-11 17:24:32.949,3082212405,47949,1,0.54419,-0.28955,0.92236,-20.809,-41.145,-10.443
2026-06-11 17:24:32.949,3082212405,47949,2,0.43408,-0.10303,0.35059,13.939,-9.366,-6.389
2026-06-11 17:24:32.149,3082211605,48149,1,0.14209,-0.10547,0.51929,25.786,-72.183,13.45
2026-06-11 17:24:32.149,3082211605,48149,2,1.00342,-0.06323,0.11133,-28.076,-166.076,13.695
2026-06-11 17:24:32.349,3082211805,48349,1,0.84912,-0.26904,0.60034,-13.977,-34.145,-13.87
2026-06-11 17:24:32.349,3082211805,48349,2,0.99683,-0.30322,0.052,12.595,22.351,-1.397
2026-06-11 17:24:32.549,3082212005,48549,1,0.81714,-0.2854,0.65063,-9.282,-6.427,-9.031
2026-06-11 17:24:32.549,3082212005,48549,2,1.0166,-0.21582,0.0625,-9.13,-3.763,-2.366
2026-06-11 17:24:33.749,3082213205,48749,1,0.87012,-0.26025,0.61401,-2.221,-10.275,-2.84
2026-06-11 17:24:33.749,3082213205,48749,2,1.03687,-0.20776,0.01758,3.282,-8.107,4.557
2026-06-11 17:24:33.949,3082213405,48949,1,0.90674,-0.24414,0.57568,1.878,-6.634,3.649
2026-06-11 17:24:33.949,3082213405,48949,2,1.05591,-0.18213,-0.04932,-24.191,-7.534,2.145
2026-06-11 17:24:33.149,3082212605,49149,1,0.84497,-0.19775,0.50537,-5.008,-1.557,-0.389
2026-06-11 17:24:33.149,3082212605,49149,2,1.0752,-0.23096,-0.06152,-13.649,2.756,12.267
2026-06-11 17:24:33.349,3082212805,49349,1,0.91089,-0.29004,0.51855,-0.931,-2.618,-1.351
2026-06-11 17:24:33.349,3082212805,49349,2,1.04126,-0.19995,0.00122,4.0,-0.702,-6.267
2026-06-11 17:24:33.549,3082213005,49549,1,0.91992,-0.23901,0.53442,12.206,3.466,-2.374
2026-06-11 17:24:33.549,3082213005,49549,2,1.04321,-0.18359,-0.05713,3.962,11.038,-0.42
2026-06-11 17:24:34.749,3082214205,49749,1,0.87891,-0.25098,0.55127,-7.786,15.359,-4.42
2026-06-11 17:24:34.749,3082214205,49749,2,1.06641,-0.20752,0.03882,-3.0,1.298,-8.031
2026-06-11 17:24:34.949,3082214405,49949,1,1.04614,-0.2561,0.45288,43.435,60.87,19.824
2026-06-11 17:24:34.949,3082214405,49949,2,1.17969,-0.17554,0.0769,38.061,137.176,-35.557
2026-06-11 17:24:34.149,3082213605,50149,1,0.46924,-0.0647,0.65015,53.069,148.099,16.473
2026-06-11 17:24:34.149,3082213605,50149,2,0.729,-0.00171,0.75366,60.389,144.023,-24.519
2026-06-11 17:24:34.349,3082213805,50349,1,-0.17041,0.0481,1.03564,35.0,149.099,8.031
2026-06-11 17:24:34.349,3082213805,50349,2,0.50562,0.23462,0.89746,30.901,121.901,-35.053
2026-06-11 17:24:34.549,3082214005,50549,1,-0.58057,0.06396,1.18823,1.382,61.267,0.55
2026-06-11 17:24:34.549,3082214005,50549,2,0.2876,0.3584,1.05249,26.183,25.443,-11.26
2026-06-11 17:24:35.749,3082215205,50749,1,-0.53589,0.12842,0.98828,2.595,9.145,-4.725
2026-06-11 17:24:35.749,3082215205,50749,2,0.24487,0.28149,1.07178,-4.802,-11.458,0.42
2026-06-11 17:24:35.949,3082215405,50949,1,-0.50366,0.14014,0.97241,5.931,-8.076,3.038
2026-06-11 17:24:35.949,3082215405,50949,2,0.29785,0.26172,1.09155,-5.13,-22.504,9.099
2026-06-11 17:24:35.149,3082214605,51149,1,-0.49902,0.16772,1.10303,-12.763,-20.382,-3.389
2026-06-11 17:24:35.149,3082214605,51149,2,0.40283,0.30493,1.03052,-10.145,-44.183,13.481
2026-06-11 17:24:35.349,3082214805,51349,1,-0.38379,0.11157,1.14185,-34.504,-83.481,-6.679
2026-06-11 17:24:35.349,3082214805,51349,2,0.63965,0.10498,0.80591,-6.954,-131.863,42.649
2026-06-11 17:24:35.549,3082215005,51549,1,0.08838,0.02075,0.82031,-65.824,-131.145,-21.122
2026-06-11 17:24:35.549,3082215005,51549,2,1.02344,-0.10107,0.41064,-26.55,-82.626,13.908
2026-06-11 17:24:36.815,3082216271,51815,1,0.61987,-0.27466,0.70581,-20.702,-87.191,-9.237
2026-06-11 17:24:36.815,3082216271,51815,2,1.12036,-0.14722,0.28418,1.344,-78.443,14.313
2026-06-11 17:24:36.015,3082215471,52015,1,0.92432,-0.29395,0.56689,-14.298,-17.115,-10.16
2026-06-11 17:24:36.015,3082215471,52015,2,1.00952,-0.18481,-0.01611,12.336,7.863,-4.672
2026-06-11 17:24:36.215,3082215671,52215,1,0.8501,-0.21387,0.61914,10.008,-7.893,8.809
2026-06-11 17:24:36.215,3082215671,52215,2,1.06641,-0.12549,0.02637,13.298,-7.84,1.275
2026-06-11 17:24:36.415,3082215871,52415,1,0.87207,-0.25513,0.59717,3.237,-5.305,3.458
2026-06-11 17:24:36.415,3082215871,52415,2,1.06421,-0.14038,0.00854,5.405,1.275,0.557
2026-06-11 17:24:36.615,3082216071,52615,1,0.86841,-0.23535,0.55957,-2.527,6.756,-3.802
2026-06-11 17:24:36.615,3082216071,52615,2,1.06836,-0.16797,0.03149,-4.344,5.115,-1.893
2026-06-11 17:24:37.815,3082217271,52815,1,0.84668,-0.25415,0.60205,-2.137,9.832,-0.863
2026-06-11 17:24:37.815,3082217271,52815,2,1.06128,-0.18091,0.04736,-3.031,4.71,-2.298
2026-06-11 17:24:37.015,3082216471,53015,1,0.90796,-0.26953,0.55981,9.786,26.183,5.855
2026-06-11 17:24:37.015,3082216471,53015,2,1.10303,-0.16016,0.07666,6.87,33.305,-12.412
2026-06-11 17:24:37.215,3082216671,53215,1,0.73267,-0.17456,0.56616,33.611,95.969,15.443
2026-06-11 17:24:37.215,3082216671,53215,2,0.97363,-0.05835,0.41602,26.87,134.656,-19.878
2026-06-11 17:24:37.415,3082216871,53415,1,0.13794,-0.03564,0.88525,34.725,141.099,14.275
2026-06-11 17:24:37.415,3082216871,53415,2,0.87842,0.0481,0.77539,53.458,102.893,-23.069
2026-06-11 17:24:37.615,3082217071,53615,1,-0.38721,0.03809,1.17261,30.45,118.802,12.031
2026-06-11 17:24:37.615,3082217071,53615,2,0.54272,0.21191,0.85962,19.763,80.947,-24.595
2026-06-11 17:24:38.815,3082218271,53815,1,-0.52612,0.10962,1.09839,14.466,38.55,7.901
2026-06-11 17:24:38.815,3082218271,53815,2,0.33862,0.32495,1.03125,0.939,18.374,-2.565
2026-06-11 17:24:38.034,3082217490,54034,1,-0.43872,0.0708,0.89771,-1.061,13.55,1.45
2026-06-11 17:24:38.034,3082217490,54034,2,0.22314,0.35498,1.14136,6.443,14.733,-2.702
2026-06-11 17:24:38.234,3082217690,54234,1,-0.65137,0.09668,1.06226,3.687,2.954,2.13
2026-06-11 17:24:38.234,3082217690,54234,2,0.23364,0.31836,1.09009,-5.588,-22.878,7.916
2026-06-11 17:24:38.434,3082217890,54434,1,-0.48096,0.07495,0.93286,-9.565,-33.229,-0.947
2026-06-11 17:24:38.434,3082217890,54434,2,0.36841,0.23218,1.00806,-6.466,-29.893,12.031
2026-06-11 17:24:38.634,3082218090,54634,1,-0.33887,0.04175,1.00586,-7.389,-27.198,-1.588
2026-06-11 17:24:38.634,3082218090,54634,2,0.47217,0.23193,1.00854,-5.748,-34.038,9.214
2026-06-11 17:24:39.834,3082219290,54834,1,-0.29614,0.03125,1.18506,-19.45,-74.725,-3.992
2026-06-11 17:24:39.834,3082219290,54834,2,0.66748,0.09131,0.84839,-28.924,-92.298,26.611
2026-06-11 17:24:39.034,3082218490,55034,1,0.07251,-0.08447,0.95947,-49.107,-118.023,-19.725
2026-06-11 17:24:39.034,3082218490,55034,2,0.87793,-0.10034,0.48022,-69.748,-131.0,9.672
2026-06-11 17:24:39.234,3082218690,55234,1,0.54517,-0.16943,0.61816,-44.565,-128.557,-17.87
2026-06-11 17:24:39.234,3082218690,55234,2,1.05908,-0.14429,0.09814,20.511,-98.137,25.275
2026-06-11 17:24:39.471,3082218927,55471,1,0.98145,-0.28003,0.4126,-3.336,-54.802,5.664
2026-06-11 17:24:39.471,3082218927,55471,2,1.06641,-0.17651,-0.12524,0.649,-55.389,18.924
2026-06-11 17:24:39.671,3082219127,55671,1,1.00171,-0.27661,0.43652,-12.008,-3.557,-8.305
2026-06-11 17:24:39.671,3082219127,55671,2,1.03345,-0.19214,-0.10791,-13.427,0.16,1.832
2026-06-11 17:24:40.871,3082220327,55871,1,0.90771,-0.21069,0.51514,8.107,9.221,1.427
2026-06-11 17:24:40.871,3082220327,55871,2,1.04102,-0.20264,-0.09131,-18.344,-29.611,1.489
2026-06-11 17:24:40.071,3082219527,56071,1,0.92188,-0.24438,0.47827,-12.008,14.26,-8.427
2026-06-11 17:24:40.071,3082219527,56071,2,1.04004,-0.18896,-0.06567,-5.542,8.061,-0.855
2026-06-11 17:24:40.271,3082219727,56271,1,0.90479,-0.22754,0.51123,-4.878,10.679,-1.718
2026-06-11 17:24:40.271,3082219727,56271,2,1.01636,-0.19287,-0.07813,-7.237,9.328,-1.817
2026-06-11 17:24:40.471,3082219927,56471,1,0.89453,-0.22266,0.52173,-3.931,6.305,-1.198
2026-06-11 17:24:40.471,3082219927,56471,2,1.0354,-0.1897,-0.05859,-0.275,2.015,-0.198
2026-06-11 17:24:41.720,3082221176,56720,1,0.89941,-0.22534,0.52075,2.443,-0.458,2.725
2026-06-11 17:24:41.720,3082221176,56720,2,1.03906,-0.18726,-0.05371,3.855,-0.626,-0.573
2026-06-11 17:24:41.720,3082221176,56720,2,1.03906,-0.18726,-0.05371,3.855,-0.626,-0.573
2026-06-11 17:24:48.880,3082228336,63880,1,0.90747,-0.24146,0.49609,1.015,2.443,0.573
2026-06-11 17:24:48.880,3082228336,63880,2,1.03174,-0.19922,-0.0564,1.26,1.466,-0.718
2026-06-11 17:24:50.018,3082229474,66018,1,0.90552,-0.24512,0.49463,0.885,1.931,0.206
2026-06-11 17:24:50.018,3082229474,66018,2,1.03833,-0.20923,-0.05493,0.802,1.809,-0.802
2026-06-11 17:24:52.132,3082231588,68132,1,-0.43799,0.10791,1.20264,25.267,107.244,-2.244
2026-06-11 17:24:52.132,3082231588,68132,2,0.38306,0.28198,1.02637,3.26,52.809,-20.58
2026-06-11 17:24:54.351,3082233807,70351,1,0.96045,-0.28271,0.47559,1.397,-1.908,2.992
2026-06-11 17:24:54.351,3082233807,70351,2,1.06592,-0.22925,-0.02905,-9.809,5.809,-7.504
2026-06-11 17:24:56.484,3082235940,72484,1,0.61572,-0.15356,0.87378,8.634,-6.519,-5.198
2026-06-11 17:24:56.484,3082235940,72484,2,1.03052,-0.06958,0.3479,-3.191,-5.061,-4.168
2026-06-11 17:24:58.614,3082238070,74614,1,0.65137,-0.15576,0.85156,0.55,1.0,0.626
2026-06-11 17:24:58.614,3082238070,74614,2,1.03271,-0.13818,0.2998,0.557,0.87,0.069
2026-06-11 17:25:01.737,3082241193,76737,1,0.42065,-0.16553,1.04077,-18.237,-63.336,-1.939
2026-06-11 17:25:01.737,3082241193,76737,2,1.06494,-0.10425,0.51489,-26.794,-67.015,6.664
2026-06-11 17:25:03.880,3082243336,78879,1,0.90625,-0.21216,0.52393,-5.71,3.0,-2.58
2026-06-11 17:25:03.880,3082243336,78879,2,1.05103,-0.17017,-0.01563,-4.855,1.641,0.794
2026-06-11 17:25:05.016,3082244472,81016,1,0.89722,-0.21387,0.5376,1.588,1.626,0.282
2026-06-11 17:25:05.016,3082244472,81016,2,1.04541,-0.16113,-0.03296,0.878,0.817,-1.168
2026-06-11 17:25:07.130,3082246586,83130,1,0.46289,-0.27686,1.42383,-35.336,-43.939,-19.969
2026-06-11 17:25:07.130,3082246586,83130,2,1.62695,-0.29663,0.69507,-37.939,-3.679,15.107
2026-06-11 17:25:09.295,3082248751,85295,1,0.6228,-0.15649,0.66479,45.771,112.901,32.649
2026-06-11 17:25:09.295,3082248751,85295,2,0.98999,-0.09082,0.35718,49.412,131.649,-26.824
2026-06-11 17:25:11.401,3082250857,87401,1,0.82642,-0.17383,0.48438,-21.328,-82.481,-4.359
2026-06-11 17:25:11.401,3082250857,87401,2,1.06299,-0.20898,0.03247,22.794,-38.626,32.29
2026-06-11 17:25:13.515,3082252971,89515,1,0.87378,-0.25562,0.54224,2.435,3.679,1.969
2026-06-11 17:25:13.515,3082252971,89515,2,1.01489,-0.27588,0.01123,2.924,1.878,-3.756
2026-06-11 17:25:15.632,3082255088,91632,1,0.87769,-0.21851,0.53394,14.672,-2.099,0.641
2026-06-11 17:25:15.632,3082255088,91632,2,1.01294,-0.29565,0.01685,12.763,-1.458,-2.183
2026-06-11 17:25:18.750,3082258206,93750,1,0.75024,-0.24487,0.6709,31.534,3.733,38.252
2026-06-11 17:25:18.750,3082258206,93750,2,1.02124,-0.22827,0.0752,-6.229,-5.901,13.733
2026-06-11 17:25:20.858,3082260314,95858,1,0.93164,-0.26172,0.48853,-17.618,-39.13,-8.695
2026-06-11 17:25:20.858,3082260314,95858,2,1.03223,-0.21045,-0.04297,-42.198,-3.733,-2.947
2026-06-11 17:25:22.967,3082262423,97967,1,0.93628,-0.26782,0.59155,-48.733,-0.107,-3.328
2026-06-11 17:25:22.967,3082262423,97967,2,0.98584,-0.18286,0.04785,4.969,1.038,0.031
2026-06-11 17:25:24.127,3082263583,100127,1,0.77173,-0.19702,0.66748,3.832,-4.466,21.954
2026-06-11 17:25:24.127,3082263583,100127,2,0.74414,-0.02173,-0.52686,30.351,0.618,74.885
2026-06-11 17:25:26.303,3082265759,102303,1,0.95361,-0.24243,0.45215,-2.275,-8.107,0.649
2026-06-11 17:25:26.303,3082265759,102303,2,0.97339,-0.16699,0.02954,53.427,0.542,-20.099
2026-06-11 17:25:28.461,3082267917,104461,1,0.7876,0.27612,0.34961,-10.573,-49.534,-13.298
2026-06-11 17:25:28.461,3082267917,104461,2,1.04712,-0.06934,0.24243,-9.573,-11.618,-5.26
2026-06-11 17:25:28.661,3082268117,104661,1,0.86694,-0.30713,0.6687,-6.748,5.443,-3.885
2026-06-11 17:25:28.661,3082268117,104661,2,1.05566,-0.05908,0.36938,39.351,48.145,-2.847
2026-06-11 17:25:29.861,3082269317,104861,1,0.91968,-0.20239,0.50781,16.282,-3.145,5.779
2026-06-11 17:25:29.861,3082269317,104861,2,1.02441,-0.07153,0.33203,-7.0,-20.916,1.718
2026-06-11 17:25:29.061,3082268517,105061,1,0.87988,-0.40991,1.05566,219.672,226.618,19.092
2026-06-11 17:25:29.061,3082268517,105061,2,1.07349,-0.10547,0.14673,10.214,-6.565,1.298
2026-06-11 17:25:29.386,3082268842,105386,1,0.94385,-0.18555,0.48926,14.718,-3.092,-5.557
2026-06-11 17:25:29.386,3082268842,105386,2,1.02637,-0.05566,0.34619,21.023,35.748,-2.588
2026-06-11 17:25:29.586,3082269042,105586,1,0.94897,-0.1748,0.47485,10.489,-0.603,4.405
2026-06-11 17:25:29.586,3082269042,105586,2,1.06982,-0.09521,0.30493,6.198,-9.534,-2.122
2026-06-11 17:25:30.786,3082270242,105786,1,0.95923,-0.14404,0.4519,4.702,6.038,-3.863
2026-06-11 17:25:30.786,3082270242,105786,2,1.04614,-0.08057,0.26807,3.557,-3.611,0.481
2026-06-11 17:25:30.986,3082270442,105986,1,0.93213,-0.14868,0.5144,1.954,14.137,5.779
2026-06-11 17:25:30.986,3082270442,105986,2,1.04102,-0.07251,0.19287,-2.282,16.969,9.794
2026-06-11 17:25:30.186,3082269642,106186,1,0.90405,-0.177,0.53516,4.832,-2.176,14.305
2026-06-11 17:25:30.186,3082269642,106186,2,0.99292,-0.07715,0.34277,10.046,10.038,-2.458
2026-06-11 17:25:30.386,3082269842,106386,1,0.90234,-0.17651,0.56323,26.58,22.87,17.916
2026-06-11 17:25:30.386,3082269842,106386,2,1.01978,-0.1145,0.39453,21.863,28.748,-4.496
2026-06-11 17:25:30.586,3082270042,106586,1,0.88281,-0.18188,0.58594,23.779,1.42,11.55
2026-06-11 17:25:30.586,3082270042,106586,2,1.01074,-0.06006,0.55298,3.725,-48.229,0.076
2026-06-11 17:25:31.786,3082271242,106786,1,0.85913,-0.14648,0.65112,95.511,-2.038,11.557
2026-06-11 17:25:31.786,3082271242,106786,2,0.95313,-0.07446,-0.0979,-2.344,-99.16,-7.878
2026-06-11 17:25:31.986,3082271442,106986,1,1.32544,-0.27466,0.98364,-250.137,-89.191,-7.374
2026-06-11 17:25:31.986,3082271442,106986,2,1.0625,-0.07788,0.04297,8.611,-3.443,-1.313
2026-06-11 17:25:31.186,3082270642,107186,1,0.92236,-0.16089,0.52271,0.427,0.382,-0.588
2026-06-11 17:25:31.186,3082270642,107186,2,1.01807,-0.12207,-0.1106,-25.099,-13.26,7.496
2026-06-11 17:25:31.386,3082270842,107386,1,0.92676,-0.1521,0.48877,8.695,-8.405,2.221
2026-06-11 17:25:31.386,3082270842,107386,2,1.05298,-0.0979,0.06689,13.359,79.664,-7.214
2026-06-11 17:25:31.586,3082271042,107586,1,0.92896,-0.15625,0.48584,0.985,-0.931,1.092
2026-06-11 17:25:31.586,3082271042,107586,2,1.1084,-0.09692,0.22437,5.58,1.901,9.603
2026-06-11 17:25:32.786,3082272242,107786,1,0.97021,-0.13306,0.50171,20.725,-4.824,3.008
2026-06-11 17:25:32.786,3082272242,107786,2,1.03882,-0.04541,0.11499,6.656,6.168,-3.397
2026-06-11 17:25:32.986,3082272442,107986,1,0.91284,-0.16235,0.50464,-1.87,7.405,-1.069
2026-06-11 17:25:32.986,3082272442,107986,2,1.04004,-0.07837,0.02344,4.863,1.405,-0.42
2026-06-11 17:25:32.187,3082271643,108187,1,0.90283,-0.15625,0.53979,3.328,4.405,1.58
2026-06-11 17:25:32.187,3082271643,108187,2,1.05176,-0.0813,0.02832,0.511,-2.267,-0.466
2026-06-11 17:25:32.387,3082271843,108387,1,0.91235,-0.15527,0.52539,1.42,-0.252,0.42
2026-06-11 17:25:32.387,3082271843,108387,2,1.05786,-0.08545,0.00952,-0.298,-2.115,-0.542
2026-06-11 17:25:32.587,3082272043,108587,1,0.92871,-0.15405,0.51416,-0.427,0.053,-0.015
2026-06-11 17:25:32.587,3082272043,108587,2,1.05615,-0.07959,0.01147,-0.977,-0.221,-0.321
2026-06-11 17:25:33.787,3082273243,108787,1,0.91479,-0.15039,0.52002,-0.687,2.099,0.595
2026-06-11 17:25:33.787,3082273243,108787,2,1.05469,-0.07739,0.00781,-1.42,0.061,0.237
2026-06-11 17:25:33.987,3082273443,108987,1,0.92285,-0.16919,0.50562,-4.046,-2.115,-1.229
2026-06-11 17:25:33.987,3082273443,108987,2,1.05811,-0.09912,-0.01978,-3.153,-3.008,3.031
2026-06-11 17:25:33.187,3082272643,109187,1,0.9458,-0.1792,0.49902,-11.527,6.168,-2.084
2026-06-11 17:25:33.187,3082272643,109187,2,1.02173,-0.12427,0.0415,-21.481,-0.893,-4.061
2026-06-11 17:25:33.390,3082272846,109390,1,0.97119,-0.11938,0.35742,8.344,2.71,19.977
2026-06-11 17:25:33.390,3082272846,109390,2,1.04272,-0.12012,0.0542,11.557,25.107,7.359
2026-06-11 17:25:33.679,3082273135,109678,1,0.90063,-0.19702,0.58569,20.443,27.908,6.031
2026-06-11 17:25:33.679,3082273135,109678,2,1.00806,-0.06714,0.01367,15.336,28.908,-2.824
2026-06-11 17:25:34.878,3082274334,109878,1,0.83325,-0.18262,0.63403,17.267,6.588,11.802
2026-06-11 17:25:34.878,3082274334,109878,2,1.06421,-0.13525,0.02319,22.313,7.0,-2.237
2026-06-11 17:25:34.078,3082273534,110078,1,0.80518,-0.11914,0.69336,15.458,9.122,18.389
2026-06-11 17:25:34.078,3082273534,110078,2,1.05151,-0.08691,0.15137,39.954,9.733,3.382
2026-06-11 17:25:34.278,3082273734,110278,1,0.77661,-0.17651,0.69873,27.71,-3.802,27.015
2026-06-11 17:25:34.278,3082273734,110278,2,1.05884,-0.07861,0.15088,40.214,-5.618,8.649
2026-06-11 17:25:34.478,3082273934,110478,1,0.73682,-0.20459,0.76563,32.145,-6.679,30.107
2026-06-11 17:25:34.478,3082273934,110478,2,1.0249,-0.08228,0.16895,57.29,0.038,5.557
2026-06-11 17:25:34.678,3082274134,110678,1,0.72876,-0.22412,0.74219,40.817,-19.252,22.985
2026-06-11 17:25:34.678,3082274134,110678,2,1.00146,-0.16284,0.07495,98.183,-27.557,-15.267
2026-06-11 17:25:35.878,3082275334,110878,1,0.8479,-0.28174,0.52905,92.328,-41.198,52.908
2026-06-11 17:25:35.878,3082275334,110878,2,1.00928,-0.16016,-0.0874,114.13,-10.908,-37.969
2026-06-11 17:25:35.078,3082274534,111078,1,0.96631,-0.20947,0.48828,92.473,-41.649,54.748
2026-06-11 17:25:35.078,3082274534,111078,2,1.0896,-0.21216,-0.08105,100.061,-4.328,-5.374
2026-06-11 17:25:35.278,3082274734,111278,1,0.948,-0.21436,0.41968,56.679,-18.092,48.115
2026-06-11 17:25:35.278,3082274734,111278,2,0.99585,-0.12646,-0.08179,47.679,2.817,-11.015
2026-06-11 17:25:35.478,3082274934,111478,1,0.93774,-0.18262,0.50391,16.55,2.237,15.664
2026-06-11 17:25:35.478,3082274934,111478,2,1.0564,-0.10181,-0.17798,6.099,-1.939,4.366
2026-06-11 17:25:35.678,3082275134,111678,1,0.97437,-0.22681,0.41602,-44.901,28.305,-25.061
2026-06-11 17:25:35.678,3082275134,111678,2,1.03027,-0.21582,-0.08618,-62.71,22.267,15.053
2026-06-11 17:25:36.878,3082276334,111878,1,0.88086,-0.33105,0.49438,-21.405,28.115,-15.351
2026-06-11 17:25:36.878,3082276334,111878,2,1.07788,-0.15771,0.00122,27.733,7.198,6.916
2026-06-11 17:25:36.078,3082275534,112078,1,0.76025,-0.2063,0.70166,-3.504,9.565,-3.107
2026-06-11 17:25:36.078,3082275534,112078,2,1.12061,-0.22583,0.1189,19.168,-25.153,13.16
2026-06-11 17:25:36.278,3082275734,112278,1,0.75757,-0.1958,0.65649,-15.389,-12.618,0.275
2026-06-11 17:25:36.278,3082275734,112278,2,1.06787,-0.16772,0.05103,-4.206,-9.466,4.099
2026-06-11 17:25:36.478,3082275934,112478,1,0.88867,-0.21729,0.55225,-31.763,-12.26,-3.748
2026-06-11 17:25:36.478,3082275934,112478,2,1.00879,-0.14893,-0.05566,-49.389,-13.061,12.641
2026-06-11 17:25:36.678,3082276134,112678,1,0.96362,-0.25464,0.41187,-30.649,3.443,-14.618
2026-06-11 17:25:36.678,3082276134,112678,2,1.07837,-0.24927,-0.16675,-41.405,-5.908,7.542
2026-06-11 17:25:37.896,3082277352,112895,1,0.91089,-0.3418,0.46924,11.069,5.099,-0.527
2026-06-11 17:25:37.896,3082277352,112895,2,0.95752,-0.19702,-0.10742,20.45,17.489,-15.863
2026-06-11 17:25:37.095,3082276551,113095,1,0.90454,-0.24756,0.44067,3.076,-0.916,0.977
2026-06-11 17:25:37.095,3082276551,113095,2,1.04224,-0.19043,-0.13721,-0.092,-6.198,-4.664
2026-06-11 17:25:37.295,3082276751,113295,1,0.93896,-0.26123,0.44409,1.206,10.954,-0.779
2026-06-11 17:25:37.295,3082276751,113295,2,1.01318,-0.18872,-0.11499,6.198,5.748,-5.458
2026-06-11 17:25:37.495,3082276951,113495,1,0.92822,-0.23218,0.46777,7.794,3.656,2.137
2026-06-11 17:25:37.495,3082276951,113495,2,1.01294,-0.17871,-0.12524,3.244,0.969,-2.374
2026-06-11 17:25:38.695,3082278151,113695,1,0.91797,-0.23877,0.47046,5.45,2.351,1.122
2026-06-11 17:25:38.695,3082278151,113695,2,1.02759,-0.16284,-0.10913,1.611,-1.634,-1.519
2026-06-11 17:25:38.895,3082278351,113895,1,0.89917,-0.25488,0.49219,0.145,2.756,0.756
2026-06-11 17:25:38.895,3082278351,113895,2,1.02417,-0.17798,-0.11279,2.557,-0.076,-1.29
2026-06-11 17:25:38.104,3082277560,114104,1,0.90723,-0.23584,0.47729,-2.588,-3.305,2.275
2026-06-11 17:25:38.104,3082277560,114104,2,1.03369,-0.17651,-0.17651,-20.656,-8.084,8.221
2026-06-11 17:25:38.351,3082277807,114351,1,0.92993,-0.29102,0.42505,-14.229,5.115,-6.496
2026-06-11 17:25:38.351,3082277807,114351,2,1.01782,-0.20142,-0.177,-16.153,3.412,2.618
2026-06-11 17:25:38.604,3082278060,114604,1,0.9458,-0.26782,0.43481,-7.809,6.053,-0.321
2026-06-11 17:25:38.604,3082278060,114604,2,1.04248,-0.18994,-0.18872,-11.26,4.992,1.305
2026-06-11 17:25:39.804,3082279260,114804,1,0.93115,-0.25464,0.45142,0.931,2.206,5.786
2026-06-11 17:25:39.804,3082279260,114804,2,1.03149,-0.14209,-0.15894,1.992,-1.473,2.099
2026-06-11 17:25:39.004,3082278460,115004,1,0.88721,-0.25488,0.47656,-10.832,11.427,-6.573
2026-06-11 17:25:39.004,3082278460,115004,2,1.00806,-0.15869,-0.11353,-3.885,7.252,4.878
2026-06-11 17:25:39.204,3082278660,115204,1,0.90674,-0.24854,0.47949,-5.924,8.214,-6.603
2026-06-11 17:25:39.204,3082278660,115204,2,1.01001,-0.17065,-0.10083,-1.802,2.977,-0.214
2026-06-11 17:25:39.404,3082278860,115404,1,0.91431,-0.22949,0.47339,1.382,-1.878,-2.458
2026-06-11 17:25:39.404,3082278860,115404,2,1.02905,-0.17871,-0.10547,1.023,14.382,1.221
2026-06-11 17:25:39.604,3082279060,115604,1,0.92871,-0.24634,0.46729,-7.008,2.626,-1.382
2026-06-11 17:25:39.604,3082279060,115604,2,1.03174,-0.20557,-0.10938,-1.412,2.405,2.13
2026-06-11 17:25:40.804,3082280260,115804,1,0.89429,-0.3291,0.45898,4.84,0.626,-2.374
2026-06-11 17:25:40.804,3082280260,115804,2,1.03052,-0.22998,-0.09961,12.824,-3.84,-14.534
2026-06-11 17:25:40.004,3082279460,116004,1,0.9126,-0.28076,0.46045,58.328,-4.511,16.092
2026-06-11 17:25:40.004,3082279460,116004,2,1.0022,-0.17163,-0.12695,79.183,-14.794,-27.122
2026-06-11 17:25:40.204,3082279660,116204,1,0.92017,-0.17969,0.48364,77.229,-18.626,38.893
2026-06-11 17:25:40.204,3082279660,116204,2,1.04004,-0.09155,-0.10547,78.802,-9.924,-22.634
2026-06-11 17:25:40.404,3082279860,116404,1,0.92603,-0.11938,0.49243,45.557,-8.626,25.16
2026-06-11 17:25:40.404,3082279860,116404,2,1.03027,-0.04395,-0.16626,24.969,-15.664,-7.481
2026-06-11 17:25:40.604,3082280060,116604,1,0.98364,-0.18945,0.43042,-24.13,7.786,-4.542
2026-06-11 17:25:40.604,3082280060,116604,2,1.03833,-0.10132,-0.18652,-43.359,2.908,14.656
2026-06-11 17:25:41.804,3082281260,116804,1,0.92407,-0.29028,0.44238,-39.321,21.084,-17.145
2026-06-11 17:25:41.804,3082281260,116804,2,1.04834,-0.14331,-0.14478,-36.076,14.397,4.779
2026-06-11 17:25:41.004,3082280460,117004,1,0.9021,-0.23755,0.51855,-24.817,15.802,-11.863
2026-06-11 17:25:41.004,3082280460,117004,2,1.02222,-0.09009,-0.0708,-26.863,20.931,13.954
2026-06-11 17:25:41.204,3082280660,117204,1,0.87329,-0.27344,0.50928,-28.328,14.0,-12.832
2026-06-11 17:25:41.204,3082280660,117204,2,1.02686,-0.12476,-0.10229,-21.237,9.023,6.389
2026-06-11 17:25:41.404,3082280860,117404,1,0.90308,-0.29175,0.49829,-16.435,3.626,-7.092
2026-06-11 17:25:41.404,3082280860,117404,2,1.04321,-0.15942,-0.08521,-13.519,4.809,3.168
2026-06-11 17:25:41.604,3082281060,117604,1,0.90527,-0.27832,0.50537,4.45,-0.885,2.122
2026-06-11 17:25:41.604,3082281060,117604,2,1.0293,-0.12524,-0.0752,15.115,-0.489,-3.076
2026-06-11 17:25:42.804,3082282260,117804,1,0.90967,-0.23901,0.49658,9.275,1.817,4.908
2026-06-11 17:25:42.804,3082282260,117804,2,1.03638,-0.12695,-0.11646,10.557,0.473,-3.351
2026-06-11 17:25:42.041,3082281497,118040,1,0.91724,-0.24292,0.50317,5.42,1.366,1.344
2026-06-11 17:25:42.041,3082281497,118040,2,1.02954,-0.12939,-0.09326,8.756,3.473,-0.855
2026-06-11 17:25:42.240,3082281696,118240,1,0.90674,-0.22388,0.50586,-7.176,2.267,-1.573
2026-06-11 17:25:42.240,3082281696,118240,2,1.06689,-0.17236,-0.12769,-28.466,-9.305,6.244
2026-06-11 17:25:42.440,3082281896,118440,1,0.88062,-0.26416,0.49878,-1.412,3.618,1.725
2026-06-11 17:25:42.440,3082281896,118440,2,1.02075,-0.14209,-0.12988,-7.29,3.031,2.16
2026-06-11 17:25:42.675,3082282131,118675,1,0.8938,-0.28149,0.4856,-23.168,2.519,-9.611
2026-06-11 17:25:42.675,3082282131,118675,2,1.02075,-0.15845,-0.11426,-46.687,1.031,2.939
2026-06-11 17:25:43.875,3082283331,118875,1,0.948,-0.3252,0.49829,-51.74,16.84,-31.374
2026-06-11 17:25:43.875,3082283331,118875,2,1.11304,-0.09985,-0.11426,-52.618,-11.26,14.931
2026-06-11 17:25:43.075,3082282531,119075,1,0.9043,-0.21436,0.47314,-49.473,36.718,-36.55
2026-06-11 17:25:43.075,3082282531,119075,2,1.00415,-0.1123,-0.16821,-68.756,31.275,17.786
2026-06-11 17:25:43.334,3082282790,119334,1,0.90039,-0.2334,0.53833,-56.015,16.092,-33.748
2026-06-11 17:25:43.334,3082282790,119334,2,1.02002,-0.13989,-0.08545,-30.115,14.183,2.809
2026-06-11 17:25:43.534,3082282990,119534,1,0.90479,-0.19751,0.54517,-17.382,5.664,-11.817
2026-06-11 17:25:43.534,3082282990,119534,2,1.03247,-0.10669,-0.12573,-42.702,-5.947,-1.023
2026-06-11 17:25:44.734,3082284190,119734,1,0.91235,-0.20947,0.52612,-24.55,10.687,-7.214
2026-06-11 17:25:44.734,3082284190,119734,2,1.03003,-0.13477,-0.14526,-6.496,-9.603,-0.824
2026-06-11 17:25:44.934,3082284390,119934,1,0.92773,-0.23413,0.49731,10.885,-8.137,0.397
2026-06-11 17:25:44.934,3082284390,119934,2,1.04614,-0.12476,-0.05322,21.489,24.847,-2.092
2026-06-11 17:25:44.134,3082283590,120134,1,0.89136,-0.19897,0.54126,5.725,6.695,4.13
2026-06-11 17:25:44.134,3082283590,120134,2,1.03882,-0.13354,-0.10596,-5.641,-2.168,3.977
2026-06-11 17:25:44.334,3082283790,120334,1,0.88403,-0.22632,0.53345,-4.26,3.618,-0.733
2026-06-11 17:25:44.334,3082283790,120334,2,1.03394,-0.12695,-0.09644,-2.092,0.832,1.458
2026-06-11 17:25:44.534,3082283990,120534,1,0.9082,-0.21899,0.52979,-5.794,0.595,-4.908
2026-06-11 17:25:44.534,3082283990,120534,2,1.03418,-0.14038,-0.09595,-1.733,1.076,-1.351
2026-06-11 17:25:45.736,3082285192,120736,1,0.92236,-0.21216,0.50098,0.672,0.504,-0.473
2026-06-11 17:25:45.736,3082285192,120736,2,1.04443,-0.13452,-0.10254,1.649,0.221,0.588
2026-06-11 17:25:45.936,3082285392,120936,1,0.91309,-0.21753,0.51123,4.336,0.031,2.817
