datetime,epoch_ms,ts_millis,mpu_id,ax,ay,az,gx,gy,gz
2026-06-14 22:18:19.235,3359038691,398235,2,1.00073,-0.16846,-0.15015,-36.015,-28.275,23.573
2026-06-14 22:18:41.727,3359061183,420727,1,0.55103,-0.03149,0.90381,45.641,-25.313,-2.832
2026-06-14 22:18:41.727,3359061183,420727,2,1.02271,-0.19922,-0.12329,-22.183,-7.046,10.26
2026-06-14 22:18:41.099,3359060555,421099,1,0.68921,0.08716,0.83008,-17.252,-16.321,-14.504
2026-06-14 22:18:41.099,3359060555,421099,2,1.01733,-0.33252,-0.15845,-3.107,-14.481,11.603
2026-06-14 22:18:42.315,3359061771,421315,1,0.73877,-0.05762,0.77686,-18.153,-6.656,15.374
2026-06-14 22:18:42.315,3359061771,421315,2,0.94971,-0.39844,-0.25586,-1.069,-12.756,11.328
2026-06-14 22:18:42.621,3359062077,421621,1,0.83398,-0.11987,0.67114,-3.489,-5.618,14.496
2026-06-14 22:18:42.621,3359062077,421621,2,0.93677,-0.40649,-0.2854,1.389,0.718,5.939
2026-06-14 22:18:42.822,3359062278,421822,1,0.83813,-0.23706,0.6145,-15.557,11.687,-13.13
2026-06-14 22:18:42.822,3359062278,421822,2,0.89966,-0.47583,-0.25708,7.931,13.55,-8.863
2026-06-14 22:18:42.022,3359061478,422022,1,0.77808,-0.21777,0.73096,14.176,19.412,10.763
2026-06-14 22:18:42.022,3359061478,422022,2,0.97559,-0.38867,-0.22681,26.0,4.618,-23.725
2026-06-14 22:18:43.222,3359062678,422222,1,0.63403,-0.05566,0.76489,19.382,29.779,-12.366
2026-06-14 22:18:43.222,3359062678,422222,2,0.99805,-0.22339,-0.09839,-5.847,22.977,-11.389
2026-06-14 22:18:43.422,3359062878,422422,1,0.59424,0.10864,0.95679,12.038,3.603,-22.565
2026-06-14 22:18:43.422,3359062878,422422,2,1.05933,-0.26294,-0.11499,-7.443,-0.969,13.351
2026-06-14 22:18:43.622,3359063078,422622,1,0.64355,-0.03711,0.8606,-3.565,5.298,0.863
2026-06-14 22:18:43.622,3359063078,422622,2,0.98218,-0.32959,-0.11499,1.16,2.168,1.252
2026-06-14 22:18:44.351,3359063807,423351,1,0.69214,-0.12305,0.82495,4.977,0.481,-0.893
2026-06-14 22:18:44.351,3359063807,423351,2,1.02295,-0.31763,-0.1394,1.076,-0.275,-4.481
2026-06-14 22:18:44.825,3359064281,423825,1,0.70313,-0.07251,0.81274,-3.031,-0.45,-1.145
2026-06-14 22:18:44.825,3359064281,423825,2,1.0061,-0.26343,-0.15283,4.679,0.107,-2.725
2026-06-14 22:18:45.188,3359064644,424188,1,0.69116,-0.0686,0.81201,-6.359,0.55,-0.153
2026-06-14 22:18:45.188,3359064644,424188,2,0.98926,-0.31348,-0.15283,-0.389,0.122,-1.931
2026-06-14 22:18:45.600,3359065056,424600,1,0.70483,-0.06714,0.80103,-1.527,1.275,-0.855
2026-06-14 22:18:45.600,3359065056,424600,2,0.98511,-0.32153,-0.17212,1.702,0.496,-0.748
2026-06-14 22:18:45.800,3359065256,424800,1,0.71118,-0.0647,0.79468,-1.74,0.878,0.435
2026-06-14 22:18:45.800,3359065256,424800,2,0.97974,-0.33057,-0.15796,0.71,1.359,0.092
2026-06-14 22:18:45.000,3359064456,425000,1,0.70825,-0.07568,0.8291,3.023,0.191,2.908
2026-06-14 22:18:45.000,3359064456,425000,2,0.9707,-0.32275,-0.18994,-4.275,-10.504,16.824
2026-06-14 22:18:46.227,3359065683,425227,1,0.74194,-0.12427,0.74316,-7.145,-6.771,4.099
2026-06-14 22:18:46.227,3359065683,425227,2,0.95117,-0.35107,-0.18896,-13.817,-2.359,3.748
2026-06-14 22:18:46.463,3359065919,425463,1,0.78247,-0.13428,0.71021,2.435,7.466,-3.58
2026-06-14 22:18:46.463,3359065919,425463,2,0.94116,-0.33154,-0.22729,-17.29,2.038,7.634
2026-06-14 22:18:46.663,3359066119,425663,1,0.73071,-0.15356,0.74731,-10.13,1.229,-9.962
2026-06-14 22:18:46.663,3359066119,425663,2,0.95654,-0.34033,-0.22485,-7.359,-1.588,-0.763
2026-06-14 22:18:46.863,3359066319,425863,1,0.7749,-0.0874,0.73877,9.023,5.702,1.634
2026-06-14 22:18:46.863,3359066319,425863,2,0.96777,-0.34766,-0.24561,6.939,6.908,-6.031
2026-06-14 22:18:46.069,3359065525,426069,1,0.76758,-0.08325,0.73706,12.939,10.969,14.725
2026-06-14 22:18:46.069,3359065525,426069,2,0.96094,-0.31299,-0.20435,8.588,9.618,-8.29
2026-06-14 22:18:47.269,3359066725,426269,1,0.69116,-0.11011,0.78076,-17.733,1.763,-12.374
2026-06-14 22:18:47.269,3359066725,426269,2,0.96899,-0.33154,-0.18066,6.649,3.397,-7.427
2026-06-14 22:18:47.469,3359066925,426469,1,0.72656,-0.06567,0.7981,-1.328,4.969,-8.427
2026-06-14 22:18:47.469,3359066925,426469,2,0.96509,-0.33936,-0.20239,-0.947,1.42,-0.183
2026-06-14 22:18:47.669,3359067125,426669,1,0.73364,-0.0874,0.77393,4.092,1.168,1.412
2026-06-14 22:18:47.669,3359067125,426669,2,0.97144,-0.32983,-0.19629,2.603,1.359,-1.435
2026-06-14 22:18:47.869,3359067325,426869,1,0.72656,-0.08154,0.77759,-1.092,1.191,2.489
2026-06-14 22:18:47.869,3359067325,426869,2,0.96973,-0.32593,-0.198,0.969,2.107,0.198
2026-06-14 22:18:47.069,3359066525,427069,1,0.72485,-0.0957,0.78687,-0.069,1.992,-0.527
2026-06-14 22:18:47.069,3359066525,427069,2,0.97095,-0.3269,-0.18994,0.29,1.427,-0.26
2026-06-14 22:18:48.304,3359067760,427304,1,0.73193,-0.08765,0.78003,1.588,2.595,0.069
2026-06-14 22:18:48.304,3359067760,427304,2,0.96948,-0.32593,-0.19971,-0.427,1.588,-0.588
2026-06-14 22:18:48.504,3359067960,427504,1,0.73047,-0.08179,0.79834,1.099,2.687,0.435
2026-06-14 22:18:48.504,3359067960,427504,2,0.96655,-0.32959,-0.18555,0.359,2.031,-0.397
2026-06-14 22:18:48.704,3359068160,427704,1,0.72461,-0.09277,0.77856,1.046,2.443,0.664
2026-06-14 22:18:48.704,3359068160,427704,2,0.9707,-0.3313,-0.19312,0.557,1.641,-0.366
2026-06-14 22:18:48.904,3359068360,427904,1,0.72363,-0.09009,0.78516,1.595,1.924,0.458
2026-06-14 22:18:48.904,3359068360,427904,2,0.97266,-0.33301,-0.18945,-0.13,1.458,-0.122
2026-06-14 22:18:48.104,3359067560,428104,1,0.73438,-0.08301,0.77856,0.405,1.527,0.328
2026-06-14 22:18:48.104,3359067560,428104,2,0.96704,-0.33057,-0.18481,0.779,1.954,-0.031
2026-06-14 22:18:49.304,3359068760,428304,1,0.73096,-0.08545,0.77954,1.061,2.405,0.298
2026-06-14 22:18:49.304,3359068760,428304,2,0.97119,-0.32959,-0.20239,0.802,1.794,-0.595
2026-06-14 22:18:49.514,3359068970,428514,1,0.72241,-0.0874,0.78711,-1.237,1.298,-0.336
2026-06-14 22:18:49.514,3359068970,428514,2,0.96143,-0.33716,-0.19263,-1.366,0.435,0.725
2026-06-14 22:18:49.714,3359069170,428714,1,0.76099,-0.18701,0.75317,43.237,3.885,35.618
2026-06-14 22:18:49.714,3359069170,428714,2,0.94263,-0.27002,-0.23926,34.038,-5.763,-40.763
2026-06-14 22:18:49.914,3359069370,428914,1,0.65894,-0.03784,0.80151,-36.603,15.229,-29.206
2026-06-14 22:18:49.914,3359069370,428914,2,0.94629,-0.49634,-0.18848,-13.168,-5.74,4.832
2026-06-14 22:18:50.154,3359069610,429154,1,0.80884,-0.05103,0.74536,51.985,1.046,26.191
2026-06-14 22:18:50.154,3359069610,429154,2,0.98877,-0.3103,-0.21021,45.603,1.733,-46.595
2026-06-14 22:18:50.354,3359069810,429354,1,0.66528,0.00635,0.84033,-35.473,13.328,-6.26
2026-06-14 22:18:50.354,3359069810,429354,2,0.98218,-0.17383,-0.14429,-29.985,8.809,31.947
2026-06-14 22:18:50.554,3359070010,429554,1,0.71216,-0.15869,0.82202,-2.786,-0.725,-11.397
2026-06-14 22:18:50.554,3359070010,429554,2,1.00708,-0.36035,-0.19263,33.145,5.725,-42.916
2026-06-14 22:18:50.754,3359070210,429754,1,0.63013,0.04346,0.82764,29.618,-0.84,39.229
2026-06-14 22:18:50.754,3359070210,429754,2,1.04224,-0.04077,-0.18164,-19.176,4.786,32.443
2026-06-14 22:18:50.954,3359070410,429954,1,0.69165,-0.26636,0.78516,-70.061,13.916,-89.901
2026-06-14 22:18:50.954,3359070410,429954,2,0.91577,-0.55029,-0.19214,-2.031,3.046,10.939
2026-06-14 22:18:51.154,3359070610,430154,1,0.66187,-0.09888,0.83398,44.366,6.664,64.588
2026-06-14 22:18:51.154,3359070610,430154,2,0.99658,-0.19653,-0.14526,-4.115,1.466,14.992
2026-06-14 22:18:51.354,3359070810,430354,1,0.68579,-0.21924,0.80225,-39.061,-7.55,-22.756
2026-06-14 22:18:51.354,3359070810,430354,2,0.96582,-0.41431,-0.18018,-14.29,-0.618,13.336
2026-06-14 22:18:51.554,3359071010,430554,1,0.74292,-0.17773,0.75903,9.656,0.603,3.321
2026-06-14 22:18:51.554,3359071010,430554,2,0.96509,-0.36279,-0.15918,1.634,2.038,-2.305
2026-06-14 22:18:51.754,3359071210,430754,1,0.66187,-0.18359,0.84424,-2.473,-1.13,4.153
2026-06-14 22:18:51.754,3359071210,430754,2,1.00366,-0.29565,-0.20483,-2.84,-9.878,7.779
2026-06-14 22:18:51.964,3359071420,430964,1,0.84814,-0.03467,0.67261,-9.489,-6.779,-6.595
2026-06-14 22:18:51.964,3359071420,430964,2,0.87451,-0.41235,-0.20264,6.855,5.0,25.282
2026-06-14 22:18:52.164,3359071620,431164,1,0.76514,-0.28687,0.73853,-26.122,14.359,19.626
2026-06-14 22:18:52.164,3359071620,431164,2,0.94678,-0.45508,-0.14746,11.382,4.855,-5.153
2026-06-14 22:18:52.364,3359071820,431364,1,0.63086,-0.24097,0.78198,2.084,13.214,-1.931
2026-06-14 22:18:52.364,3359071820,431364,2,0.95361,-0.43115,-0.11353,11.664,8.145,-3.366
2026-06-14 22:18:52.564,3359072020,431564,1,0.66724,-0.26611,0.78369,-5.656,13.061,-3.855
2026-06-14 22:18:52.564,3359072020,431564,2,0.96777,-0.40308,-0.10791,-1.939,9.137,-7.84
2026-06-14 22:18:52.764,3359072220,431764,1,0.61816,-0.25024,0.8313,-4.634,13.115,-1.695
2026-06-14 22:18:52.764,3359072220,431764,2,0.95654,-0.4021,-0.04297,-3.214,6.733,-2.885
2026-06-14 22:18:52.964,3359072420,431964,1,0.60571,-0.26099,0.8606,0.565,2.313,1.145
2026-06-14 22:18:52.964,3359072420,431964,2,0.97656,-0.39941,-0.1001,-2.947,-1.389,1.519
2026-06-14 22:18:53.190,3359072646,432190,1,0.65845,-0.24902,0.79468,1.427,-0.008,1.733
2026-06-14 22:18:53.190,3359072646,432190,2,0.97485,-0.40601,-0.09595,-2.107,0.718,-1.015
2026-06-14 22:18:53.390,3359072846,432390,1,0.66504,-0.22363,0.80835,3.031,6.229,4.603
2026-06-14 22:18:53.390,3359072846,432390,2,0.99292,-0.38965,-0.09448,7.13,0.878,-5.191
2026-06-14 22:18:53.700,3359073156,432700,1,0.63892,-0.18799,0.80859,9.824,-3.137,-2.763
2026-06-14 22:18:53.700,3359073156,432700,2,0.97778,-0.37939,-0.08569,2.214,6.145,-1.153
2026-06-14 22:18:53.900,3359073356,432900,1,0.62622,-0.17969,0.84814,-2.687,7.939,0.374
2026-06-14 22:18:53.900,3359073356,432900,2,0.9856,-0.37622,-0.03735,4.679,10.153,-3.641
2026-06-14 22:18:53.100,3359072556,433100,1,0.58521,-0.15161,0.8689,1.557,13.015,10.405
2026-06-14 22:18:53.100,3359072556,433100,2,0.99292,-0.35596,-0.01904,4.176,7.603,-2.229
2026-06-14 22:18:54.333,3359073789,433333,1,0.53687,-0.22046,0.90552,1.786,10.405,0.435
2026-06-14 22:18:54.333,3359073789,433333,2,0.98267,-0.37695,0.02002,5.275,5.985,-2.779
2026-06-14 22:18:54.533,3359073989,433533,1,0.52173,-0.18872,0.90405,2.947,2.061,3.115
2026-06-14 22:18:54.533,3359073989,433533,2,1.00977,-0.33325,0.02563,2.214,2.947,-0.42
2026-06-14 22:18:54.733,3359074189,433733,1,0.53003,-0.19702,0.9043,-4.427,3.145,1.076
2026-06-14 22:18:54.733,3359074189,433733,2,1.00146,-0.36694,0.02808,-2.649,2.458,1.954
2026-06-14 22:18:54.933,3359074389,433933,1,0.52466,-0.22925,0.89575,2.908,2.74,0.084
2026-06-14 22:18:54.933,3359074389,433933,2,0.99536,-0.34302,0.02856,-2.901,1.092,-0.198
2026-06-14 22:18:55.133,3359074589,434133,1,0.50317,-0.25732,0.88623,-4.092,-14.389,-20.137
2026-06-14 22:18:55.133,3359074589,434133,2,0.99023,-0.37231,-0.01611,-22.313,-14.282,-2.42
2026-06-14 22:18:55.333,3359074789,434333,1,0.62817,-0.15698,0.84766,12.84,-12.42,-9.733
2026-06-14 22:18:55.333,3359074789,434333,2,0.97705,-0.25415,-0.08081,-22.481,-15.824,-8.137
2026-06-14 22:18:55.564,3359075020,434563,1,0.63623,-0.09741,0.75781,-6.031,-18.863,-22.412
2026-06-14 22:18:55.564,3359075020,434563,2,0.97437,-0.32397,-0.22681,-22.076,-26.405,1.328
2026-06-14 22:18:55.763,3359075219,434763,1,0.83203,-0.08765,0.65991,21.053,-18.504,15.084
2026-06-14 22:18:55.763,3359075219,434763,2,0.95801,-0.31958,-0.29663,8.443,-17.702,-19.42
2026-06-14 22:18:55.963,3359075419,434963,1,0.82446,-0.12817,0.72046,34.443,-2.015,12.458
2026-06-14 22:18:55.963,3359075419,434963,2,0.94336,-0.15503,-0.34155,-8.672,-1.55,-24.58
2026-06-14 22:18:56.163,3359075619,435163,1,0.86548,0.0354,0.68628,-1.298,-3.687,-20.992
2026-06-14 22:18:56.163,3359075619,435163,2,0.95874,-0.0957,-0.30591,-30.733,7.282,-7.573
2026-06-14 22:18:56.363,3359075819,435363,1,0.82007,0.03784,0.67847,-4.832,5.824,-13.855
2026-06-14 22:18:56.363,3359075819,435363,2,0.9834,-0.09277,-0.32861,-4.618,0.863,-5.221
2026-06-14 22:18:56.563,3359076019,435563,1,0.78027,0.05542,0.73682,-4.099,1.489,-4.092
2026-06-14 22:18:56.563,3359076019,435563,2,0.96851,-0.08032,-0.33423,1.885,-3.649,-2.824
2026-06-14 22:18:56.763,3359076219,435763,1,0.85522,0.00562,0.67651,1.031,-6.466,8.092
2026-06-14 22:18:56.763,3359076219,435763,2,0.94043,-0.14404,-0.34302,36.183,-20.954,-2.55
2026-06-14 22:18:56.963,3359076419,435963,1,0.85376,-0.03369,0.67529,29.733,-7.282,51.351
2026-06-14 22:18:56.963,3359076419,435963,2,0.95703,0.10815,-0.34302,19.191,8.748,-18.183
2026-06-14 22:18:57.163,3359076619,436163,1,0.8623,-0.01123,0.69263,-18.626,8.695,-19.183
2026-06-14 22:18:57.163,3359076619,436163,2,0.94897,-0.22803,-0.36304,-39.611,10.565,15.58
2026-06-14 22:18:57.363,3359076819,436363,1,0.8855,-0.08569,0.62793,0.473,11.26,-6.489
2026-06-14 22:18:57.363,3359076819,436363,2,0.99023,-0.20898,-0.4043,4.649,15.802,-8.046
2026-06-14 22:18:57.563,3359077019,436563,1,0.91699,-0.04712,0.58643,-3.634,34.435,-12.244
2026-06-14 22:18:57.563,3359077019,436563,2,0.99194,-0.12036,-0.37988,-20.771,48.634,-5.672
2026-06-14 22:18:57.763,3359077219,436763,1,0.79321,-0.00464,0.69946,11.786,62.718,-6.282
2026-06-14 22:18:57.763,3359077219,436763,2,1.43262,0.06055,-0.08008,-5.573,71.053,-16.947
2026-06-14 22:18:57.963,3359077419,436963,1,0.27417,0.09058,1.22168,-17.458,40.702,-18.237
2026-06-14 22:18:57.963,3359077419,436963,2,1.16284,0.05469,0.36035,-14.748,24.366,3.786
2026-06-14 22:18:58.163,3359077619,437163,1,0.29053,0.05884,1.16675,-10.29,-29.458,-11.053
2026-06-14 22:18:58.163,3359077619,437163,2,0.89526,-0.0769,0.17578,-31.931,-48.611,19.817
2026-06-14 22:18:58.363,3359077819,437363,1,0.521,-0.03491,0.64233,8.26,-39.672,3.153
2026-06-14 22:18:58.363,3359077819,437363,2,0.87622,-0.1416,-0.01367,4.015,-25.527,-1.237
2026-06-14 22:18:58.563,3359078019,437563,1,0.73413,0.00269,0.75586,10.611,-14.985,-0.42
2026-06-14 22:18:58.563,3359078019,437563,2,1.0249,-0.13916,-0.16553,17.718,-21.832,-14.557
2026-06-14 22:18:58.763,3359078219,437763,1,0.76709,0.05518,0.75903,8.718,5.718,5.069
2026-06-14 22:18:58.763,3359078219,437763,2,1.06274,-0.06396,-0.15161,7.176,13.71,13.695
2026-06-14 22:18:58.963,3359078419,437963,1,0.77979,-0.00537,0.72363,-24.977,14.427,-8.069
2026-06-14 22:18:58.963,3359078419,437963,2,1.01587,-0.2561,-0.11938,-37.267,28.55,26.053
2026-06-14 22:18:59.214,3359078670,438214,1,0.56079,-0.03418,0.89307,-18.893,28.817,-43.519
2026-06-14 22:18:59.214,3359078670,438214,2,1.00317,-0.21729,-0.04688,-46.496,17.206,0.771
2026-06-14 22:18:59.414,3359078870,438414,1,0.60645,0.01343,0.91113,-40.901,-10.206,-48.084
2026-06-14 22:18:59.414,3359078870,438414,2,0.99121,-0.29688,-0.08984,-63.863,-7.756,15.695
2026-06-14 22:18:59.614,3359079070,438614,1,0.61963,-0.10669,0.86646,-15.42,-17.611,-23.16
2026-06-14 22:18:59.614,3359079070,438614,2,0.97925,-0.2793,-0.11865,-47.122,-9.695,-0.847
2026-06-14 22:18:59.814,3359079270,438814,1,0.65698,-0.07007,0.83423,-36.031,-13.336,-40.779
2026-06-14 22:18:59.814,3359079270,438814,2,0.92432,-0.25732,-0.17871,-81.84,-11.16,29.489
2026-06-14 22:18:59.014,3359078470,439014,1,0.90601,0.37183,0.66162,-94.573,-61.611,-89.168
2026-06-14 22:18:59.014,3359078470,439014,2,1.00806,-0.11792,-0.27271,-156.298,-7.481,108.046
2026-06-14 22:19:00.214,3359079670,439214,1,0.85718,0.06836,0.56323,-127.496,9.748,-72.153
2026-06-14 22:19:00.214,3359079670,439214,2,0.9541,-0.22607,-0.3938,-88.458,35.534,27.45
2026-06-14 22:19:00.414,3359079870,439414,1,0.87109,-0.05054,0.60645,-41.374,16.069,-22.565
2026-06-14 22:19:00.414,3359079870,439414,2,0.88843,-0.20337,-0.37866,-26.061,12.634,10.626
2026-06-14 22:19:00.614,3359080070,439614,1,0.86255,-0.07373,0.58203,1.107,17.053,4.031
2026-06-14 22:19:00.614,3359080070,439614,2,0.86548,-0.12793,-0.35986,50.237,-0.489,-24.771
2026-06-14 22:19:00.814,3359080270,439814,1,1.0752,-0.01196,0.70557,36.0,-20.137,40.634
2026-06-14 22:19:00.814,3359080270,439814,2,0.88745,-0.19775,-0.37915,68.115,-30.214,-49.634
2026-06-14 22:19:00.014,3359079470,440014,1,0.8313,-0.09497,0.75879,18.412,12.305,30.221
2026-06-14 22:19:00.014,3359079470,440014,2,0.95825,-0.25537,-0.24976,105.55,-21.916,-41.863
2026-06-14 22:19:01.214,3359080670,440214,1,0.90674,-0.0437,0.57202,87.389,-9.115,64.458
2026-06-14 22:19:01.214,3359080670,440214,2,0.88428,-0.2124,-0.41919,112.397,-30.282,-51.969
2026-06-14 22:19:01.414,3359080870,440414,1,0.88281,0.01611,0.56006,79.198,-7.565,47.588
2026-06-14 22:19:01.414,3359080870,440414,2,0.84521,-0.20288,-0.45483,46.511,-43.038,-27.237
2026-06-14 22:19:01.614,3359081070,440614,1,0.83765,0.10474,0.6167,43.053,8.924,34.863
2026-06-14 22:19:01.614,3359081070,440614,2,0.90845,-0.04688,-0.3999,23.588,-1.305,-31.0
2026-06-14 22:19:01.814,3359081270,440814,1,0.89307,0.15771,0.58252,15.336,-12.824,12.084
2026-06-14 22:19:01.814,3359081270,440814,2,0.72656,-0.50342,-0.53564,-84.634,-0.321,54.679
2026-06-14 22:19:01.080,3359080536,441080,1,1.0022,-0.15747,0.63184,44.969,-35.344,-2.733
2026-06-14 22:19:01.080,3359080536,441080,2,0.86011,-0.36279,-0.35425,-37.817,8.542,4.824
2026-06-14 22:19:02.288,3359081744,441288,1,0.89404,-0.12036,0.57764,-8.969,2.649,-2.092
2026-06-14 22:19:02.288,3359081744,441288,2,0.82178,-0.23291,-0.48047,11.405,-0.664,-11.481
2026-06-14 22:19:02.488,3359081944,441488,1,0.88647,0.02417,0.58008,11.069,-5.252,4.786
2026-06-14 22:19:02.488,3359081944,441488,2,0.82349,-0.21802,-0.46899,0.931,-3.313,5.908
2026-06-14 22:19:02.701,3359082157,441701,1,0.90112,0.00049,0.54541,1.076,-8.977,-9.618
2026-06-14 22:19:02.701,3359082157,441701,2,0.79272,-0.24756,-0.50977,-6.634,-5.305,13.344
2026-06-14 22:19:02.901,3359082357,441901,1,0.94751,0.03491,0.5061,-8.321,-1.176,-7.252
2026-06-14 22:19:02.901,3359082357,441901,2,0.81714,-0.29272,-0.53833,-12.183,2.26,5.13
2026-06-14 22:19:02.101,3359081557,442101,1,0.94531,0.00732,0.5105,-11.756,5.931,-1.443
2026-06-14 22:19:02.101,3359081557,442101,2,0.79736,-0.29004,-0.52441,4.336,4.221,-4.748
2026-06-14 22:19:03.301,3359082757,442301,1,0.93091,-0.00903,0.51978,8.779,7.214,5.153
2026-06-14 22:19:03.301,3359082757,442301,2,0.8186,-0.271,-0.54541,8.267,2.634,-9.397
2026-06-14 22:19:03.501,3359082957,442501,1,0.93384,-0.00537,0.521,5.969,2.466,4.954
2026-06-14 22:19:03.501,3359082957,442501,2,0.81738,-0.2627,-0.53931,3.13,2.13,-2.641
2026-06-14 22:19:03.701,3359083157,442701,1,0.93555,-0.00244,0.52637,3.725,2.244,3.328
2026-06-14 22:19:03.701,3359083157,442701,2,0.80835,-0.27319,-0.53345,5.229,0.618,-0.847
2026-06-14 22:19:03.901,3359083357,442901,1,0.9353,-0.02759,0.50659,5.641,1.901,4.26
2026-06-14 22:19:03.901,3359083357,442901,2,0.79248,-0.28271,-0.53442,9.55,-1.26,-6.794
2026-06-14 22:19:03.101,3359082557,443101,1,0.94458,-0.01245,0.50122,14.733,3.176,2.847
2026-06-14 22:19:03.101,3359082557,443101,2,0.81128,-0.26733,-0.56152,8.931,1.13,-13.924
2026-06-14 22:19:04.301,3359083757,443301,1,0.93286,0.0293,0.52002,18.115,7.275,14.099
2026-06-14 22:19:04.301,3359083757,443301,2,0.82104,-0.24316,-0.521,27.153,-0.061,-27.939
2026-06-14 22:19:04.528,3359083984,443528,1,0.92261,0.02661,0.52734,6.237,2.931,19.115
2026-06-14 22:19:04.528,3359083984,443528,2,0.78442,-0.23901,-0.47144,22.664,7.061,-10.229
2026-06-14 22:19:04.728,3359084184,443728,1,0.93921,-0.1062,0.52612,8.519,12.046,6.481
2026-06-14 22:19:04.728,3359084184,443728,2,0.86523,-0.30444,-0.64209,1.336,-0.84,-2.42
2026-06-14 22:19:04.928,3359084384,443928,1,0.92969,-0.06323,0.45435,-2.58,24.298,-13.885
2026-06-14 22:19:04.928,3359084384,443928,2,0.69873,-0.32104,-0.51196,-12.183,16.511,8.947
2026-06-14 22:19:04.128,3359083584,444128,1,0.94336,-0.07446,0.53369,5.321,5.252,-5.603
2026-06-14 22:19:04.128,3359083584,444128,2,1.03345,-0.37524,-0.55249,14.557,-1.87,
2026-06-14 22:19:05.328,3359084784,444328,1,0.92383,-0.00903,0.62354,24.817,-9.649,11.198
2026-06-14 22:19:05.328,3359084784,444328,2,0.89331,-0.26416,-0.22168,67.366,-12.443,-25.221
2026-06-14 22:19:05.528,3359084984,444528,1,0.82617,0.09131,0.58569,61.908,-4.756,41.756
2026-06-14 22:19:05.528,3359084984,444528,2,0.84448,-0.09448,-0.47729,28.947,-15.611,-47.397
2026-06-14 22:19:05.728,3359085184,444728,1,0.82471,0.15967,0.52222,31.695,-12.794,16.611
2026-06-14 22:19:05.728,3359085184,444728,2,0.80444,-0.05835,-0.50757,2.389,-27.038,-14.725
2026-06-14 22:19:05.928,3359085384,444928,1,0.77759,-0.00977,0.57861,21.687,-10.817,10.824
2026-06-14 22:19:05.928,3359085384,444928,2,1.06592,-0.06665,-0.40381,-54.046,-7.756,-25.015
2026-06-14 22:19:05.128,3359084584,445128,1,0.90894,0.03491,0.56226,2.908,10.206,-23.29
2026-06-14 22:19:05.128,3359084584,445128,2,0.80127,-0.31128,-0.55249,2.473,-9.58,12.542
2026-06-14 22:19:06.333,3359085789,445333,1,0.92798,-0.02637,0.47778,26.069,5.985,14.748
2026-06-14 22:19:06.333,3359085789,445333,2,0.80811,-0.23657,-0.50635,29.031,-1.427,-30.847
2026-06-14 22:19:06.533,3359085989,445533,1,0.95313,0.04736,0.49878,26.298,6.603,29.053
2026-06-14 22:19:06.533,3359085989,445533,2,0.74878,-0.21362,-0.50952,23.069,-10.122,-12.26
2026-06-14 22:19:06.733,3359086189,445733,1,0.94336,0.02271,0.5061,64.153,-3.992,39.527
2026-06-14 22:19:06.733,3359086189,445733,2,0.78931,-0.22461,-0.54004,69.58,-18.206,-56.115
2026-06-14 22:19:06.933,3359086389,445933,1,0.95752,0.05322,0.4834,93.458,3.977,55.053
2026-06-14 22:19:06.933,3359086389,445933,2,0.81323,-0.17773,-0.58008,64.985,-13.634,-68.748
2026-06-14 22:19:07.133,3359086589,446133,1,0.95313,0.0083,0.47461,107.794,11.893,55.679
2026-06-14 22:19:07.133,3359086589,446133,2,0.92163,-0.32178,-0.62476,56.969,2.565,-92.366
2026-06-14 22:19:07.333,3359086789,446333,1,0.90601,0.20776,0.53662,-9.176,10.282,-9.389
2026-06-14 22:19:07.333,3359086789,446333,2,0.8252,-0.00439,-0.42896,2.672,4.916,14.229
2026-06-14 22:19:07.533,3359086989,446533,1,0.96509,0.08276,0.55054,-45.084,-12.519,-43.244
2026-06-14 22:19:07.533,3359086989,446533,2,0.87891,-0.22363,-0.521,-33.687,9.168,6.702
2026-06-14 22:19:07.733,3359087189,446733,1,0.89014,0.13086,0.55444,-55.374,0.687,-36.374
2026-06-14 22:19:07.733,3359087189,446733,2,0.82983,-0.21411,-0.46191,-33.794,11.298,51.183
2026-06-14 22:19:07.933,3359087389,446933,1,0.92114,0.01709,0.54565,-26.565,-0.336,-7.672
2026-06-14 22:19:07.933,3359087389,446933,2,0.84473,-0.23877,-0.51318,-4.061,0.855,13.099
2026-06-14 22:19:08.188,3359087644,447188,1,0.9292,-0.0083,0.54028,-15.656,1.336,-5.229
2026-06-14 22:19:08.188,3359087644,447188,2,0.85522,-0.23877,-0.5144,-2.878,0.519,8.221
2026-06-14 22:19:08.388,3359087844,447388,1,0.9248,0.03613,0.53564,-1.099,2.611,8.481
2026-06-14 22:19:08.388,3359087844,447388,2,0.89233,-0.22998,-0.52246,-6.931,2.87,5.122
2026-06-14 22:19:08.625,3359088081,447625,1,0.89917,-0.03979,0.54248,8.756,4.099,8.046
2026-06-14 22:19:08.625,3359088081,447625,2,0.83008,-0.2251,-0.51416,13.015,0.427,-34.252
2026-06-14 22:19:08.826,3359088282,447826,1,0.9104,0.04443,0.56079,17.565,1.977,5.344
2026-06-14 22:19:08.826,3359088282,447826,2,0.83887,-0.16724,-0.50952,9.74,-2.069,-8.198
2026-06-14 22:19:08.026,3359087482,448026,1,0.90381,0.08569,0.54468,7.359,-1.053,-3.771
2026-06-14 22:19:08.026,3359087482,448026,2,0.88159,-0.2312,-0.39551,-4.679,-3.015,2.595
2026-06-14 22:19:09.248,3359088704,448248,1,0.91162,0.11328,0.57861,10.389,-3.863,1.74
2026-06-14 22:19:09.248,3359088704,448248,2,0.83643,-0.1958,-0.52124,-2.908,-3.282,-1.023
2026-06-14 22:19:09.448,3359088904,448448,1,0.93799,0.06421,0.5061,-8.344,-1.718,0.038
2026-06-14 22:19:09.448,3359088904,448448,2,0.84033,-0.21924,-0.54321,-1.985,-3.519,-1.389
2026-06-14 22:19:09.648,3359089104,448648,1,0.93384,0.08447,0.50952,2.641,2.405,4.099
2026-06-14 22:19:09.648,3359089104,448648,2,0.81592,-0.20874,-0.53223,-7.901,11.069,2.71
2026-06-14 22:19:09.914,3359089370,448914,1,0.96436,-0.01636,0.48413,-3.962,13.176,6.916
2026-06-14 22:19:09.914,3359089370,448914,2,0.83838,-0.20483,-0.51172,1.733,14.84,2.015
2026-06-14 22:19:09.114,3359088570,449114,1,0.89722,0.02832,0.55933,-1.58,13.855,2.695
2026-06-14 22:19:09.114,3359088570,449114,2,0.87744,-0.19604,-0.50879,8.008,7.458,-9.611
2026-06-14 22:19:10.314,3359089770,449314,1,0.94897,-0.01782,0.52246,5.267,30.634,23.74
2026-06-14 22:19:10.314,3359089770,449314,2,0.90063,-0.07153,-0.44897,13.847,27.389,-42.313
2026-06-14 22:19:10.514,3359089970,449514,1,0.91064,-0.0625,0.65112,-40.206,26.695,-4.924
2026-06-14 22:19:10.514,3359089970,449514,2,0.91089,-0.09131,-0.41772,31.626,23.573,-26.573
2026-06-14 22:19:10.714,3359090170,449714,1,0.70923,0.09595,0.68164,30.115,0.664,2.733
2026-06-14 22:19:10.714,3359090170,449714,2,0.91064,0.02441,-0.36499,-31.84,-5.267,12.458
2026-06-14 22:19:10.914,3359090370,449914,1,0.81274,0.1377,0.68726,6.42,-46.313,-6.748
2026-06-14 22:19:10.914,3359090370,449914,2,1.0376,-0.12524,-0.41968,-17.573,-28.275,-21.763
2026-06-14 22:19:11.137,3359090593,450136,1,0.93457,-0.02173,0.58032,70.481,-36.656,0.282
2026-06-14 22:19:11.137,3359090593,450136,2,0.8916,-0.40796,-0.57446,84.366,-51.221,-46.153
2026-06-14 22:19:11.336,3359090792,450336,1,1.00171,0.11646,0.41748,88.534,17.534,73.802
2026-06-14 22:19:11.336,3359090792,450336,2,0.79199,-0.15771,-0.60742,133.725,-4.443,-82.313
2026-06-14 22:19:11.536,3359090992,450536,1,0.90039,0.0498,0.49927,136.435,32.985,79.702
2026-06-14 22:19:11.536,3359090992,450536,2,0.88477,-0.1543,-0.47681,72.389,3.374,-10.427
2026-06-14 22:19:11.783,3359091239,450783,1,0.90747,0.02588,0.66211,3.458,0.389,3.893
2026-06-14 22:19:11.783,3359091239,450783,2,0.85083,-0.16235,-0.41431,-8.626,-12.191,14.382
2026-06-14 22:19:11.983,3359091439,450983,1,0.93311,0.104,0.55176,-15.71,-0.267,12.092
2026-06-14 22:19:11.983,3359091439,450983,2,0.8501,-0.14941,-0.44922,38.107,-13.885,-34.885
2026-06-14 22:19:12.209,3359091665,451209,1,0.96802,0.06372,0.49902,48.595,-5.878,23.298
2026-06-14 22:19:12.209,3359091665,451209,2,0.8772,-0.09937,-0.53442,9.382,-15.397,-42.695
2026-06-14 22:19:12.409,3359091865,451409,1,0.91284,0.17358,0.50879,43.901,-2.496,1.672
2026-06-14 22:19:12.409,3359091865,451409,2,0.86157,-0.14355,-0.56299,-8.198,-0.832,-0.992
2026-06-14 22:19:12.609,3359092065,451609,1,0.95825,0.1416,0.47168,15.038,19.656,3.565
2026-06-14 22:19:12.609,3359092065,451609,2,0.84424,-0.11328,-0.54858,17.618,16.321,-7.641
2026-06-14 22:19:12.810,3359092266,451810,1,0.92407,0.1106,0.53882,-16.198,12.008,6.489
2026-06-14 22:19:12.810,3359092266,451810,2,0.8479,-0.146,-0.46899,-2.58,12.672,5.695
2026-06-14 22:19:12.010,3359091466,452010,1,0.9248,0.00464,0.5293,-22.244,15.947,10.771
2026-06-14 22:19:12.010,3359091466,452010,2,0.91699,-0.15063,-0.40894,7.565,12.053,-4.519
2026-06-14 22:19:13.210,3359092666,452210,1,0.85742,-0.05127,0.59912,2.656,5.466,6.321
2026-06-14 22:19:13.210,3359092666,452210,2,0.89844,-0.21826,-0.39478,-2.534,5.718,-3.076
2026-06-14 22:19:13.410,3359092866,452410,1,0.85986,-0.06812,0.60205,-7.603,3.45,-0.45
2026-06-14 22:19:13.410,3359092866,452410,2,0.90112,-0.2207,-0.38867,-5.504,0.687,-1.359
2026-06-14 22:19:13.618,3359093074,452618,1,0.87817,-0.09619,0.58325,-7.71,1.855,-4.489
2026-06-14 22:19:13.618,3359093074,452618,2,0.91797,-0.27783,-0.40845,-9.511,4.237,7.214
2026-06-14 22:19:13.818,3359093274,452818,1,0.87476,-0.12109,0.6106,10.878,1.916,2.908
2026-06-14 22:19:13.818,3359093274,452818,2,0.89233,-0.2998,-0.42651,16.863,-4.71,-7.87
2026-06-14 22:19:13.034,3359092490,453034,1,0.92554,-0.1145,0.57104,30.527,5.252,20.046
2026-06-14 22:19:13.034,3359092490,453034,2,0.88916,-0.30078,-0.43994,33.198,2.298,-19.565
2026-06-14 22:19:14.234,3359093690,453234,1,0.89453,-0.12598,0.58398,48.916,12.351,40.237
2026-06-14 22:19:14.234,3359093690,453234,2,0.88354,-0.25708,-0.42407,43.092,5.405,-37.435
2026-06-14 22:19:14.434,3359093890,453434,1,0.8396,-0.14722,0.59131,53.435,-2.611,37.87
2026-06-14 22:19:14.434,3359093890,453434,2,0.87524,-0.20581,-0.40576,12.13,3.076,-10.328
2026-06-14 22:19:14.735,3359094191,453735,1,0.85718,-0.03369,0.66699,45.366,8.244,32.336
2026-06-14 22:19:14.735,3359094191,453735,2,0.93628,-0.09839,-0.29736,38.809,9.382,3.511
2026-06-14 22:19:14.935,3359094391,453935,1,0.79907,0.00684,0.70557,-6.183,1.305,5.679
2026-06-14 22:19:14.935,3359094391,453935,2,1.00317,-0.1062,-0.32837,-9.107,2.748,5.664
2026-06-14 22:19:15.135,3359094591,454135,1,0.88013,-0.01392,0.64209,-25.389,16.985,-17.351
2026-06-14 22:19:15.135,3359094591,454135,2,1.09399,-0.13892,-0.24976,-24.305,58.687,15.87
2026-06-14 22:19:15.335,3359094791,454335,1,0.84595,0.06079,0.49438,-23.786,115.977,-32.351
2026-06-14 22:19:15.335,3359094791,454335,2,1.06079,-0.16968,-0.04956,-22.672,142.611,17.198
2026-06-14 22:19:15.535,3359094991,454535,1,0.1001,-0.26709,1.07422,-29.282,140.55,-19.695
2026-06-14 22:19:15.535,3359094991,454535,2,0.85645,-0.30225,0.44922,38.16,87.985,-57.939
2026-06-14 22:19:15.735,3359095191,454735,1,-0.08081,-0.13208,1.39331,22.855,-3.473,-14.527
2026-06-14 22:19:15.735,3359095191,454735,2,0.99121,-0.13062,0.50781,-64.603,-56.893,10.183
2026-06-14 22:19:15.935,3359095391,454935,1,0.1543,-0.14404,0.97876,-33.786,-143.84,-35.122
2026-06-14 22:19:15.935,3359095391,454935,2,0.91553,-0.4021,-0.02466,-61.725,-160.588,23.611
2026-06-14 22:19:16.135,3359095591,455135,1,0.79834,-0.12427,0.28345,13.313,-118.985,19.466
2026-06-14 22:19:16.135,3359095591,455135,2,0.79175,-0.43848,-0.34326,39.168,-112.099,14.649
2026-06-14 22:19:16.335,3359095791,455335,1,1.05103,-0.20679,0.35327,-48.099,-33.702,-4.695
2026-06-14 22:19:16.335,3359095791,455335,2,0.85132,-0.44653,-0.62866,-7.939,-11.611,2.435
2026-06-14 22:19:16.535,3359095991,455535,1,0.97388,-0.15332,0.41382,-11.198,9.321,-10.992
2026-06-14 22:19:16.535,3359095991,455535,2,0.7627,-0.37549,-0.53638,-0.145,8.374,5.756
2026-06-14 22:19:16.735,3359096191,455735,1,0.93848,-0.14136,0.4519,-8.55,19.626,-17.435
2026-06-14 22:19:16.735,3359096191,455735,2,0.75317,-0.3606,-0.53735,-8.473,11.244,-7.092
2026-06-14 22:19:16.935,3359096391,455935,1,0.92163,-0.09814,0.47852,9.435,5.542,-7.702
2026-06-14 22:19:16.935,3359096391,455935,2,0.77466,-0.31519,-0.52539,3.237,-4.115,-15.122
2026-06-14 22:19:17.200,3359096656,456200,1,0.95532,-0.02222,0.4856,9.267,-0.634,4.779
2026-06-14 22:19:17.200,3359096656,456200,2,0.77393,-0.30347,-0.573,0.305,-0.832,3.023
2026-06-14 22:19:17.400,3359096856,456400,1,0.95679,-0.04932,0.45288,-5.069,-1.748,-2.641
2026-06-14 22:19:17.400,3359096856,456400,2,0.7644,-0.32007,-0.55859,-5.115,1.969,6.763
2026-06-14 22:19:17.606,3359097062,456606,1,0.96973,-0.03369,0.45776,-13.725,-1.137,-5.069
2026-06-14 22:19:17.606,3359097062,456606,2,0.76807,-0.29932,-0.54419,-5.504,1.626,6.779
2026-06-14 22:19:17.806,3359097262,456806,1,0.94971,-0.09253,0.44922,-12.42,2.718,-4.519
2026-06-14 22:19:17.806,3359097262,456806,2,0.76733,-0.30664,-0.57324,-3.634,3.389,2.84
2026-06-14 22:19:17.006,3359096462,457006,1,0.96826,-0.06665,0.4519,1.374,3.885,0.695
2026-06-14 22:19:17.006,3359096462,457006,2,0.75708,-0.30859,-0.58936,1.55,1.595,2.359
2026-06-14 22:19:18.206,3359097662,457206,1,0.95874,-0.07837,0.44409,-2.382,0.26,2.885
2026-06-14 22:19:18.206,3359097662,457206,2,0.76782,-0.30908,-0.57471,-1.244,0.58,0.534
2026-06-14T22:19:55.020989,,,,,,,,,
2026-06-14T22:20:00.289683,,,,,,,,,
2026-06-14 22:20:01.273,3359140729,5273,1,0.93774,-0.04907,0.49683,-49.924,10.107,-28.122
2026-06-14 22:20:01.273,3359140729,5273,2,0.80444,-0.2561,-0.52441,-57.282,13.985,54.855
2026-06-14 22:20:01.473,3359140929,5473,1,0.91943,-0.09692,0.49023,-55.87,-1.328,-25.282
2026-06-14 22:20:01.473,3359140929,5473,2,0.79663,-0.27734,-0.55933,-29.519,3.153,27.786
2026-06-14 22:20:01.715,3359141171,5715,1,0.98804,-0.12671,0.45581,-20.511,1.427,-4.519
2026-06-14 22:20:01.715,3359141171,5715,2,0.79248,-0.27783,-0.54858,3.901,4.954,-0.74
2026-06-14 22:20:01.915,3359141371,5915,1,0.92505,-0.11865,0.49268,15.26,1.412,7.748
2026-06-14 22:20:01.915,3359141371,5915,2,0.82104,-0.2439,-0.54907,12.725,-2.992,-13.214
2026-06-14 22:20:02.304,3359141760,6304,1,0.93091,-0.04883,0.51001,11.092,-3.221,10.466
2026-06-14 22:20:02.304,3359141760,6304,2,0.82935,-0.22168,-0.6106,-23.229,2.992,7.412
2026-06-14 22:20:02.571,3359142027,6571,1,0.93652,-0.03906,0.48364,24.71,8.824,6.26
2026-06-14 22:20:02.571,3359142027,6571,2,0.82617,-0.21411,-0.5249,0.557,4.733,-12.718
2026-06-14 22:20:02.771,3359142227,6771,1,0.92554,-0.06201,0.5437,-10.382,6.817,-2.099
2026-06-14 22:20:02.771,3359142227,6771,2,0.83472,-0.20068,-0.52881,8.282,6.87,-14.16
2026-06-14 22:20:03.971,3359143427,6971,1,0.91284,-0.03955,0.53394,18.588,1.611,7.29
2026-06-14 22:20:03.971,3359143427,6971,2,0.84204,-0.1543,-0.50806,4.847,-1.374,-5.328
2026-06-14 22:20:03.177,3359142633,7177,1,0.92554,-0.04858,0.52319,1.427,-0.924,-0.282
2026-06-14 22:20:03.177,3359142633,7177,2,0.84912,-0.15625,-0.52246,2.58,-0.153,-0.267
2026-06-14 22:20:03.377,3359142833,7377,1,0.94067,-0.04175,0.52124,-0.916,1.893,-1.924
2026-06-14 22:20:03.377,3359142833,7377,2,0.84839,-0.17383,-0.51978,-1.099,1.328,1.527
2026-06-14 22:20:03.577,3359143033,7577,1,0.93701,-0.04102,0.52222,0.389,4.908,-0.565
2026-06-14 22:20:03.577,3359143033,7577,2,0.8418,-0.16602,-0.51855,0.336,5.321,-0.176
2026-06-14 22:20:03.777,3359143233,7777,1,0.92529,-0.04077,0.53564,3.046,4.855,1.427
2026-06-14 22:20:03.777,3359143233,7777,2,0.85132,-0.16992,-0.51025,2.229,3.954,-1.863
2026-06-14 22:20:04.977,3359144433,7977,1,0.90869,-0.04126,0.54761,4.702,3.611,3.595
2026-06-14 22:20:04.977,3359144433,7977,2,0.85547,-0.1626,-0.51318,4.214,2.26,-4.023
2026-06-14 22:20:04.177,3359143633,8177,1,0.91455,-0.04858,0.53906,4.344,3.496,3.679
2026-06-14 22:20:04.177,3359143633,8177,2,0.85767,-0.15967,-0.50439,1.718,1.603,-1.908
2026-06-14 22:20:04.403,3359143859,8403,1,0.91235,-0.04443,0.5498,2.244,0.84,2.42
2026-06-14 22:20:04.403,3359143859,8403,2,0.85474,-0.16528,-0.50098,2.924,0.725,0.053
2026-06-14 22:20:04.603,3359144059,8603,1,0.91431,-0.05103,0.53662,1.908,0.962,0.802
2026-06-14 22:20:04.603,3359144059,8603,2,0.85596,-0.16895,-0.50439,0.053,0.573,-0.626
2026-06-14 22:20:04.803,3359144259,8803,1,0.91797,-0.05762,0.53516,0.26,1.649,-0.183
2026-06-14 22:20:04.803,3359144259,8803,2,0.85522,-0.16553,-0.51099,-0.198,1.198,
2026-06-14 22:20:05.003,3359144459,9003,1,0.92017,-0.05078,0.54956,0.695,3.832,-0.527
2026-06-14 22:20:05.003,3359144459,9003,2,0.86157,-0.16968,-0.50415,-1.252,2.168,-0.229
2026-06-14 22:20:05.203,3359144659,9203,1,0.91992,-0.05591,0.54175,0.611,2.756,0.061
2026-06-14 22:20:05.203,3359144659,9203,2,0.85645,-0.16504,-0.5,1.336,2.115,-0.718
2026-06-14 22:20:05.403,3359144859,9403,1,0.91724,-0.04785,0.54688,1.374,2.924,1.496
2026-06-14 22:20:05.403,3359144859,9403,2,0.85913,-0.17407,-0.50317,-0.298,1.023,-1.107
2026-06-14 22:20:05.603,3359145059,9603,1,0.91968,-0.06885,0.54712,2.244,2.542,3.626
2026-06-14 22:20:05.603,3359145059,9603,2,0.8584,-0.19653,-0.51636,8.725,4.786,-1.053
2026-06-14 22:20:05.803,3359145259,9803,1,0.89941,-0.07983,0.53564,9.16,3.061,7.0
2026-06-14 22:20:05.803,3359145259,9803,2,0.83936,-0.20483,-0.49585,-2.0,3.443,-2.496
2026-06-14 22:20:06.003,3359145459,10003,1,0.91406,-0.13013,0.53247,5.473,-0.305,6.053
2026-06-14 22:20:06.003,3359145459,10003,2,0.86035,-0.21924,-0.49072,24.916,-3.74,-9.481
2026-06-14 22:20:06.203,3359145659,10203,1,0.91431,-0.08667,0.54712,25.756,-0.809,14.595
2026-06-14 22:20:06.203,3359145659,10203,2,0.85107,-0.19507,-0.4812,21.008,-3.885,-10.664
2026-06-14 22:20:06.403,3359145859,10403,1,0.89893,-0.07129,0.55347,13.58,-2.771,8.695
2026-06-14 22:20:06.403,3359145859,10403,2,0.85474,-0.21045,-0.49707,19.832,-8.328,-10.313
2026-06-14 22:20:06.603,3359146059,10603,1,0.9187,-0.07153,0.53906,18.802,-4.153,10.924
2026-06-14 22:20:06.603,3359146059,10603,2,0.83472,-0.20801,-0.51465,24.29,-7.282,-10.275
2026-06-14 22:20:06.803,3359146259,10803,1,0.9126,-0.06226,0.52124,29.107,-1.405,13.481
2026-06-14 22:20:06.803,3359146259,10803,2,0.82739,-0.21118,-0.52002,20.893,-5.198,-15.679
2026-06-14 22:20:07.003,3359146459,11003,1,0.92944,-0.04883,0.52856,24.542,-0.023,13.496
2026-06-14 22:20:07.003,3359146459,11003,2,0.82642,-0.2063,-0.5332,23.794,-4.473,-18.809
2026-06-14 22:20:07.203,3359146659,11203,1,0.94434,-0.01685,0.52246,19.366,3.321,10.176
2026-06-14 22:20:07.203,3359146659,11203,2,0.83081,-0.14233,-0.5293,-0.313,4.679,0.977
2026-06-14 22:20:07.403,3359146859,11403,1,0.91943,-0.00146,0.52466,-22.16,5.649,-12.893
2026-06-14 22:20:07.403,3359146859,11403,2,0.81567,-0.18726,-0.54907,-15.122,5.573,15.847
2026-06-14 22:20:07.603,3359147059,11603,1,0.95776,-0.00684,0.50024,-22.87,3.137,-21.382
2026-06-14 22:20:07.603,3359147059,11603,2,0.84009,-0.20264,-0.52515,-27.069,12.489,16.153
2026-06-14 22:20:07.803,3359147259,11803,1,0.95239,0.01221,0.54614,-33.725,-1.092,-23.855
2026-06-14 22:20:07.803,3359147259,11803,2,0.82446,-0.23608,-0.50366,-34.42,1.053,33.023
2026-06-14 22:20:08.003,3359147459,12003,1,0.96289,-0.00195,0.49316,-22.534,2.58,-15.435
2026-06-14 22:20:08.003,3359147459,12003,2,0.86084,-0.24341,-0.46997,-12.099,8.107,9.328
2026-06-14 22:20:08.203,3359147659,12203,1,0.93921,0.01367,0.54126,-9.786,10.595,-11.282
2026-06-14 22:20:08.203,3359147659,12203,2,0.80762,-0.16968,-0.47241,-22.031,9.931,1.427
2026-06-14 22:20:08.430,3359147886,12430,1,0.96606,-0.0271,0.45313,-13.534,2.412,-16.748
2026-06-14 22:20:08.430,3359147886,12430,2,0.77344,-0.38037,-0.19604,21.962,103.473,2.0
2026-06-14 22:20:08.630,3359148086,12630,1,0.86768,0.0791,0.47485,-12.763,0.305,-9.618
2026-06-14 22:20:08.630,3359148086,12630,2,0.73413,-0.26025,-0.38354,27.061,7.511,4.87
2026-06-14 22:20:08.830,3359148286,12830,1,0.90405,-0.08618,0.56323,7.908,3.992,5.229
2026-06-14 22:20:08.830,3359148286,12830,2,0.92236,-0.36694,-0.43677,3.695,16.099,24.817
2026-06-14 22:20:09.046,3359148502,13046,1,0.94702,-0.13525,0.53687,2.786,16.718,13.527
2026-06-14 22:20:09.046,3359148502,13046,2,1.61572,-0.60229,0.37476,-62.794,14.366,0.229
2026-06-14 22:20:09.246,3359148702,13246,1,0.95776,-0.09204,0.48267,43.611,13.366,14.45
2026-06-14 22:20:09.246,3359148702,13246,2,0.8833,-0.29004,0.00952,-41.916,-14.336,10.634
2026-06-14 22:20:09.446,3359148902,13446,1,1.05591,-0.19458,0.54248,0.374,25.718,-1.55
2026-06-14 22:20:09.446,3359148902,13446,2,0.98389,-0.3269,-0.12573,-7.763,-36.061,8.267
2026-06-14 22:20:09.646,3359149102,13646,1,0.97681,-0.09204,0.41089,27.092,-10.847,-1.298
2026-06-14 22:20:09.646,3359149102,13646,2,0.9248,-0.30713,-0.29614,-35.718,-20.481,3.053
2026-06-14 22:20:10.955,3359150411,13955,1,1.02979,0.03296,0.39893,12.87,-2.641,-3.519
2026-06-14 22:20:10.955,3359150411,13955,2,0.80981,-0.52637,-0.25098,83.832,23.198,30.237
2026-06-14 22:20:10.155,3359149611,14155,1,0.97339,-0.05786,0.48682,-29.191,29.985,-6.824
2026-06-14 22:20:10.155,3359149611,14155,2,0.99634,-0.3457,-0.10229,-0.374,2.641,-10.702
2026-06-14 22:20:10.355,3359149811,14355,1,0.9541,-0.04443,0.45557,21.779,13.954,6.87
2026-06-14 22:20:10.355,3359149811,14355,2,0.98706,-0.32617,-0.05713,15.702,6.718,-13.756
2026-06-14 22:20:10.555,3359150011,14555,1,0.90479,-0.02808,0.52686,10.496,6.221,4.924
2026-06-14 22:20:10.555,3359150011,14555,2,0.99268,-0.30054,-0.09351,-5.962,-3.885,-0.786
2026-06-14 22:20:10.755,3359150211,14755,1,0.92969,-0.02979,0.49365,-10.71,0.359,-2.863
2026-06-14 22:20:10.755,3359150211,14755,2,0.92993,-0.09106,1.50195,176.244,226.061,-12.916
2026-06-14 22:20:11.955,3359151411,14955,1,1.03784,-0.09766,0.41113,0.802,-10.405,0.489
2026-06-14 22:20:11.955,3359151411,14955,2,1.09717,-0.39331,0.06274,-3.992,-23.481,12.275
2026-06-14 22:20:11.155,3359150611,15155,1,0.98584,-0.06519,0.51318,1.885,-2.282,-0.137
2026-06-14 22:20:11.155,3359150611,15155,2,0.95459,-0.30664,-0.18823,-15.656,-3.679,-0.031
2026-06-14 22:20:11.355,3359150811,15355,1,0.95288,-0.05835,0.51172,-2.565,4.099,-1.962
2026-06-14 22:20:11.355,3359150811,15355,2,1.11792,-0.18604,-0.13989,-87.305,3.87,16.328
2026-06-14 22:20:16.632,3359156088,20631,1,1.20386,0.5835,0.3999,11.55,-6.359,11.863
2026-06-14 22:20:16.632,3359156088,20631,2,1.0127,-0.23682,0.14941,58.176,-28.405,-6.817
2026-06-14 22:20:18.798,3359158254,22798,1,0.96191,-0.05225,0.43896,-1.26,1.481,-0.122
2026-06-14 22:20:18.798,3359158254,22798,2,0.97559,-0.34644,-0.18091,-1.878,1.74,0.534
2026-06-14 22:20:20.936,3359160392,24936,1,0.96948,-0.06421,0.42896,-0.695,1.817,1.466
2026-06-14 22:20:20.936,3359160392,24936,2,0.96191,-0.35864,-0.18213,-0.466,-2.298,-2.168
2026-06-14 22:20:23.114,3359162570,27114,1,0.96899,-0.05176,0.42578,-6.771,0.893,0.221
2026-06-14 22:20:23.114,3359162570,27114,2,0.95728,-0.39331,-0.18799,-5.565,5.695,3.221
2026-06-14 22:20:25.346,3359164802,29346,1,1.03662,0.01172,0.32251,-48.55,12.756,-5.45
2026-06-14 22:20:25.346,3359164802,29346,2,0.92383,-0.35645,-0.28198,-46.382,36.977,28.099
2026-06-14 22:20:27.540,3359166996,31540,1,0.97754,-0.11084,0.37939,12.305,-2.336,6.962
2026-06-14 22:20:27.540,3359166996,31540,2,0.91016,-0.33105,-0.30225,6.252,-4.397,-25.092
2026-06-14 22:20:29.709,3359169165,33709,1,0.94238,-0.10254,0.44531,-19.611,17.321,6.985
2026-06-14 22:20:29.709,3359169165,33709,2,0.97363,-0.38525,-0.11377,-3.573,26.511,-2.206
2026-06-14 22:20:31.920,3359171376,35920,1,0.14795,-0.28369,0.97681,32.504,-3.702,16.359
2026-06-14 22:20:31.920,3359171376,35920,2,0.80151,-0.13281,0.76904,25.885,-6.389,-3.42
2026-06-14 22:20:34.180,3359173636,38179,1,0.98096,-0.06006,0.4519,17.817,2.542,7.519
2026-06-14 22:20:34.180,3359173636,38179,2,0.88794,-0.29004,-0.43262,9.916,-8.206,2.42
2026-06-14 22:20:36.396,3359175852,40396,1,0.96313,-0.0166,0.47144,9.672,3.863,-0.344
2026-06-14 22:20:36.396,3359175852,40396,2,0.85278,-0.32593,-0.43579,7.351,1.817,-6.176
2026-06-14 22:20:38.532,3359177988,42531,1,0.98389,0.00513,0.41602,-4.985,3.359,0.496
2026-06-14 22:20:38.532,3359177988,42531,2,0.79419,-0.31982,-0.52148,-0.29,5.191,3.412
2026-06-14 22:20:40.746,3359180202,44746,1,0.97046,-0.01929,0.43335,-0.198,2.176,0.435
2026-06-14 22:20:40.746,3359180202,44746,2,0.8064,-0.33887,-0.50366,-0.466,1.786,0.176
2026-06-14 22:20:42.871,3359182327,46871,1,0.9646,-0.01489,0.45557,2.26,2.16,-4.374
2026-06-14 22:20:42.871,3359182327,46871,2,0.83203,-0.35449,-0.46558,1.321,-0.458,-1.466
2026-06-14 22:20:45.031,3359184487,49031,1,0.9812,-0.06885,0.4939,23.611,3.29,14.855
2026-06-14 22:20:45.031,3359184487,49031,2,0.88086,-0.39233,-0.42578,17.748,-8.939,-19.183
2026-06-14 22:20:47.189,3359186645,51189,1,0.95361,-0.00195,0.47754,29.702,-1.969,15.702
2026-06-14 22:20:47.189,3359186645,51189,2,0.87549,-0.23145,-0.45923,25.733,-13.565,-13.947
2026-06-14 22:20:49.317,3359188773,53317,1,0.98511,-0.07617,0.36426,-22.557,7.649,-7.817
2026-06-14 22:20:49.317,3359188773,53317,2,0.75269,-0.45361,-0.49756,-18.145,7.718,7.863
2026-06-14T22:21:02.643022,,,,,,,,,
2026-06-14 22:21:03.571,3359203027,6571,1,0.9707,-0.01123,0.4209,0.748,-0.832,5.214
2026-06-14 22:21:03.571,3359203027,6571,2,0.78418,-0.35767,-0.52441,13.031,-6.87,-2.168
2026-06-14 22:21:03.777,3359203233,6777,1,0.98486,-0.03784,0.39893,15.855,-0.504,10.405
2026-06-14 22:21:03.777,3359203233,6777,2,0.78149,-0.36401,-0.51563,20.626,-2.992,-11.962
2026-06-14 22:21:04.977,3359204433,6977,1,1.00342,-0.04883,0.39453,27.664,2.389,15.298
2026-06-14 22:21:04.977,3359204433,6977,2,0.79321,-0.37671,-0.54077,24.206,-8.466,-21.695
2026-06-14 22:21:04.186,3359203642,7185,1,0.97363,-0.02515,0.39746,39.092,9.183,17.42
2026-06-14 22:21:04.186,3359203642,7185,2,0.78809,-0.33179,-0.521,29.656,1.321,-28.977
2026-06-14 22:21:04.385,3359203841,7385,1,0.97168,-0.00757,0.41309,21.702,3.145,6.489
2026-06-14 22:21:04.385,3359203841,7385,2,0.83521,-0.32593,-0.4812,11.656,3.595,-8.542
2026-06-14 22:21:04.585,3359204041,7585,1,0.94946,-0.02173,0.46558,3.534,7.046,-0.305
2026-06-14 22:21:04.585,3359204041,7585,2,0.83667,-0.32593,-0.47217,-3.038,4.756,-2.672
2026-06-14 22:21:04.785,3359204241,7785,1,0.94775,-0.00342,0.4707,-9.053,3.496,-8.374
2026-06-14 22:21:04.785,3359204241,7785,2,0.82837,-0.32739,-0.47021,-15.313,5.977,10.748
2026-06-14 22:21:05.985,3359205441,7985,1,0.95142,-0.0083,0.45996,-20.725,0.924,-12.176
2026-06-14 22:21:05.985,3359205441,7985,2,0.82227,-0.38477,-0.46997,-10.473,2.992,14.611
2026-06-14 22:21:05.185,3359204641,8185,1,0.97705,-0.04175,0.43555,-11.611,-0.878,-4.168
2026-06-14 22:21:05.185,3359204641,8185,2,0.82397,-0.37061,-0.47266,-9.038,3.58,5.809
2026-06-14 22:21:05.385,3359204841,8385,1,0.97559,-0.03442,0.44019,-4.153,2.145,0.336
2026-06-14 22:21:05.385,3359204841,8385,2,0.80713,-0.37451,-0.47754,-3.0,2.603,2.351
2026-06-14 22:21:05.585,3359205041,8585,1,0.97607,-0.04956,0.43335,5.092,-0.947,1.137
2026-06-14 22:21:05.585,3359205041,8585,2,0.8103,-0.35425,-0.47803,3.756,-4.496,-6.649
2026-06-14 22:21:05.789,3359205245,8789,1,0.97266,-0.01318,0.44043,7.504,-0.466,0.13
2026-06-14 22:21:05.789,3359205245,8789,2,0.81787,-0.34351,-0.48657,1.115,-0.763,-3.931
2026-06-14 22:21:06.989,3359206445,8989,1,0.96411,-0.01807,0.42627,1.824,1.008,-1.229
2026-06-14 22:21:06.989,3359206445,8989,2,0.80981,-0.33716,-0.49365,-0.496,-2.504,-3.534
2026-06-14 22:21:06.189,3359205645,9189,1,0.97705,-0.00024,0.42627,1.328,0.969,0.634
2026-06-14 22:21:06.189,3359205645,9189,2,0.81079,-0.32715,-0.49658,-3.817,3.214,3.71
2026-06-14 22:21:06.443,3359205899,9442,1,0.97876,-0.00293,0.41431,-3.847,2.824,-1.389
2026-06-14 22:21:06.443,3359205899,9442,2,0.80444,-0.3374,-0.50415,-0.748,4.542,2.725
2026-06-14 22:21:06.642,3359206098,9642,1,0.97876,-0.01538,0.42017,-1.893,3.71,0.29
2026-06-14 22:21:06.642,3359206098,9642,2,0.80615,-0.34644,-0.50391,0.038,3.725,0.573
2026-06-14 22:21:06.842,3359206298,9842,1,0.9751,-0.01587,0.42041,2.443,1.55,0.573
2026-06-14 22:21:06.842,3359206298,9842,2,0.8064,-0.33911,-0.50757,1.26,0.351,-1.588
2026-06-14 22:21:07.042,3359206498,10042,1,0.98145,-0.01074,0.41406,3.008,3.099,1.42
2026-06-14 22:21:07.042,3359206498,10042,2,0.80566,-0.33765,-0.50195,2.924,1.634,-1.015
2026-06-14 22:21:07.251,3359206707,10251,1,0.98462,-0.01099,0.41553,-0.214,3.351,1.366
2026-06-14 22:21:07.251,3359206707,10251,2,0.80957,-0.34253,-0.50024,1.656,3.634,-0.038
2026-06-14 22:21:07.451,3359206907,10451,1,0.96533,-0.0105,0.42285,0.359,3.634,0.328
2026-06-14 22:21:07.451,3359206907,10451,2,0.81055,-0.34253,-0.49292,-0.573,2.466,0.992
2026-06-14 22:21:07.651,3359207107,10651,1,0.97021,-0.01929,0.43579,-0.817,2.756,0.084
2026-06-14 22:21:07.651,3359207107,10651,2,0.81958,-0.34424,-0.49341,-0.275,1.435,0.45
2026-06-14 22:21:08.893,3359208349,10893,1,0.96973,-0.02197,0.43652,-0.023,1.618,0.534
2026-06-14 22:21:08.893,3359208349,10893,2,0.81421,-0.34619,-0.49756,0.267,1.084,-0.336
2026-06-14 22:21:08.093,3359207549,11093,1,0.97241,-0.01782,0.427,1.687,2.107,1.168
2026-06-14 22:21:08.093,3359207549,11093,2,0.81885,-0.34839,-0.48682,1.626,2.344,-1.366
2026-06-14 22:21:08.293,3359207749,11293,1,0.97266,-0.02246,0.42822,2.908,2.573,1.519
2026-06-14 22:21:08.293,3359207749,11293,2,0.81274,-0.34644,-0.49146,1.58,1.489,-1.16
2026-06-14 22:21:08.493,3359207949,11493,1,0.96777,-0.02368,0.4375,2.229,2.756,1.282
2026-06-14 22:21:08.493,3359207949,11493,2,0.81372,-0.35327,-0.4834,2.282,1.977,-0.977
2026-06-14 22:21:08.693,3359208149,11693,1,0.97729,-0.02759,0.43604,1.473,2.916,1.496
2026-06-14 22:21:08.693,3359208149,11693,2,0.80493,-0.34595,-0.46069,2.504,2.221,-0.023
2026-06-14 22:21:09.893,3359209349,11893,1,0.98584,-0.00635,0.45264,0.191,10.626,6.71
2026-06-14 22:21:09.893,3359209349,11893,2,0.80884,-0.29077,-0.52808,5.718,10.061,-1.817
2026-06-14 22:21:09.093,3359208549,12093,1,0.98169,0.0144,0.42725,-22.779,3.458,-5.634
2026-06-14 22:21:09.093,3359208549,12093,2,0.83252,-0.31201,-0.49438,-15.603,7.649,15.092
2026-06-14 22:21:09.293,3359208749,12293,1,0.93896,-0.00513,0.45215,-18.45,10.389,-10.427
2026-06-14 22:21:09.293,3359208749,12293,2,0.83179,-0.35034,-0.50342,-18.26,6.137,9.015
2026-06-14 22:21:09.493,3359208949,12493,1,0.9353,-0.02832,0.45947,-15.992,9.885,-9.511
2026-06-14 22:21:09.493,3359208949,12493,2,0.80127,-0.30225,-0.47095,-35.252,6.962,-1.557
2026-06-14 22:21:09.693,3359209149,12693,1,0.92236,-0.03735,0.45386,-27.695,-2.763,-15.618
2026-06-14 22:21:09.693,3359209149,12693,2,0.80273,-0.27246,-0.50684,-36.641,-4.588,8.137
2026-06-14 22:21:10.896,3359210352,12896,1,1.01709,-0.01416,0.4104,-27.023,-7.443,-19.924
2026-06-14 22:21:10.896,3359210352,12896,2,0.83984,-0.27393,-0.56274,-37.397,-0.947,20.687
2026-06-14 22:21:10.096,3359209552,13096,1,1.00366,-0.03662,0.40479,-33.26,5.718,-10.107
2026-06-14 22:21:10.096,3359209552,13096,2,0.7793,-0.31543,-0.54614,-8.023,13.099,22.382
2026-06-14 22:21:10.296,3359209752,13296,1,0.98071,-0.05908,0.39868,-16.122,5.359,2.832
2026-06-14 22:21:10.296,3359209752,13296,2,0.78589,-0.30957,-0.54175,-0.504,7.504,8.519
2026-06-14 22:21:10.496,3359209952,13496,1,0.98608,-0.07446,0.40845,-5.58,5.305,4.55
2026-06-14 22:21:10.496,3359209952,13496,2,0.79858,-0.30591,-0.52319,4.26,7.74,0.687
2026-06-14 22:21:10.696,3359210152,13696,1,0.97412,-0.07031,0.42847,1.611,4.282,2.573
2026-06-14 22:21:10.696,3359210152,13696,2,0.80713,-0.30762,-0.52051,5.351,4.733,-2.015
2026-06-14 22:21:11.896,3359211352,13896,1,0.96509,-0.06567,0.42871,3.473,1.58,2.656
2026-06-14 22:21:11.896,3359211352,13896,2,0.8125,-0.31128,-0.50781,-1.634,0.534,-0.733
2026-06-14 22:21:11.096,3359210552,14096,1,0.97241,-0.06323,0.4314,-0.527,0.626,-1.229
2026-06-14 22:21:11.096,3359210552,14096,2,0.80884,-0.30029,-0.50732,-2.084,-0.565,2.122
2026-06-14 22:21:11.296,3359210752,14296,1,0.97729,-0.05566,0.42188,-0.053,1.061,-0.832
2026-06-14 22:21:11.296,3359210752,14296,2,0.80493,-0.30176,-0.52393,-3.107,-0.305,0.756
2026-06-14 22:21:11.496,3359210952,14496,1,0.9812,-0.04663,0.41895,0.183,0.588,-0.504
2026-06-14 22:21:11.496,3359210952,14496,2,0.79175,-0.29492,-0.53467,-0.16,-0.664,-0.374
2026-06-14 22:21:11.696,3359211152,14696,1,0.96509,-0.05029,0.42065,2.351,1.573,1.565
2026-06-14 22:21:11.696,3359211152,14696,2,0.79712,-0.30029,-0.52856,2.626,0.053,-2.069
2026-06-14 22:21:12.896,3359212352,14896,1,0.98096,-0.05591,0.42285,3.084,2.13,1.855
2026-06-14 22:21:12.896,3359212352,14896,2,0.80371,-0.29565,-0.52979,2.389,0.992,-2.046
2026-06-14 22:21:12.096,3359211552,15096,1,0.97681,-0.05127,0.41724,1.977,2.023,1.183
2026-06-14 22:21:12.096,3359211552,15096,2,0.80347,-0.29468,-0.53076,1.832,1.267,-1.756
2026-06-14 22:21:12.296,3359211752,15296,1,0.97119,-0.05493,0.41675,0.58,3.382,0.656
2026-06-14 22:21:12.296,3359211752,15296,2,0.8042,-0.29346,-0.53467,0.878,2.206,-0.145
2026-06-14 22:21:12.496,3359211952,15496,1,0.97461,-0.05518,0.42041,-0.565,3.023,-0.321
2026-06-14 22:21:12.496,3359211952,15496,2,0.80371,-0.29834,-0.52856,-0.244,2.275,-0.183
2026-06-14 22:21:12.707,3359212163,15707,1,0.97046,-0.04761,0.42017,-0.145,2.321,-0.824
2026-06-14 22:21:12.707,3359212163,15707,2,0.80615,-0.29565,-0.53442,-0.397,0.939,-0.069
2026-06-14 22:21:13.907,3359213363,15907,1,0.97534,-0.04224,0.42383,1.221,1.71,0.221
2026-06-14 22:21:13.907,3359213363,15907,2,0.80347,-0.29785,-0.53198,0.29,1.427,-1.168
2026-06-14 22:21:13.107,3359212563,16107,1,0.97046,-0.04053,0.427,1.74,1.794,0.763
2026-06-14 22:21:13.107,3359212563,16107,2,0.80005,-0.2937,-0.52686,0.908,2.191,-1.275
2026-06-14 22:21:13.307,3359212763,16307,1,0.97461,-0.04004,0.41382,0.977,3.214,0.832
2026-06-14 22:21:13.307,3359212763,16307,2,0.80737,-0.29834,-0.53125,0.527,2.939,-0.015
2026-06-14 22:21:13.569,3359213025,16569,1,0.97876,-0.04272,0.42358,-0.45,3.244,0.26
2026-06-14 22:21:13.569,3359213025,16569,2,0.802,-0.30029,-0.52441,0.038,3.809,-0.145
2026-06-14 22:21:13.769,3359213225,16769,1,0.97266,-0.04297,0.4314,0.336,1.626,0.137
2026-06-14 22:21:13.769,3359213225,16769,2,0.80347,-0.29907,-0.53442,-0.771,0.511,1.947
2026-06-14 22:21:14.969,3359214425,16969,1,0.98047,-0.04956,0.41528,0.198,0.695,0.29
2026-06-14 22:21:14.969,3359214425,16969,2,0.79541,-0.30151,-0.53076,-13.58,1.427,4.321
2026-06-14 22:21:14.214,3359213670,17214,1,0.99438,-0.0896,0.40552,-5.137,-0.504,-5.313
2026-06-14 22:21:14.214,3359213670,17214,2,0.76196,-0.34814,-0.54565,-9.565,-0.794,2.26
2026-06-14 22:21:14.414,3359213870,17414,1,1.00146,-0.05908,0.39087,1.282,3.939,0.366
2026-06-14 22:21:14.414,3359213870,17414,2,0.76392,-0.33228,-0.53833,0.977,13.176,6.489
2026-06-14 22:21:14.614,3359214070,17614,1,1.02222,-0.09644,0.36523,9.58,-3.13,6.55
2026-06-14 22:21:14.614,3359214070,17614,2,0.7959,-0.33691,-0.52441,44.366,5.695,-20.733
2026-06-14 22:21:14.821,3359214277,17820,1,0.92456,-0.06616,0.41943,35.84,9.374,19.382
2026-06-14 22:21:14.821,3359214277,17820,2,0.78467,-0.32446,-0.49121,36.038,-4.641,-23.214
2026-06-14 22:21:15.020,3359214476,18020,1,0.97119,-0.05786,0.4519,36.229,-2.221,12.588
2026-06-14 22:21:15.020,3359214476,18020,2,0.82471,-0.31177,-0.49609,24.885,-6.779,-21.565
2026-06-14 22:21:15.220,3359214676,18220,1,0.95093,-0.01587,0.4563,19.252,-4.443,7.817
2026-06-14 22:21:15.220,3359214676,18220,2,0.80249,-0.36279,-0.51855,17.145,-18.053,-2.878
2026-06-14 22:21:15.420,3359214876,18420,1,0.9812,-0.02808,0.43115,19.641,-0.847,14.985
2026-06-14 22:21:15.420,3359214876,18420,2,0.77441,-0.33423,-0.5415,8.931,-11.336,-12.198
2026-06-14 22:21:15.663,3359215119,18663,1,0.98804,-0.04102,0.41162,17.695,-2.42,7.511
2026-06-14 22:21:15.663,3359215119,18663,2,0.79907,-0.31982,-0.53613,14.733,-6.374,-13.366
2026-06-14 22:21:15.863,3359215319,18863,1,1.00537,0.03564,0.44604,16.71,5.87,1.092
2026-06-14 22:21:15.863,3359215319,18863,2,0.82349,-0.27271,-0.55737,9.786,8.351,-8.252
2026-06-14 22:21:16.063,3359215519,19063,1,0.95386,0.03906,0.44409,-15.13,3.221,-7.305
2026-06-14 22:21:16.063,3359215519,19063,2,0.83838,-0.35376,-0.48462,-17.313,9.58,4.214
2026-06-14 22:21:16.315,3359215771,19315,1,0.96313,-0.04614,0.48145,-6.427,7.405,-8.305
2026-06-14 22:21:16.315,3359215771,19315,2,0.84326,-0.38574,-0.44116,2.931,14.099,-5.069
2026-06-14 22:21:16.515,3359215971,19515,1,0.90234,-0.01563,0.50757,6.878,13.015,-7.664
2026-06-14 22:21:16.515,3359215971,19515,2,0.84082,-0.35425,-0.43408,-31.366,14.924,-14.069
2026-06-14 22:21:16.715,3359216171,19715,1,0.96362,-0.03394,0.46729,-23.779,7.008,-11.389
2026-06-14 22:21:16.715,3359216171,19715,2,0.86548,-0.34375,-0.48804,-10.313,7.664,13.519
2026-06-14 22:21:17.921,3359217377,19920,1,0.93457,-0.12354,0.44824,-4.916,1.031,0.489
2026-06-14 22:21:17.921,3359217377,19920,2,0.80591,-0.40479,-0.44653,17.435,-9.229,-4.557
2026-06-14 22:21:17.120,3359216576,20120,1,0.93945,-0.10034,0.45264,26.595,-6.015,18.916
2026-06-14 22:21:17.120,3359216576,20120,2,0.80444,-0.34937,-0.49585,9.122,-21.718,-19.366
2026-06-14 22:21:17.320,3359216776,20320,1,1.03564,-0.09961,0.39575,18.489,-3.305,17.809
2026-06-14 22:21:17.320,3359216776,20320,2,0.91064,-0.28198,-0.53809,5.916,3.0,-3.824
2026-06-14 22:21:17.520,3359216976,20520,1,0.93896,-0.08301,0.41626,-22.298,4.679,-0.405
2026-06-14 22:21:17.520,3359216976,20520,2,0.82715,-0.32324,-0.44409,14.046,5.687,21.328
2026-06-14 22:21:17.720,3359217176,20720,1,0.94336,-0.12671,0.42749,16.863,-0.076,10.702
2026-06-14 22:21:17.720,3359217176,20720,2,0.81323,-0.31885,-0.47681,28.107,-0.885,-10.122
2026-06-14 22:21:18.920,3359218376,20920,1,0.95386,-0.07739,0.45825,17.992,1.206,6.527
2026-06-14 22:21:18.920,3359218376,20920,2,0.83521,-0.30908,-0.46875,16.053,-2.031,-10.527
2026-06-14 22:21:18.120,3359217576,21120,1,0.948,-0.06641,0.46143,13.351,0.824,2.076
2026-06-14 22:21:18.120,3359217576,21120,2,0.82031,-0.27954,-0.52832,-4.947,5.977,4.595
2026-06-14 22:21:24.556,3359224012,27555,1,0.97681,-0.03271,0.43726,-1.282,3.328,-0.305
2026-06-14 22:21:24.556,3359224012,27555,2,0.79346,-0.30884,-0.52246,,3.13,0.206
2026-06-14 22:21:24.755,3359224211,27755,1,0.97144,-0.03174,0.42529,-1.405,2.687,0.122
2026-06-14 22:21:24.755,3359224211,27755,2,0.80273,-0.32007,-0.52734,-0.107,3.115,0.351
2026-06-14 22:21:25.996,3359225452,27996,1,0.97729,-0.04565,0.41772,0.198,2.489,0.458
2026-06-14 22:21:25.996,3359225452,27996,2,0.80688,-0.31836,-0.51904,0.863,2.947,0.328
2026-06-14 22:21:25.196,3359224652,28196,1,0.96973,-0.04419,0.42163,0.542,2.679,0.908
2026-06-14 22:21:25.196,3359224652,28196,2,0.80518,-0.31934,-0.5188,1.55,1.901,-1.725
2026-06-14 22:21:25.396,3359224852,28396,1,0.96558,-0.0498,0.43237,1.824,2.611,1.42
2026-06-14 22:21:25.396,3359224852,28396,2,0.80566,-0.31372,-0.51074,1.031,1.244,-1.817
2026-06-14 22:21:25.596,3359225052,28596,1,0.97852,-0.03467,0.44189,1.84,2.855,0.763
2026-06-14 22:21:25.596,3359225052,28596,2,0.80176,-0.32422,-0.50781,4.275,0.168,-0.954
2026-06-14 22:21:25.796,3359225252,28796,1,0.96973,-0.05249,0.42993,6.473,2.458,3.023
2026-06-14 22:21:25.796,3359225252,28796,2,0.80908,-0.32227,-0.51221,2.611,1.725,-4.168
2026-06-14 22:21:26.996,3359226452,28996,1,0.96875,-0.04834,0.44238,3.061,3.275,0.863
2026-06-14 22:21:26.996,3359226452,28996,2,0.81104,-0.33105,-0.50635,3.229,2.947,-1.221
2026-06-14 22:21:26.200,3359225656,29200,1,0.97754,-0.05493,0.43726,0.374,4.87,0.87
2026-06-14 22:21:26.200,3359225656,29200,2,0.82886,-0.35327,-0.49414,4.954,9.084,4.489
2026-06-14 22:21:26.400,3359225856,29400,1,1.04175,-0.07666,0.41699,-6.641,22.473,-1.168
2026-06-14 22:21:26.400,3359225856,29400,2,0.88916,-0.41016,-0.44409,8.511,46.511,-2.695
2026-06-14 22:21:26.600,3359226056,29600,1,0.80664,-0.04663,0.40503,19.855,73.366,22.031
2026-06-14 22:21:26.600,3359226056,29600,2,0.76294,-0.18311,-0.23047,5.824,92.458,-16.885
2026-06-14 22:21:26.800,3359226256,29800,1,0.44556,0.01147,0.43042,25.405,60.992,21.435
2026-06-14 22:21:26.800,3359226256,29800,2,0.80835,-0.26538,0.05908,36.634,61.282,-8.496
2026-06-14 22:21:27.000,3359226456,30000,1,0.44092,-0.05444,0.92627,10.458,25.137,14.504
2026-06-14 22:21:27.000,3359226456,30000,2,0.90942,-0.22803,0.19849,1.702,39.824,-16.878
2026-06-14 22:21:27.200,3359226656,30200,1,0.42358,-0.0293,0.99146,0.13,-20.092,2.847
2026-06-14 22:21:27.200,3359226656,30200,2,1.49023,-0.16382,0.26514,-34.557,-50.794,-19.718
2026-06-14 22:21:27.404,3359226860,30404,1,1.17822,-0.07324,1.2373,-17.977,-4.298,-12.107
2026-06-14 22:21:27.404,3359226860,30404,2,1.01611,-0.29834,0.13281,-4.122,10.344,4.313
2026-06-14 22:21:27.604,3359227060,30604,1,0.49878,-0.0564,0.71118,9.015,9.954,2.863
2026-06-14 22:21:27.604,3359227060,30604,2,0.93213,-0.22949,0.16504,-7.107,17.458,9.16
2026-06-14 22:21:27.804,3359227260,30804,1,1.20361,-0.13184,0.93945,39.634,83.786,32.954
2026-06-14 22:21:27.804,3359227260,30804,2,0.90332,-0.24316,0.31567,23.359,61.931,-4.748
2026-06-14 22:21:28.022,3359227478,31022,1,0.22168,-0.15698,1.0769,-14.267,24.015,20.443
2026-06-14 22:21:28.022,3359227478,31022,2,0.96094,-0.35083,0.44116,-6.947,0.397,12.29
2026-06-14 22:21:28.222,3359227678,31222,1,0.31641,-0.2146,1.17578,18.687,-6.878,7.832
2026-06-14 22:21:28.222,3359227678,31222,2,1.09131,-0.25049,0.36499,-15.71,-23.618,-2.634
2026-06-14 22:21:28.422,3359227878,31422,1,0.54272,-0.0481,0.90869,1.405,-60.863,-30.45
2026-06-14 22:21:28.422,3359227878,31422,2,0.71997,-0.11011,0.05737,-1.107,-81.435,3.748
2026-06-14 22:21:28.682,3359228138,31682,1,0.42358,-0.08618,0.3916,-9.542,-85.176,-24.122
2026-06-14 22:21:28.682,3359228138,31682,2,1.03369,-0.45459,-0.33325,-35.137,-34.321,19.466
2026-06-14 22:21:29.887,3359229343,31887,1,0.96924,-0.07739,0.43604,15.382,15.336,-4.061
2026-06-14 22:21:29.887,3359229343,31887,2,1.15503,-0.35864,-0.39136,-5.725,61.733,-13.649
2026-06-14 22:21:29.087,3359228543,32087,1,0.32837,-0.04492,0.54907,26.794,57.107,16.015
2026-06-14 22:21:29.087,3359228543,32087,2,0.68701,-0.22046,-0.02222,18.664,50.084,-2.847
2026-06-14 22:21:29.287,3359228743,32287,1,0.67236,-0.06836,0.6958,0.336,43.221,13.702
2026-06-14 22:21:29.287,3359228743,32287,2,0.94946,-0.27319,0.16724,7.565,32.855,-7.702
2026-06-14 22:21:29.652,3359229108,32652,1,0.89233,-0.10791,1.20313,18.038,-49.969,15.313
2026-06-14 22:21:29.652,3359229108,32652,2,1.11328,-0.40747,0.04443,30.672,9.573,-2.771
2026-06-14 22:21:30.919,3359230375,32919,1,0.67651,-0.22314,0.73315,17.756,13.229,8.45
2026-06-14 22:21:30.919,3359230375,32919,2,1.02051,-0.3269,0.1377,4.328,14.305,6.053
2026-06-14 22:21:30.119,3359229575,33119,1,0.72803,-0.30933,0.92749,-3.26,15.0,2.489
2026-06-14 22:21:30.119,3359229575,33119,2,1.23828,-0.46411,0.15967,9.931,8.305,-6.099
2026-06-14 22:21:30.319,3359229775,33319,1,0.5979,-0.27905,1.23071,6.611,60.542,4.603
2026-06-14 22:21:30.319,3359229775,33319,2,0.95264,-0.27759,0.38843,35.229,34.015,-15.733
2026-06-14 22:21:30.519,3359229975,33519,1,0.36353,-0.18799,0.99976,41.977,-15.565,1.885
2026-06-14 22:21:30.519,3359229975,33519,2,0.89233,-0.15063,0.34912,25.282,-42.939,-10.412
2026-06-14 22:21:30.719,3359230175,33719,1,0.43213,-0.11743,1.08105,10.656,-40.687,-0.695
2026-06-14 22:21:30.719,3359230175,33719,2,0.98145,-0.2002,0.11182,-13.008,-58.382,2.511
2026-06-14 22:21:31.936,3359231392,33936,1,0.38379,0.04517,0.4895,-17.542,-71.015,-27.053
2026-06-14 22:21:31.936,3359231392,33936,2,0.71484,-0.08447,-0.13867,-62.206,-80.069,13.076
2026-06-14 22:21:31.153,3359230609,34153,1,1.06836,-0.01318,0.52686,-56.321,-38.214,-41.015
2026-06-14 22:21:31.153,3359230609,34153,2,0.9082,-0.39966,-0.34204,12.87,-49.206,14.176
2026-06-14 22:21:31.353,3359230809,34353,1,0.84912,-0.00879,0.51416,-23.595,-10.901,-9.634
2026-06-14 22:21:31.353,3359230809,34353,2,0.88721,-0.30835,-0.49414,24.473,-17.71,6.244
2026-06-14 22:21:31.553,3359231009,34553,1,0.96558,0.00366,0.45435,-4.206,-8.168,-0.679
2026-06-14 22:21:31.553,3359231009,34553,2,0.83521,-0.32056,-0.52954,-1.695,-1.771,6.855
2026-06-14 22:21:31.753,3359231209,34753,1,0.93359,-0.01318,0.47754,-5.267,5.191,-0.443
2026-06-14 22:21:31.753,3359231209,34753,2,0.82104,-0.3186,-0.49951,-3.939,6.412,1.435
2026-06-14 22:21:32.953,3359232409,34953,1,0.9375,-0.01343,0.51611,-3.565,10.076,-0.145
2026-06-14 22:21:32.953,3359232409,34953,2,0.81763,-0.28931,-0.48755,-10.542,14.695,9.977
2026-06-14 22:21:32.153,3359231609,35153,1,0.9187,-0.0332,0.52686,-19.076,5.84,-7.29
2026-06-14 22:21:32.153,3359231609,35153,2,0.81738,-0.32544,-0.48267,-6.763,9.0,12.366
2026-06-14 22:21:32.353,3359231809,35353,1,0.95288,-0.0481,0.48486,0.695,-1.046,-1.115
2026-06-14 22:21:32.353,3359231809,35353,2,0.80957,-0.34131,-0.49463,2.931,-7.389,1.985
2026-06-14 22:21:32.553,3359232009,35553,1,0.9563,-0.03613,0.4856,10.634,-0.473,3.634
2026-06-14 22:21:32.553,3359232009,35553,2,0.82349,-0.35669,-0.50073,10.023,-6.275,-6.893
2026-06-14 22:21:32.753,3359232209,35753,1,0.93384,-0.02002,0.49341,21.641,-2.977,10.038
2026-06-14 22:21:32.753,3359232209,35753,2,0.79126,-0.30908,-0.51831,7.443,-13.244,-12.229
2026-06-14 22:21:33.953,3359233409,35953,1,0.95679,0.02393,0.49097,1.527,-1.618,-2.26
2026-06-14 22:21:33.953,3359233409,35953,2,0.78687,-0.28613,-0.54785,-7.237,1.023,7.298
2026-06-14 22:21:33.174,3359232630,36174,1,0.97705,0.00342,0.44678,-5.328,1.244,-3.725
2026-06-14 22:21:33.174,3359232630,36174,2,0.77344,-0.31055,-0.54395,-8.481,3.847,8.435
2026-06-14 22:21:33.374,3359232830,36374,1,0.98291,-0.01489,0.42407,-16.359,2.939,-6.618
2026-06-14 22:21:33.374,3359232830,36374,2,0.78418,-0.34814,-0.5564,0.611,10.603,5.771
2026-06-14 22:21:33.574,3359233030,36574,1,0.97559,-0.02979,0.44824,6.206,14.511,8.443
2026-06-14 22:21:33.574,3359233030,36574,2,0.82837,-0.34692,-0.51025,15.74,21.458,-11.679
2026-06-14 22:21:33.774,3359233230,36774,1,0.95801,-0.00732,0.4502,9.786,30.809,13.527
2026-06-14 22:21:33.774,3359233230,36774,2,0.91992,-0.34814,-0.40625,27.847,48.382,-13.099
2026-06-14 22:21:34.974,3359234430,36974,1,0.86572,-0.04883,0.60669,17.145,43.916,17.504
2026-06-14 22:21:34.974,3359234430,36974,2,0.99731,-0.34668,-0.22021,33.214,55.443,-21.557
2026-06-14 22:21:34.178,3359233634,37178,1,0.74341,-0.01147,0.57495,15.374,99.817,31.557
2026-06-14 22:21:34.178,3359233634,37178,2,0.8269,-0.20728,-0.05542,32.443,136.588,-28.603
2026-06-14 22:21:34.385,3359233841,37385,1,0.10962,-0.07471,0.89185,9.099,139.282,35.817
2026-06-14 22:21:34.385,3359233841,37385,2,0.73975,-0.03076,0.55908,50.679,146.656,-23.947
2026-06-14 22:21:34.585,3359234041,37585,1,-0.38013,-0.12427,1.20166,-9.191,83.45,11.504
2026-06-14 22:21:34.585,3359234041,37585,2,0.5769,0.0188,1.0022,25.344,76.511,-3.466
2026-06-14 22:21:34.796,3359234252,37796,1,-0.46729,-0.18555,1.06787,-7.313,21.969,-2.084
2026-06-14 22:21:34.796,3359234252,37796,2,0.51636,-0.00854,1.08447,-0.336,-0.977,-4.191
2026-06-14 22:21:35.996,3359235452,37996,1,-0.19873,-0.22559,0.90479,3.817,-2.779,-1.679
2026-06-14 22:21:35.996,3359235452,37996,2,0.58765,-0.02759,0.98315,-4.885,-9.702,-9.046
2026-06-14 22:21:35.196,3359234652,38196,1,-0.44482,-0.08545,1.13916,9.977,-14.687,-12.763
2026-06-14 22:21:35.196,3359234652,38196,2,0.65625,-0.09692,0.92139,-34.176,-97.687,12.817
2026-06-14 22:21:35.635,3359235091,38635,1,0.3064,-0.15796,0.6748,-11.183,-138.725,-44.74
2026-06-14 22:21:35.635,3359235091,38635,2,0.9917,-0.26563,-0.05273,-52.107,-112.519,-15.519
2026-06-14 22:21:35.838,3359235294,38838,1,0.94116,-0.10767,0.51074,-29.779,-70.786,-29.099
2026-06-14 22:21:35.838,3359235294,38838,2,0.97461,-0.3103,-0.24341,-14.313,-49.153,4.771
2026-06-14 22:21:36.038,3359235494,39038,1,0.96606,-0.05518,0.48462,11.267,-21.183,-0.992
2026-06-14 22:21:36.038,3359235494,39038,2,0.8877,-0.35376,-0.50366,8.885,-19.832,1.924
2026-06-14 22:21:36.238,3359235694,39238,1,1.03931,-0.05493,0.39893,19.779,39.427,19.634
2026-06-14 22:21:36.238,3359235694,39238,2,0.98218,-0.2417,0.20459,49.779,163.374,-17.695
2026-06-14 22:21:36.513,3359235969,39513,1,0.25781,-0.13647,0.68311,14.504,151.725,32.588
2026-06-14 22:21:36.513,3359235969,39513,2,0.78833,-0.22729,0.17798,33.611,138.595,-39.168
2026-06-14 22:21:36.713,3359236169,39713,1,-0.10522,-0.15723,1.0415,8.863,111.206,22.611
2026-06-14 22:21:36.713,3359236169,39713,2,0.75293,-0.06299,0.65527,35.015,120.336,-9.481
2026-06-14 22:21:37.916,3359237372,39916,1,-0.57813,-0.06885,1.14282,3.214,79.321,18.863
2026-06-14 22:21:37.916,3359237372,39916,2,0.47559,0.0813,1.02393,13.664,34.305,-4.153
2026-06-14 22:21:37.116,3359236572,40116,1,-0.60913,-0.09692,0.95557,-3.931,21.267,7.45
2026-06-14 22:21:37.116,3359236572,40116,2,0.41406,0.12207,1.06152,-2.924,5.756,1.023
2026-06-14 22:21:37.316,3359236772,40316,1,-0.6897,-0.07056,1.00049,-1.45,15.092,3.031
2026-06-14 22:21:37.316,3359236772,40316,2,0.40601,0.08203,1.07251,-0.664,-6.901,3.58
2026-06-14 22:21:37.516,3359236972,40516,1,-0.62817,-0.13867,0.99878,2.969,-21.962,1.115
2026-06-14 22:21:37.516,3359236972,40516,2,0.46143,0.0481,1.03687,-18.16,-56.046,17.023
2026-06-14 22:21:37.716,3359237172,40716,1,-0.45508,-0.1394,1.13184,-13.221,-95.74,-23.504
2026-06-14 22:21:37.716,3359237172,40716,2,0.7959,-0.16553,0.67944,-60.832,-140.214,23.267
2026-06-14 22:21:38.916,3359238372,40916,1,0.15186,-0.13965,0.86816,-9.832,-142.595,-29.511
2026-06-14 22:21:38.916,3359238372,40916,2,0.96948,-0.2749,0.11743,-49.038,-133.389,14.588
2026-06-14 22:21:38.125,3359237581,41125,1,0.60254,-0.08911,0.63574,-11.221,-115.626,-44.573
2026-06-14 22:21:38.125,3359237581,41125,2,0.95825,-0.33325,-0.2395,-42.427,-105.786,15.26
2026-06-14 22:21:38.325,3359237781,41325,1,0.96802,-0.0686,0.45605,-2.679,-58.824,-24.183
2026-06-14 22:21:38.325,3359237781,41325,2,0.87573,-0.31934,-0.50171,-11.695,-45.824,1.374
2026-06-14 22:21:38.525,3359237981,41525,1,0.98218,-0.0127,0.42651,6.206,-24.168,-9.435
2026-06-14 22:21:38.525,3359237981,41525,2,0.78589,-0.31396,-0.59595,-6.0,-7.664,6.794
2026-06-14 22:21:38.766,3359238222,41766,1,1.02466,0.00903,0.39478,-6.397,2.122,-6.664
2026-06-14 22:21:38.766,3359238222,41766,2,0.76025,-0.32495,-0.58594,-0.855,10.817,5.206
2026-06-14 22:21:39.995,3359239451,41995,1,0.97461,-0.02881,0.427,-5.015,11.16,1.565
2026-06-14 22:21:39.995,3359239451,41995,2,0.76196,-0.31787,-0.56812,-2.015,16.267,2.511
2026-06-14 22:21:39.195,3359238651,42195,1,0.93896,-0.03564,0.47925,-4.763,10.954,-1.191
2026-06-14 22:21:39.195,3359238651,42195,2,0.77808,-0.30322,-0.53906,-6.771,12.504,0.573
2026-06-14 22:21:39.395,3359238851,42395,1,0.94775,-0.0271,0.47729,-0.496,3.061,-6.649
2026-06-14 22:21:39.395,3359238851,42395,2,0.80054,-0.30322,-0.53394,5.321,-3.939,-5.405
2026-06-14 22:21:39.701,3359239157,42701,1,0.96655,-0.01392,0.44971,1.344,-0.206,4.282
2026-06-14 22:21:39.701,3359239157,42701,2,0.79663,-0.30078,-0.53784,3.153,-2.496,-3.618
2026-06-14 22:21:40.014,3359239470,43014,1,0.9563,-0.0127,0.46484,-2.55,2.802,0.313
2026-06-14 22:21:40.014,3359239470,43014,2,0.7749,-0.29834,-0.54028,-0.473,0.557,2.328
2026-06-14 22:21:40.311,3359239767,43311,1,0.95703,-0.02588,0.45239,0.107,-5.496,-0.458
2026-06-14 22:21:40.311,3359239767,43311,2,0.76611,-0.32202,-0.56226,8.412,-6.748,0.679
2026-06-14 22:21:40.511,3359239967,43511,1,0.98022,-0.02661,0.43311,5.374,-2.473,0.893
2026-06-14 22:21:40.511,3359239967,43511,2,0.74976,-0.3252,-0.57153,6.397,-4.908,-3.885
2026-06-14 22:21:40.711,3359240167,43711,1,0.97974,-0.01318,0.427,,0.496,0.573
2026-06-14 22:21:40.711,3359240167,43711,2,0.74634,-0.34009,-0.59229,0.969,2.13,-0.351
2026-06-14 22:21:41.919,3359241375,43919,1,0.97754,-0.04102,0.41968,2.962,2.756,3.511
2026-06-14 22:21:41.919,3359241375,43919,2,0.74463,-0.32617,-0.58203,3.634,0.885,-3.756
2026-06-14 22:21:41.119,3359240575,44119,1,0.98169,-0.01782,0.42749,4.664,3.069,-0.702
2026-06-14 22:21:41.119,3359240575,44119,2,0.74707,-0.32788,-0.57666,4.198,1.794,-3.076
2026-06-14 22:21:41.333,3359240789,44333,1,0.979,-0.01001,0.44995,6.939,4.679,2.542
2026-06-14 22:21:41.333,3359240789,44333,2,0.75659,-0.31396,-0.56128,-2.481,2.252,-6.298
2026-06-14 22:21:41.612,3359241068,44612,1,0.97021,0.00269,0.45215,-0.183,2.672,1.099
2026-06-14 22:21:41.612,3359241068,44612,2,0.75464,-0.29224,-0.58521,-1.626,0.756,1.954
2026-06-14 22:21:41.812,3359241268,44812,1,0.96802,-0.01221,0.44141,-3.267,-1.794,-2.252
2026-06-14 22:21:41.812,3359241268,44812,2,0.72729,-0.3457,-0.55176,3.244,0.321,0.756
2026-06-14 22:21:42.019,3359241475,45019,1,0.97656,-0.01392,0.43018,4.183,3.389,1.366
2026-06-14 22:21:42.019,3359241475,45019,2,0.75464,-0.31396,-0.57251,1.542,1.481,-1.336
2026-06-14 22:21:42.219,3359241675,45219,1,0.979,0.00562,0.43628,0.321,3.511,-0.183
2026-06-14 22:21:42.219,3359241675,45219,2,0.74072,-0.31958,-0.58911,-0.84,0.58,0.122
2026-06-14 22:21:42.419,3359241875,45419,1,0.9729,-0.00122,0.43188,-1.153,2.382,0.183
2026-06-14 22:21:42.419,3359241875,45419,2,0.75293,-0.32324,-0.57983,0.649,2.237,0.87
2026-06-14 22:21:42.619,3359242075,45619,1,0.97705,-0.01172,0.43384,1.305,3.664,3.206
2026-06-14 22:21:42.619,3359242075,45619,2,0.76172,-0.31763,-0.5769,4.855,3.954,-1.405
2026-06-14 22:21:42.819,3359242275,45819,1,0.95874,-0.02002,0.43945,3.008,3.947,3.511
2026-06-14 22:21:42.819,3359242275,45819,2,0.75635,-0.32495,-0.57202,2.42,1.489,-2.374
2026-06-14 22:21:43.019,3359242475,46019,1,0.96436,-0.02441,0.44141,1.321,2.282,0.87
2026-06-14 22:21:43.019,3359242475,46019,2,0.7605,-0.32983,-0.57129,1.115,1.115,-0.992
2026-06-14 22:21:43.249,3359242705,46249,1,0.97192,-0.01514,0.43506,-1.176,3.74,0.122
2026-06-14 22:21:43.249,3359242705,46249,2,0.76172,-0.33154,-0.56055,0.969,3.496,-0.046
2026-06-14 22:21:43.449,3359242905,46449,1,0.99683,-0.03076,0.43091,3.519,6.221,2.45
2026-06-14 22:21:43.449,3359242905,46449,2,0.82935,-0.37256,-0.57129,11.344,23.038,-2.924
2026-06-14 22:21:43.649,3359243105,46649,1,0.96558,-0.02612,0.37646,9.153,45.336,15.687
2026-06-14 22:21:43.649,3359243105,46649,2,0.71289,-0.30054,-0.25244,-8.42,87.71,-27.092
2026-06-14 22:21:44.887,3359244343,46887,1,0.45703,-0.00073,0.38184,12.954,80.885,24.374
2026-06-14 22:21:44.887,3359244343,46887,2,0.81421,-0.23779,-0.03638,20.046,95.985,0.718
2026-06-14 22:21:44.087,3359243543,47087,1,0.47778,-0.13013,0.92139,7.115,38.542,12.221
2026-06-14 22:21:44.087,3359243543,47087,2,0.91504,-0.22241,0.15942,11.565,24.802,-5.084
2026-06-14 22:21:44.287,3359243743,47287,1,0.54565,-0.21777,1.20654,11.084,-41.863,1.504
2026-06-14 22:21:44.287,3359243743,47287,2,1.30469,-0.29102,-0.03589,-8.74,-14.176,-4.122
2026-06-14 22:21:44.575,3359244031,47575,1,0.51392,-0.03247,0.46533,-24.519,-8.221,-17.74
2026-06-14 22:21:44.575,3359244031,47575,2,1.21094,-0.42773,0.0874,-8.939,16.603,11.221
2026-06-14 22:21:44.790,3359244246,47790,1,0.86768,-0.29468,1.03516,39.321,26.611,12.305
2026-06-14 22:21:44.790,3359244246,47790,2,1.44312,-0.50854,-0.04541,5.603,23.229,-7.603
2026-06-14 22:21:45.026,3359244482,48026,1,0.4187,-0.19165,0.87573,-13.58,111.26,14.588
2026-06-14 22:21:45.026,3359244482,48026,2,0.91724,-0.08643,0.43457,-5.145,56.359,15.863
2026-06-14 22:21:45.269,3359244725,48269,1,0.14868,-0.03101,1.19556,31.634,39.137,8.412
2026-06-14 22:21:45.269,3359244725,48269,2,0.87793,-0.29053,0.55273,-5.26,-6.298,11.74
2026-06-14 22:21:45.469,3359244925,48469,1,0.01733,-0.27661,1.23267,-45.817,-53.863,-15.328
2026-06-14 22:21:45.469,3359244925,48469,2,0.99878,-0.3291,0.375,-27.275,-83.107,9.802
2026-06-14 22:21:45.669,3359245125,48669,1,0.4397,-0.26147,0.70972,-0.321,-91.802,-33.015
2026-06-14 22:21:45.669,3359245125,48669,2,0.84082,-0.33276,0.03516,-29.832,-90.046,1.145
2026-06-14 22:21:45.869,3359245325,48869,1,0.25342,-0.09546,0.36035,32.695,-74.954,-4.863
2026-06-14 22:21:45.869,3359245325,48869,2,1.60742,-0.62354,-0.37329,21.313,-19.321,-0.519
2026-06-14 22:21:46.069,3359245525,49069,1,0.75562,0.03271,0.46167,46.046,36.176,18.046
2026-06-14 22:21:46.069,3359245525,49069,2,1.12524,-0.42261,-0.34106,18.092,84.702,5.878
2026-06-14 22:21:46.269,3359245725,49269,1,0.53052,-0.11304,0.57837,-18.489,147.473,11.74
2026-06-14 22:21:46.269,3359245725,49269,2,0.97144,-0.18286,0.05273,67.84,157.985,-25.534
2026-06-14 22:21:46.474,3359245930,49474,1,-0.18115,-0.11401,0.93604,-3.908,159.527,26.008
2026-06-14 22:21:46.474,3359245930,49474,2,0.93164,-0.1665,0.87427,77.153,128.137,-30.076
2026-06-14 22:21:46.674,3359246130,49674,1,-0.47827,-0.07617,1.05273,7.023,87.237,13.947
2026-06-14 22:21:46.674,3359246130,49674,2,0.52759,0.06909,1.0188,23.74,69.137,-14.13
2026-06-14 22:21:47.874,3359247330,49874,1,-0.70581,-0.04248,0.99341,1.496,32.916,4.962
2026-06-14 22:21:47.874,3359247330,49874,2,0.40649,0.10132,1.07422,2.298,17.359,-2.595
2026-06-14 22:21:47.212,3359246668,50212,1,-0.62524,-0.08423,0.86035,-8.595,-11.389,0.634
2026-06-14 22:21:47.212,3359246668,50212,2,0.42749,0.03369,1.07251,-4.649,-22.382,4.595
2026-06-14 22:21:47.412,3359246868,50412,1,-0.67261,-0.03418,1.02856,-14.718,-54.779,-11.076
2026-06-14 22:21:47.412,3359246868,50412,2,0.57129,-0.00366,0.99902,-28.382,-78.725,24.565
2026-06-14 22:21:47.612,3359247068,50612,1,-0.26196,-0.13867,0.93823,-14.336,-102.939,-16.595
2026-06-14 22:21:47.612,3359247068,50612,2,0.86743,-0.1814,0.56152,-42.366,-103.939,17.221
2026-06-14 22:21:47.822,3359247278,50822,1,0.1543,-0.17041,0.91479,-11.458,-89.466,-28.145
2026-06-14 22:21:47.822,3359247278,50822,2,1.00464,-0.30493,0.25269,-42.122,-79.733,8.397
2026-06-14 22:21:48.022,3359247478,51022,1,0.43091,-0.18091,0.88403,-2.809,-88.275,-30.939
2026-06-14 22:21:48.022,3359247478,51022,2,0.98682,-0.30811,0.06396,-22.817,-87.656,3.489
2026-06-14 22:21:48.222,3359247678,51222,1,0.65723,-0.06885,0.62476,-5.298,-88.687,-28.763
2026-06-14 22:21:48.222,3359247678,51222,2,0.93164,-0.33667,-0.40698,-14.908,-70.153,7.305
2026-06-14 22:21:48.437,3359247893,51437,1,0.97095,-0.02002,0.4751,5.481,-38.42,-6.641
2026-06-14 22:21:48.437,3359247893,51437,2,0.82813,-0.31616,-0.53052,-4.008,-28.053,0.153
2026-06-14 22:21:48.637,3359248093,51637,1,0.95801,-0.02637,0.49341,2.344,-8.794,-2.748
2026-06-14 22:21:48.637,3359248093,51637,2,0.8125,-0.31055,-0.56763,-6.191,-18.13,2.046
2026-06-14 22:21:48.837,3359248293,51837,1,0.98706,-0.021,0.41895,-3.145,-5.786,-5.679
2026-06-14 22:21:48.837,3359248293,51837,2,0.73462,-0.29297,-0.62036,-2.985,-3.267,-1.366
2026-06-14 22:21:49.063,3359248519,52063,1,0.9729,0.00513,0.43359,-1.26,0.908,-1.458
2026-06-14 22:21:49.063,3359248519,52063,2,0.85571,-0.26782,-0.59766,-12.29,3.496,3.939
2026-06-14 22:21:49.263,3359248719,52263,1,0.98267,0.00293,0.45703,-19.511,10.649,-6.855
2026-06-14 22:21:49.263,3359248719,52263,2,0.75049,-0.30542,-0.55151,-4.099,27.954,14.534
2026-06-14 22:21:49.463,3359248919,52463,1,0.95801,-0.02466,0.45264,-4.74,9.466,0.87
2026-06-14 22:21:49.463,3359248919,52463,2,0.74902,-0.31323,-0.55762,11.565,8.885,1.305
2026-06-14 22:21:49.666,3359249122,52666,1,0.9541,-0.03345,0.45068,10.458,0.084,4.282
2026-06-14 22:21:49.666,3359249122,52666,2,0.76855,-0.31494,-0.56348,4.756,0.237,-3.893
2026-06-14 22:21:49.866,3359249322,52866,1,0.95215,-0.03418,0.4646,9.786,0.603,2.901
2026-06-14 22:21:49.866,3359249322,52866,2,0.76807,-0.32373,-0.55151,4.328,-3.389,-6.267
2026-06-14 22:21:50.078,3359249534,53078,1,0.95947,-0.01196,0.46973,6.534,-0.031,1.084
2026-06-14 22:21:50.078,3359249534,53078,2,0.77417,-0.32104,-0.5625,4.29,-2.366,-6.29
2026-06-14 22:21:50.278,3359249734,53278,1,0.96143,0.00586,0.44385,1.878,3.45,-0.344
2026-06-14 22:21:50.278,3359249734,53278,2,0.77563,-0.32007,-0.54932,1.534,4.099,-2.557
2026-06-14 22:21:50.478,3359249934,53478,1,0.95557,-0.00122,0.48218,2.405,1.687,3.901
2026-06-14 22:21:50.478,3359249934,53478,2,0.73828,-0.29663,-0.61108,15.275,2.802,-0.282
2026-06-14 22:21:50.678,3359250134,53678,1,0.96045,-0.0105,0.46484,3.366,2.641,5.038
2026-06-14 22:21:50.678,3359250134,53678,2,0.76514,-0.31494,-0.55957,-3.603,2.672,2.092
2026-06-14 22:21:51.878,3359251334,53878,1,0.94653,-0.02246,0.46143,-2.534,0.069,-2.458
2026-06-14 22:21:51.878,3359251334,53878,2,0.77441,-0.33276,-0.55664,-2.214,-0.046,-1.71
2026-06-14 22:21:51.078,3359250534,54078,1,0.94995,-0.0376,0.47021,3.916,0.656,1.702
2026-06-14 22:21:51.078,3359250534,54078,2,0.76782,-0.32373,-0.54321,1.863,-4.13,-3.336
2026-06-14 22:21:51.278,3359250734,54278,1,0.9563,-0.02588,0.46021,3.84,2.031,1.985
2026-06-14 22:21:51.278,3359250734,54278,2,0.76196,-0.31299,-0.56494,1.824,0.679,-1.427
2026-06-14 22:21:51.478,3359250934,54478,1,0.96362,-0.0249,0.45532,-0.122,2.26,-1.489
2026-06-14 22:21:51.478,3359250934,54478,2,0.75708,-0.3186,-0.56323,0.015,1.626,0.191
2026-06-14 22:21:51.678,3359251134,54678,1,0.96045,-0.02588,0.43896,2.29,2.55,0.359
2026-06-14 22:21:51.678,3359251134,54678,2,0.75806,-0.32202,-0.57251,-0.58,0.122,-2.656
2026-06-14 22:21:52.878,3359252334,54878,1,0.95508,-0.02075,0.45801,-0.015,-5.908,-2.122
2026-06-14 22:21:52.878,3359252334,54878,2,0.7583,-0.28687,-0.58521,1.702,3.107,-6.16
2026-06-14 22:21:52.078,3359251534,55078,1,0.96606,0.01343,0.44531,2.725,5.519,0.42
2026-06-14 22:21:52.078,3359251534,55078,2,0.75269,-0.29907,-0.58008,3.656,5.664,2.664
2026-06-14 22:21:52.278,3359251734,55278,1,0.96069,-0.00439,0.46484,-2.053,4.55,-0.489
2026-06-14 22:21:52.278,3359251734,55278,2,0.75781,-0.31299,-0.56982,-0.29,4.702,0.855
2026-06-14 22:21:52.478,3359251934,55478,1,0.95361,-0.0061,0.46704,-1.382,1.939,0.84
2026-06-14 22:21:52.478,3359251934,55478,2,0.76611,-0.31714,-0.56836,0.435,2.954,2.542
2026-06-14 22:21:52.678,3359252134,55678,1,0.96436,-0.00635,0.45337,-2.153,2.305,0.756
2026-06-14 22:21:52.678,3359252134,55678,2,0.771,-0.32275,-0.56177,2.87,4.954,-1.16
2026-06-14 22:21:53.953,3359253409,55953,1,0.96777,-0.01318,0.4563,0.374,6.13,1.527
2026-06-14 22:21:53.953,3359253409,55953,2,0.81592,-0.33643,-0.53711,8.412,18.168,-2.962
2026-06-14 22:21:53.255,3359252711,56255,1,1.01831,-0.00928,0.43701,2.481,41.496,8.137
2026-06-14 22:21:53.255,3359252711,56255,2,0.94434,-0.3833,-0.40845,27.863,81.076,-17.305
2026-06-14 22:21:53.470,3359252926,56470,1,0.61792,0.03662,0.37183,22.198,145.656,46.595
2026-06-14 22:21:53.470,3359252926,56470,2,0.98389,-0.25415,-0.073,62.336,196.702,-44.87
2026-06-14 22:21:53.670,3359253126,56670,1,-0.09033,-0.01074,0.9375,-0.794,166.832,24.794
2026-06-14 22:21:53.670,3359253126,56670,2,0.65747,-0.104,0.97095,24.382,107.298,-0.221
2026-06-14 22:21:54.931,3359254387,56930,1,-0.45972,-0.21045,1.06372,-17.389,56.489,13.504
2026-06-14 22:21:54.931,3359254387,56930,2,0.51099,-0.03198,1.02295,16.344,36.878,-7.092
2026-06-14 22:21:54.130,3359253586,57130,1,-0.61401,-0.15991,0.99316,-4.046,16.282,9.817
2026-06-14 22:21:54.130,3359253586,57130,2,0.43286,0.07837,1.11792,-2.489,-17.099,8.771
2026-06-14 22:21:54.330,3359253786,57330,1,-0.40918,-0.12329,0.90894,14.977,-25.603,-3.527
2026-06-14 22:21:54.330,3359253786,57330,2,0.57935,0.03418,1.04004,-11.145,-42.916,0.046
2026-06-14 22:21:54.530,3359253986,57530,1,-0.4314,-0.16724,1.07056,-0.099,-70.779,-21.435
2026-06-14 22:21:54.530,3359253986,57530,2,0.73511,-0.09082,0.82593,-45.275,-97.908,12.061
2026-06-14 22:21:54.730,3359254186,57730,1,-0.0481,-0.11597,0.95337,-6.87,-125.672,-38.748
2026-06-14 22:21:54.730,3359254186,57730,2,0.88013,-0.30493,0.24438,-57.527,-139.672,16.359
2026-06-14 22:21:55.952,3359255408,57952,1,0.64526,-0.16895,0.72412,-20.458,-106.053,-28.779
2026-06-14 22:21:55.952,3359255408,57952,2,0.93726,-0.3374,-0.09692,-21.618,-82.496,1.389
2026-06-14 22:21:55.152,3359254608,58152,1,0.89624,-0.06348,0.54614,6.443,-36.038,-4.885
2026-06-14 22:21:55.152,3359254608,58152,2,1.04614,-0.3667,-0.35303,-12.282,-26.42,13.084
2026-06-14 22:21:55.352,3359254808,58352,1,0.95313,-0.09229,0.54346,4.595,17.458,5.168
2026-06-14 22:21:55.352,3359254808,58352,2,0.66309,-0.21045,-0.07275,22.412,57.389,-8.71
2026-06-14 22:21:55.552,3359255008,58552,1,0.41772,-0.15991,0.47632,-1.702,44.74,7.397
2026-06-14 22:21:55.552,3359255008,58552,2,0.854,-0.05713,0.0127,-9.573,29.031,-13.611
2026-06-14 22:21:55.752,3359255208,58752,1,0.66626,-0.11719,0.85132,4.916,42.061,0.542
2026-06-14 22:21:55.752,3359255208,58752,2,1.03345,-0.22119,0.05029,16.092,37.412,-10.947
2026-06-14 22:21:56.952,3359256408,58952,1,0.37793,-0.04395,0.93628,-10.802,-8.618,-8.214
2026-06-14 22:21:56.952,3359256408,58952,2,1.57202,-0.41602,-0.03125,-19.763,-26.45,4.527
2026-06-14 22:21:56.212,3359255668,59211,1,1.05347,-0.30469,0.97412,-28.55,61.084,-1.802
2026-06-14 22:21:56.212,3359255668,59211,2,0.9751,-0.22534,-0.02466,75.481,66.458,-4.947
2026-06-14 22:21:56.411,3359255867,59411,1,0.37549,-0.12769,0.94897,13.954,7.168,12.115
2026-06-14 22:21:56.411,3359255867,59411,2,1.03101,-0.39233,0.27368,-5.664,-5.733,20.267
2026-06-14 22:21:56.611,3359256067,59611,1,0.46143,-0.15308,0.97046,-12.954,2.626,13.137
2026-06-14 22:21:56.611,3359256067,59611,2,0.95264,-0.3335,0.25635,1.87,4.763,11.641
2026-06-14 22:21:56.811,3359256267,59811,1,0.41089,-0.23975,0.97925,-3.863,0.244,8.649
2026-06-14 22:21:56.811,3359256267,59811,2,1.02344,-0.40771,0.23267,-5.321,-9.397,7.359
2026-06-14 22:21:57.011,3359256467,60011,1,0.48804,-0.24683,0.92871,10.092,-2.252,3.374
2026-06-14 22:21:57.011,3359256467,60011,2,1.01563,-0.30347,0.19165,-2.557,-8.183,-10.924
2026-06-14 22:21:57.211,3359256667,60211,1,0.50586,-0.16846,0.94092,-12.473,2.198,-12.916
2026-06-14 22:21:57.211,3359256667,60211,2,1.00537,-0.35376,0.16455,-8.634,-4.405,1.0
2026-06-14 22:21:57.411,3359256867,60411,1,0.55005,-0.17432,0.88867,33.206,1.0,1.588
2026-06-14 22:21:57.411,3359256867,60411,2,1.02783,-0.27539,0.13525,10.916,-2.527,-13.328
2026-06-14 22:21:57.611,3359257067,60611,1,0.53589,-0.0564,0.96729,7.206,0.244,-5.008
2026-06-14 22:21:57.611,3359257067,60611,2,1.01733,-0.2771,0.12793,7.344,2.031,-5.679
2026-06-14 22:21:57.811,3359257267,60811,1,0.57495,-0.02856,0.94556,-3.649,-4.374,-7.298
2026-06-14 22:21:57.811,3359257267,60811,2,1.73901,-0.49902,0.25098,33.603,53.038,-7.305
2026-06-14 22:21:58.027,3359257483,61027,1,0.52563,0.00146,1.22778,-17.252,80.695,8.344
2026-06-14 22:21:58.027,3359257483,61027,2,0.8418,-0.2478,0.40381,34.344,51.351,7.183
2026-06-14 22:21:58.227,3359257683,61227,1,0.15845,-0.11768,1.04761,1.748,-4.336,13.053
2026-06-14 22:21:58.227,3359257683,61227,2,0.87109,-0.19458,0.37134,-3.29,-16.55,14.458
2026-06-14 22:21:58.427,3359257883,61427,1,0.39722,-0.16968,1.03711,-7.702,-26.046,-3.595
2026-06-14 22:21:58.427,3359257883,61427,2,0.86353,-0.28223,0.16235,-10.878,-58.328,0.84
2026-06-14 22:21:58.647,3359258103,61647,1,0.32471,-0.14917,0.70532,8.779,-52.221,-9.069
2026-06-14 22:21:58.647,3359258103,61647,2,0.62744,-0.22388,0.13574,-11.634,-83.565,8.321
2026-06-14 22:21:58.847,3359258303,61847,1,0.72876,-0.18677,0.57373,23.252,-76.916,-9.115
2026-06-14 22:21:58.847,3359258303,61847,2,0.85376,-0.40405,-0.22461,11.885,-81.733,-9.756
2026-06-14 22:21:59.047,3359258503,62047,1,0.90308,-0.02466,0.47363,39.466,-25.176,13.023
2026-06-14 22:21:59.047,3359258503,62047,2,0.89087,-0.1897,-0.39966,5.71,-9.809,-7.168
2026-06-14 22:21:59.251,3359258707,62251,1,0.91577,0.00024,0.56055,-44.473,-21.641,-25.466
2026-06-14 22:21:59.251,3359258707,62251,2,0.90894,-0.18213,-0.53101,-25.321,-21.198,9.481
2026-06-14 22:21:59.451,3359258907,62451,1,0.93872,0.04346,0.48096,-49.137,-16.595,-24.366
2026-06-14 22:21:59.451,3359258907,62451,2,0.83057,-0.25781,-0.5769,-35.71,-4.244,37.015
2026-06-14 22:21:59.651,3359259107,62651,1,1.00415,-0.00366,0.41553,-27.382,6.084,-9.244
2026-06-14 22:21:59.651,3359259107,62651,2,0.74512,-0.30322,-0.52881,-1.298,25.176,18.519
2026-06-14 22:21:59.870,3359259326,62870,1,0.91064,-0.06665,0.52075,-22.634,-3.244,-14.458
2026-06-14 22:21:59.870,3359259326,62870,2,0.77832,-0.35474,-0.55347,3.817,-5.137,3.458
2026-06-14 22:22:00.070,3359259526,63070,1,0.95728,-0.03271,0.44946,8.344,-1.275,3.031
2026-06-14 22:22:00.070,3359259526,63070,2,0.76904,-0.31689,-0.55103,2.008,-9.771,-10.107
2026-06-14 22:22:00.270,3359259726,63270,1,1.00146,0.06226,0.41919,19.565,4.221,10.802
2026-06-14 22:22:00.270,3359259726,63270,2,0.77441,-0.27954,-0.53491,12.519,10.664,-12.305
2026-06-14 22:22:00.549,3359260005,63549,1,0.91406,0.03394,0.54565,-1.221,5.87,-0.214
2026-06-14 22:22:00.549,3359260005,63549,2,0.79663,-0.27808,-0.52661,-13.832,-1.397,8.679
2026-06-14 22:22:00.773,3359260229,63773,1,0.94946,-0.01978,0.48462,-13.107,-1.359,-6.366
2026-06-14 22:22:00.773,3359260229,63773,2,0.79175,-0.29785,-0.50806,-2.481,-2.313,1.542
2026-06-14 22:22:01.054,3359260510,64054,1,0.91675,-0.05884,0.50488,-3.16,6.626,1.13
2026-06-14 22:22:01.054,3359260510,64054,2,0.78076,-0.30151,-0.54639,-0.748,2.206,1.321
2026-06-14 22:22:01.259,3359260715,64259,1,0.94214,-0.04297,0.49463,4.496,5.489,-0.214
2026-06-14 22:22:01.259,3359260715,64259,2,0.76733,-0.29761,-0.56421,0.008,-1.435,-4.977
2026-06-14 22:22:01.460,3359260916,64460,1,0.93896,-0.02954,0.49585,8.817,0.366,1.076
2026-06-14 22:22:01.460,3359260916,64460,2,0.76709,-0.31372,-0.56812,7.336,-4.336,-8.573
2026-06-14 22:22:01.686,3359261142,64685,1,0.9519,-0.02856,0.47925,18.695,-2.565,4.786
2026-06-14 22:22:01.686,3359261142,64685,2,0.73999,-0.28198,-0.58643,12.565,-17.046,-12.061
2026-06-14 22:22:02.059,3359261515,65059,1,0.98364,0.00952,0.43994,-8.099,-1.679,3.061
2026-06-14 22:22:02.059,3359261515,65059,2,0.72754,-0.31055,-0.60986,7.481,5.779,12.374
2026-06-14 22:22:02.261,3359261717,65261,1,0.92749,-0.10059,0.40137,-7.412,-6.29,-11.977
2026-06-14 22:22:02.261,3359261717,65261,2,0.77197,-0.38525,-0.49829,-7.229,28.046,-5.748
2026-06-14 22:22:02.461,3359261917,65461,1,1.0166,0.0813,0.4458,87.641,34.58,60.527
2026-06-14 22:22:02.461,3359261917,65461,2,0.8208,-0.28198,-0.59985,28.679,19.42,-49.137
2026-06-14 22:22:02.661,3359262117,65661,1,0.86914,-0.05908,0.52954,37.389,13.626,37.527
2026-06-14 22:22:02.661,3359262117,65661,2,0.80225,-0.16602,-0.4917,35.122,1.153,-22.313
2026-06-14 22:22:02.861,3359262317,65861,1,0.99561,-0.06616,0.49341,55.771,1.382,13.458
2026-06-14 22:22:02.861,3359262317,65861,2,0.87256,-0.17847,-0.51245,17.489,2.084,-40.092
2026-06-14 22:22:03.061,3359262517,66061,1,0.86572,0.06934,0.59424,3.58,14.023,2.046
2026-06-14 22:22:03.061,3359262517,66061,2,0.83447,-0.13135,-0.46777,0.122,13.962,15.756
2026-06-14 22:22:03.261,3359262717,66261,1,0.8501,-0.01563,0.57227,-18.992,-5.481,-12.344
2026-06-14 22:22:03.261,3359262717,66261,2,0.82104,-0.18091,-0.4917,-17.427,-19.626,15.168
2026-06-14 22:22:03.462,3359262918,66462,1,0.89746,-0.07349,0.50659,-9.534,-7.947,-7.603
2026-06-14 22:22:03.462,3359262918,66462,2,0.69629,-0.22583,-0.48511,1.618,-22.244,-28.55
2026-06-14 22:22:03.662,3359263118,66662,1,0.99438,-0.03687,0.45532,-53.443,18.282,-29.153
2026-06-14 22:22:03.662,3359263118,66662,2,0.79199,-0.1731,-0.54639,-38.824,24.412,24.351
2026-06-14 22:22:03.862,3359263318,66862,1,0.93628,-0.0686,0.52222,-29.443,0.649,-39.466
2026-06-14 22:22:03.862,3359263318,66862,2,0.75488,-0.30566,-0.52856,-21.366,-0.733,27.947
2026-06-14 22:22:04.062,3359263518,67062,1,0.98682,-0.00635,0.47852,-3.962,-1.947,-0.573
2026-06-14 22:22:04.062,3359263518,67062,2,0.77808,-0.30811,-0.51733,-8.176,-0.847,7.565
2026-06-14 22:22:04.262,3359263718,67262,1,0.95313,-0.0061,0.51782,4.328,-0.893,4.389
2026-06-14 22:22:04.262,3359263718,67262,2,0.82275,-0.2876,-0.53955,14.397,0.908,1.053
2026-06-14 22:22:04.462,3359263918,67462,1,0.92383,0.00293,0.50879,4.458,-7.756,8.771
2026-06-14 22:22:04.462,3359263918,67462,2,0.73633,-0.35522,-0.58789,21.031,-33.489,18.328
2026-06-14 22:22:04.690,3359264146,67690,1,1.10815,-0.01074,0.35107,3.649,-27.847,15.786
2026-06-14 22:22:04.690,3359264146,67690,2,0.73389,-0.33472,-0.5813,8.908,9.924,23.198
2026-06-14 22:22:05.890,3359265346,67890,1,1.0083,-0.04907,0.32202,-37.015,11.427,-13.015
2026-06-14 22:22:05.890,3359265346,67890,2,0.71753,-0.41675,-0.54932,-19.008,23.328,25.527
2026-06-14 22:22:05.126,3359264582,68125,1,0.96948,-0.06274,0.42041,-23.061,21.87,-3.053
2026-06-14 22:22:05.126,3359264582,68125,2,0.74951,-0.40527,-0.52197,-6.985,18.046,1.084
2026-06-14 22:22:05.359,3359264815,68359,1,0.9353,-0.05054,0.47461,-2.893,11.595,-6.794
2026-06-14 22:22:05.359,3359264815,68359,2,0.76465,-0.38428,-0.4917,-7.198,4.565,-7.359
2026-06-14 22:22:05.559,3359265015,68559,1,0.93091,-0.02466,0.50146,22.855,1.748,-0.733
2026-06-14 22:22:05.559,3359265015,68559,2,0.7915,-0.34497,-0.54565,14.687,-2.206,-7.191
2026-06-14 22:22:05.838,3359265294,68838,1,0.95923,-0.03418,0.47412,3.122,3.458,1.679
2026-06-14 22:22:05.838,3359265294,68838,2,0.78174,-0.36841,-0.5144,1.443,2.649,0.992
2026-06-14 22:22:06.038,3359265494,69038,1,0.95166,-0.00635,0.49048,-2.107,4.687,-0.42
2026-06-14 22:22:06.038,3359265494,69038,2,0.76758,-0.37329,-0.52173,-5.84,4.756,0.137
2026-06-14 22:22:06.238,3359265694,69238,1,0.94678,-0.01758,0.48877,-0.206,0.298,0.893
