datetime,epoch_ms,ts_millis,mpu_id,ax,ay,az,gx,gy,gz
2026-06-11T18:06:31.981659,,,,,,,,,
2026-06-11T18:07:03.239607,,,,,,,,,
2026-06-11 18:07:03.417,3084762873,5417,1,0.96851,-0.03613,0.50879,-3.573,-3.901,-1.153
2026-06-11 18:07:03.417,3084762873,5417,2,0.98071,-0.30811,-0.13867,-15.832,-5.786,3.977
2026-06-11 18:07:03.617,3084763073,5617,1,0.95679,-0.04248,0.42651,-3.191,-13.634,-0.634
2026-06-11 18:07:03.617,3084763073,5617,2,1.01172,-0.29126,-0.08618,2.305,-1.443,-2.565
2026-06-11 18:07:03.817,3084763273,5817,1,0.97339,-0.02417,0.44019,1.893,7.061,2.008
2026-06-11 18:07:03.817,3084763273,5817,2,1.0061,-0.30518,-0.17505,-1.107,-3.466,1.069
2026-06-11 18:07:03.017,3084762473,6017,1,0.96875,-0.03369,0.42505,0.595,5.168,0.565
2026-06-11 18:07:03.017,3084762473,6017,2,0.98169,-0.28857,-0.15137,2.015,-2.473,1.71
2026-06-11 18:07:04.217,3084763673,6217,1,0.98535,-0.00586,0.4043,-3.168,2.817,-2.87
2026-06-11 18:07:04.217,3084763673,6217,2,0.98926,-0.29224,-0.20044,-5.29,0.962,-1.076
2026-06-11 18:07:04.450,3084763906,6450,1,1.0127,-0.02393,0.45728,-1.412,-4.527,-1.542
2026-06-11 18:07:04.450,3084763906,6450,2,1.02881,-0.25806,-0.20728,-5.221,-6.481,-2.534
2026-06-11 18:07:04.650,3084764106,6650,1,0.96899,0.02588,0.41797,11.183,1.275,-6.595
2026-06-11 18:07:04.650,3084764106,6650,2,0.96826,-0.27417,-0.17651,-7.679,-3.298,-4.115
2026-06-11 18:07:04.850,3084764306,6850,1,0.99243,0.03369,0.39038,1.802,9.496,-2.45
2026-06-11 18:07:04.850,3084764306,6850,2,0.97827,-0.27808,-0.20044,-3.092,3.29,0.275
2026-06-11 18:07:04.055,3084763511,7055,1,0.98633,0.00732,0.4082,-1.321,2.519,0.275
2026-06-11 18:07:04.055,3084763511,7055,2,1.00366,-0.27539,-0.17627,-1.908,4.092,0.435
2026-06-11 18:07:05.255,3084764711,7255,1,1.01733,0.01929,0.40039,-1.603,-2.176,2.954
2026-06-11 18:07:05.255,3084764711,7255,2,1.00146,-0.28345,-0.14917,0.397,6.908,2.008
2026-06-11 18:07:05.469,3084764925,7469,1,0.9729,0.00928,0.42261,-5.061,4.573,3.412
2026-06-11 18:07:05.469,3084764925,7469,2,0.99414,-0.29663,-0.13379,-11.458,-1.458,5.878
2026-06-11 18:07:05.678,3084765134,7678,1,0.96851,-0.00391,0.42358,-13.031,2.053,1.702
2026-06-11 18:07:05.678,3084765134,7678,2,0.98608,-0.3103,-0.18213,-2.687,-2.74,5.206
2026-06-11 18:07:05.878,3084765334,7878,1,1.01563,-0.02881,0.35181,-9.198,-0.611,-0.924
2026-06-11 18:07:05.878,3084765334,7878,2,0.98535,-0.3103,-0.1604,-4.55,8.748,2.527
2026-06-11 18:07:06.078,3084765534,8078,1,0.97998,-0.04004,0.41992,-5.481,5.794,0.229
2026-06-11 18:07:06.078,3084765534,8078,2,0.9502,-0.31836,-0.16357,0.908,-0.573,-0.847
2026-06-11 18:07:06.278,3084765734,8278,1,1.00977,-0.06812,0.3772,15.992,23.603,0.573
2026-06-11 18:07:06.278,3084765734,8278,2,1.03271,-0.29614,-0.20532,25.031,7.053,-14.206
2026-06-11 18:07:06.478,3084765934,8478,1,0.93115,-0.02222,0.50317,16.725,9.489,5.573
2026-06-11 18:07:06.478,3084765934,8478,2,0.9895,-0.31885,-0.11377,1.382,5.504,-6.924
2026-06-11 18:07:06.678,3084766134,8678,1,0.91797,-0.0022,0.51587,15.595,14.29,8.183
2026-06-11 18:07:06.678,3084766134,8678,2,1.02686,-0.25391,-0.07251,6.969,5.908,-7.008
2026-06-11 18:07:06.878,3084766334,8878,1,0.91577,-0.00049,0.56641,1.122,12.641,4.656
2026-06-11 18:07:06.878,3084766334,8878,2,1.01685,-0.26416,-0.09912,10.542,7.168,1.046
2026-06-11 18:07:07.083,3084766539,9083,1,0.89893,-0.03491,0.56836,-1.969,-8.45,-4.916
2026-06-11 18:07:07.083,3084766539,9083,2,0.98755,-0.27979,-0.0979,-15.817,-8.382,1.733
2026-06-11 18:07:07.283,3084766739,9283,1,0.948,0.00684,0.46899,-3.702,-24.534,-7.183
2026-06-11 18:07:07.283,3084766739,9283,2,1.00562,-0.29102,-0.13989,-22.0,-16.504,3.947
2026-06-11 18:07:07.483,3084766939,9483,1,1.02515,0.01611,0.38306,-6.008,-19.473,-2.046
2026-06-11 18:07:07.483,3084766939,9483,2,1.00879,-0.2998,-0.18066,11.794,-1.099,-2.145
2026-06-11 18:07:07.683,3084767139,9683,1,1.03833,-0.02002,0.38086,2.565,-10.504,-3.74
2026-06-11 18:07:07.683,3084767139,9683,2,1.021,-0.30493,-0.21167,15.557,8.771,-9.763
2026-06-11 18:07:07.883,3084767339,9883,1,0.96558,0.04077,0.40942,12.634,16.954,-3.168
2026-06-11 18:07:07.883,3084767339,9883,2,0.95752,-0.24854,-0.28809,-4.626,-7.718,-7.985
2026-06-11 18:07:08.104,3084767560,10104,1,0.9541,0.3103,0.30444,21.45,-13.985,3.252
2026-06-11 18:07:08.104,3084767560,10104,2,1.04321,-0.06055,-0.29761,17.008,-8.252,-3.26
2026-06-11 18:07:08.304,3084767760,10304,1,1.01685,-0.02588,0.2688,14.13,-1.885,-6.511
2026-06-11 18:07:08.304,3084767760,10304,2,0.98315,-0.20483,-0.22388,-3.527,-6.557,-11.168
2026-06-11 18:07:08.504,3084767960,10504,1,1.05835,0.10352,0.28809,-11.802,6.038,-4.435
2026-06-11 18:07:08.504,3084767960,10504,2,1.02002,-0.1416,-0.26685,1.305,12.702,-11.847
2026-06-11 18:07:08.704,3084768160,10704,1,1.01807,0.07446,0.33325,0.534,13.527,-8.649
2026-06-11 18:07:08.704,3084768160,10704,2,1.08301,-0.13184,-0.30225,28.756,5.038,-5.145
2026-06-11 18:07:08.904,3084768360,10904,1,0.99194,0.41382,0.28442,6.099,25.344,-9.611
2026-06-11 18:07:08.904,3084768360,10904,2,0.99072,-0.32837,-0.17188,-0.878,-0.885,0.267
2026-06-11 18:07:14.091,3084773547,16091,1,0.99365,-0.05127,0.38696,-0.817,1.786,-0.26
2026-06-11 18:07:14.091,3084773547,16091,2,0.9856,-0.31885,-0.15576,1.069,1.756,-0.58
2026-06-11 18:07:14.291,3084773747,16291,1,0.98975,-0.04688,0.39331,-0.351,1.534,-0.542
2026-06-11 18:07:14.291,3084773747,16291,2,0.9812,-0.31543,-0.15698,1.221,1.412,-0.977
2026-06-11 18:07:14.491,3084773947,16491,1,0.98413,-0.04297,0.39136,0.947,1.748,-0.405
2026-06-11 18:07:14.491,3084773947,16491,2,0.9917,-0.31885,-0.16504,-0.153,1.992,-1.527
2026-06-11 18:07:14.691,3084774147,16691,1,0.98193,-0.03833,0.39624,-0.443,0.634,-0.29
2026-06-11 18:07:14.691,3084774147,16691,2,0.98535,-0.31665,-0.15283,-0.389,0.42,-0.42
2026-06-11 18:07:14.891,3084774347,16891,1,0.9939,-0.04614,0.40356,-3.466,2.908,3.359
2026-06-11 18:07:14.891,3084774347,16891,2,0.97974,-0.30859,-0.17017,2.321,-0.618,0.084
2026-06-11 18:07:15.174,3084774630,17174,1,1.00977,-0.05005,0.36279,8.046,4.771,-0.702
2026-06-11 18:07:15.174,3084774630,17174,2,0.98975,-0.32983,-0.14941,14.16,6.672,-4.931
2026-06-11 18:07:15.374,3084774830,17374,1,0.96338,-0.01929,0.41724,6.107,-4.244,-4.26
2026-06-11 18:07:15.374,3084774830,17374,2,0.99805,-0.33252,-0.1687,9.809,0.771,-6.13
2026-06-11 18:07:15.574,3084775030,17574,1,0.99487,-0.00562,0.33472,14.053,-1.26,10.305
2026-06-11 18:07:15.574,3084775030,17574,2,0.97583,-0.31226,-0.17725,21.718,-5.206,-5.962
2026-06-11 18:07:15.774,3084775230,17774,1,0.99414,-0.02173,0.38037,14.458,-0.878,7.176
2026-06-11 18:07:15.774,3084775230,17774,2,0.98853,-0.29712,-0.1709,14.771,-1.206,-3.695
2026-06-11 18:07:15.974,3084775430,17974,1,1.01318,-0.0332,0.36938,11.832,1.595,4.489
2026-06-11 18:07:15.974,3084775430,17974,2,1.00952,-0.29956,-0.18237,5.893,5.939,-4.244
2026-06-11 18:07:16.188,3084775644,18188,1,0.98242,-0.03516,0.44873,5.16,-105.962,-5.908
2026-06-11 18:07:16.188,3084775644,18188,2,0.97754,-0.28198,-0.28467,2.649,-11.679,-6.618
2026-06-11 18:07:16.388,3084775844,18388,1,0.9541,-0.08569,0.09375,13.924,-37.565,5.267
2026-06-11 18:07:16.388,3084775844,18388,2,0.98608,-0.26245,-0.21851,10.496,5.588,-5.115
2026-06-11 18:07:16.588,3084776044,18588,1,1.04199,0.03931,-0.05298,4.557,-50.466,-15.466
2026-06-11 18:07:16.588,3084776044,18588,2,0.98657,-0.25732,-0.22583,-2.084,1.748,-2.267
2026-06-11 18:07:16.788,3084776244,18788,1,1.04419,0.08521,-0.17603,43.313,-8.29,-31.435
2026-06-11 18:07:16.788,3084776244,18788,2,1.01196,-0.28027,-0.1792,-14.664,-3.351,0.084
2026-06-11 18:07:16.988,3084776444,18988,1,1.03198,0.14429,-0.06226,49.641,-13.092,12.885
2026-06-11 18:07:16.988,3084776444,18988,2,0.97241,-0.23096,-0.15308,-10.74,-12.664,1.313
2026-06-11 18:07:17.188,3084776644,19188,1,0.52441,-0.31055,-0.67603,21.595,-23.58,-18.366
2026-06-11 18:07:17.188,3084776644,19188,2,0.92383,-0.30444,-0.17529,-35.397,-15.588,3.046
2026-06-11 18:07:17.388,3084776844,19388,1,0.92041,-0.04956,-0.40942,-95.687,104.305,67.313
2026-06-11 18:07:17.388,3084776844,19388,2,0.94897,-0.28906,-0.26221,-39.588,-7.053,8.473
2026-06-11 18:07:17.588,3084777044,19588,1,0.91016,-0.13599,0.07251,-152.847,85.0,16.427
2026-06-11 18:07:17.588,3084777044,19588,2,0.96704,-0.31909,-0.09033,-61.611,-21.061,3.588
2026-06-11 18:07:17.788,3084777244,19788,1,0.97632,-0.06201,0.21777,18.374,-17.748,11.794
2026-06-11 18:07:17.788,3084777244,19788,2,0.94067,-0.29419,-0.31958,-2.237,3.542,5.756
2026-06-11 18:07:17.016,3084776472,20016,1,1.01538,-0.12817,0.18286,-11.061,1.542,-1.115
2026-06-11 18:07:17.016,3084776472,20016,2,0.95996,-0.28857,-0.27051,-26.29,4.916,4.443
2026-06-11 18:07:18.216,3084777672,20216,1,0.83496,-0.26831,0.28491,-25.931,38.771,9.687
2026-06-11 18:07:18.216,3084777672,20216,2,0.9563,-0.29077,-0.25586,-6.687,4.939,0.901
2026-06-11 18:07:18.416,3084777872,20416,1,1.01685,-0.18579,0.37793,-6.313,-11.809,0.542
2026-06-11 18:07:18.416,3084777872,20416,2,0.97168,-0.18677,-0.30811,7.321,13.618,1.328
2026-06-11 18:07:18.627,3084778083,20627,1,0.95459,-0.07153,0.5061,84.023,44.122,3.443
2026-06-11 18:07:18.627,3084778083,20627,2,0.96802,-0.28467,-0.25122,25.382,11.351,-0.336
2026-06-11 18:07:18.827,3084778283,20827,1,0.83862,-0.09595,0.66699,36.443,4.771,11.74
2026-06-11 18:07:18.827,3084778283,20827,2,0.97192,-0.30859,-0.21606,-4.473,-1.473,-1.267
2026-06-11 18:07:18.027,3084777483,21027,1,0.83081,-0.08179,0.66553,-8.412,-29.336,6.0
2026-06-11 18:07:18.027,3084777483,21027,2,0.97168,-0.2959,-0.18237,46.198,-12.511,-13.397
2026-06-11 18:07:19.227,3084778683,21227,1,0.98242,-0.12915,0.48364,25.649,4.061,6.344
2026-06-11 18:07:19.227,3084778683,21227,2,0.98242,-0.26196,-0.25049,-10.282,-17.061,-8.87
2026-06-11 18:07:19.427,3084778883,21427,1,0.95874,-0.11719,0.427,13.031,-8.427,-0.809
2026-06-11 18:07:19.427,3084778883,21427,2,1.00684,-0.27661,-0.28882,17.443,-1.313,-13.221
2026-06-11 18:07:19.627,3084779083,21627,1,0.95874,-0.08716,0.44971,18.092,-1.763,8.359
2026-06-11 18:07:19.627,3084779083,21627,2,0.96802,-0.24023,-0.28784,17.298,-11.084,-8.771
2026-06-11 18:07:19.827,3084779283,21827,1,1.00488,-0.12549,0.36841,22.626,-1.26,2.336
2026-06-11 18:07:19.827,3084779283,21827,2,0.9519,-0.2168,-0.29126,15.168,5.71,-11.504
2026-06-11 18:07:19.027,3084778483,22027,1,0.97534,-0.07153,0.39941,12.168,2.763,0.42
2026-06-11 18:07:19.027,3084778483,22027,2,0.97681,-0.22046,-0.25757,15.046,-0.26,-9.321
2026-06-11 18:07:20.227,3084779683,22227,1,0.99927,-0.07544,0.40894,12.748,3.473,1.763
2026-06-11 18:07:20.227,3084779683,22227,2,0.74634,-0.26392,-0.29614,17.908,4.611,-16.55
2026-06-11 18:07:20.427,3084779883,22427,1,0.94678,-0.06128,0.35376,-9.649,-1.931,-2.847
2026-06-11 18:07:20.427,3084779883,22427,2,1.10205,-0.18481,-0.10547,-4.916,10.031,-5.321
2026-06-11 18:07:20.627,3084780083,22627,1,1.06836,0.02661,0.30249,1.84,3.603,3.84
2026-06-11 18:07:20.627,3084780083,22627,2,1.02905,-0.06274,-0.0752,27.611,43.305,-2.473
2026-06-11 18:07:20.827,3084780283,22827,1,0.96313,-0.0979,0.41943,-0.931,7.756,2.603
2026-06-11 18:07:20.827,3084780283,22827,2,1.03955,-0.1626,-0.0022,-57.695,7.763,-13.725
2026-06-11 18:07:20.027,3084779483,23027,1,0.97314,-0.07202,0.47412,-4.473,-4.374,3.824
2026-06-11 18:07:20.027,3084779483,23027,2,1.00562,-0.23242,-0.26538,125.328,24.595,-20.809
2026-06-11 18:07:21.285,3084780741,23285,1,0.97119,-0.073,0.40674,-3.313,-5.015,-1.58
2026-06-11 18:07:21.285,3084780741,23285,2,0.92871,-0.27368,-0.18018,47.527,-20.557,-0.168
2026-06-11 18:07:21.485,3084780941,23485,1,1.02686,-0.04761,0.39087,-21.863,-9.779,-1.58
2026-06-11 18:07:21.485,3084780941,23485,2,1.05322,-0.43628,-0.0957,17.42,22.366,17.252
2026-06-11 18:07:21.685,3084781141,23685,1,1.00342,-0.05762,0.3584,-28.763,-14.344,-4.305
2026-06-11 18:07:21.685,3084781141,23685,2,0.99243,-0.16089,-0.20288,-92.45,11.634,-20.206
2026-06-11 18:07:21.885,3084781341,23885,1,0.93555,-0.14697,0.33521,-18.176,-9.198,-6.458
2026-06-11 18:07:21.885,3084781341,23885,2,1.01172,-0.15063,-0.43408,-211.87,-87.885,20.214
2026-06-11 18:07:22.085,3084781541,24085,1,1.03076,-0.09766,0.32251,-29.344,7.603,-8.588
2026-06-11 18:07:22.085,3084781541,24085,2,0.79492,-0.21606,-0.30713,-35.603,-44.756,84.603
2026-06-11 18:07:22.285,3084781741,24285,1,0.96558,-0.0874,0.41553,-13.115,-4.29,-5.153
2026-06-11 18:07:22.285,3084781741,24285,2,0.82446,-0.29517,-0.35718,-3.687,-23.046,-7.328
2026-06-11 18:07:22.485,3084781941,24485,1,1.01172,-0.09814,0.44946,15.0,-34.427,5.824
2026-06-11 18:07:22.485,3084781941,24485,2,0.66064,-0.25879,-0.58203,14.275,38.84,1.45
2026-06-11 18:07:22.685,3084782141,24685,1,1.01929,-0.01782,-0.30762,148.244,-135.489,14.481
2026-06-11 18:07:22.685,3084782141,24685,2,-2.0,0.73462,-2.0,250.13,250.13,-33.107
2026-06-11 18:07:22.885,3084782341,24885,1,1.05078,-0.11572,0.19897,8.725,51.74,-1.427
2026-06-11 18:07:22.885,3084782341,24885,2,0.57422,-0.40186,-0.31543,176.191,250.13,-12.366
2026-06-11 18:07:23.092,3084782548,25092,1,1.02612,-0.0918,0.23511,7.725,8.672,-2.412
2026-06-11 18:07:23.092,3084782548,25092,2,1.02075,-0.43994,-0.40332,8.046,41.641,9.824
2026-06-11 18:07:23.292,3084782748,25292,1,1.01831,-0.12915,0.2334,13.618,32.458,1.145
2026-06-11 18:07:23.292,3084782748,25292,2,0.96631,-0.40015,-0.16553,15.031,9.084,2.237
2026-06-11 18:07:23.492,3084782948,25492,1,0.94873,-0.00439,0.38403,29.382,18.855,8.397
2026-06-11 18:07:23.492,3084782948,25492,2,0.97729,-0.36304,-0.10498,-11.267,-0.626,0.992
2026-06-11 18:07:23.692,3084783148,25692,1,0.96558,-0.04883,0.42871,27.855,14.405,7.466
2026-06-11 18:07:23.692,3084783148,25692,2,0.93872,-0.31104,-0.06934,10.366,8.504,-17.275
2026-06-11 18:07:23.892,3084783348,25892,1,0.92139,-0.02637,0.46265,7.687,-8.901,3.168
2026-06-11 18:07:23.892,3084783348,25892,2,1.01563,-0.2915,-0.04077,-13.878,29.962,-30.908
2026-06-11 18:07:24.092,3084783548,26092,1,0.99854,-0.05933,0.37305,-1.321,14.328,5.13
2026-06-11 18:07:24.092,3084783548,26092,2,0.87524,-0.38159,0.01929,30.397,61.58,27.443
2026-06-11 18:07:24.296,3084783752,26296,1,0.98096,-0.10498,0.43213,0.489,7.359,0.099
2026-06-11 18:07:24.296,3084783752,26296,2,0.94458,-0.33154,0.15479,19.206,21.275,7.985
2026-06-11 18:07:24.631,3084784087,26631,1,0.96729,-0.07202,0.44067,-10.748,-5.824,-9.168
2026-06-11 18:07:24.631,3084784087,26631,2,1.00903,-0.24683,0.14819,2.321,-4.855,-26.74
2026-06-11 18:07:24.846,3084784302,26846,1,0.979,-0.06543,0.40869,-7.427,-23.603,-1.771
2026-06-11 18:07:24.846,3084784302,26846,2,1.12329,-0.25562,0.17456,13.481,-74.084,-1.74
2026-06-11 18:07:24.046,3084783502,27046,1,0.99756,-0.0625,0.375,0.84,6.802,1.931
2026-06-11 18:07:24.046,3084783502,27046,2,1.11719,-0.22363,-0.08667,-6.435,-13.74,-18.237
2026-06-11 18:07:25.246,3084784702,27246,1,0.98389,-0.06665,0.41211,7.588,14.832,2.481
2026-06-11 18:07:25.246,3084784702,27246,2,1.07056,-0.07446,-0.2041,16.534,-48.763,4.443
2026-06-11 18:07:25.469,3084784925,27469,1,1.01343,-0.09399,0.38257,12.351,0.641,4.573
2026-06-11 18:07:25.469,3084784925,27469,2,1.01807,-0.2395,-0.24756,-27.366,-49.58,-16.595
2026-06-11 18:07:25.669,3084785125,27669,1,0.88281,-0.09058,0.52466,9.863,-44.168,15.534
2026-06-11 18:07:25.669,3084785125,27669,2,0.88501,0.06055,-0.51978,-69.893,-47.611,-21.13
2026-06-11 18:07:25.869,3084785325,27869,1,1.0437,-0.06445,0.41699,-21.046,-53.664,5.0
2026-06-11 18:07:25.869,3084785325,27869,2,0.55933,-0.02686,-0.2771,145.863,127.794,93.817
2026-06-11 18:07:26.069,3084785525,28069,1,0.96655,-0.1272,0.41406,-3.092,-6.557,0.511
2026-06-11 18:07:26.069,3084785525,28069,2,1.14185,-0.15088,0.09595,79.313,157.977,-25.786
2026-06-11 18:07:26.269,3084785725,28269,1,1.06665,-0.11108,0.37988,-7.153,-34.962,2.038
2026-06-11 18:07:26.269,3084785725,28269,2,1.12402,0.08789,,38.45,-15.351,46.519
2026-06-11 18:07:26.469,3084785925,28469,1,0.96973,-0.11182,0.33398,-6.802,-7.313,-19.443
2026-06-11 18:07:26.469,3084785925,28469,2,0.90112,0.03052,0.09692,3.29,6.771,-0.137
2026-06-11 18:07:26.669,3084786125,28669,1,1.00562,-0.07007,0.34814,-21.053,5.458,-31.58
2026-06-11 18:07:26.669,3084786125,28669,2,1.03589,0.00171,0.01538,14.939,-5.26,24.313
2026-06-11 18:07:26.869,3084786325,28869,1,0.96289,0.0769,0.43091,1.855,8.061,-4.626
2026-06-11 18:07:26.869,3084786325,28869,2,1.07886,-0.14917,0.05396,-38.794,-10.244,-31.649
2026-06-11 18:07:27.069,3084786525,29069,1,1.01318,0.03418,0.38037,-16.748,-10.397,6.16
2026-06-11 18:07:27.069,3084786525,29069,2,1.00269,-0.05542,0.00293,17.634,3.443,-7.786
2026-06-11 18:07:27.269,3084786725,29269,1,0.96094,-0.06567,0.36792,-13.718,-0.092,15.977
2026-06-11 18:07:27.269,3084786725,29269,2,1.09131,-0.11694,0.06006,32.351,-12.695,8.641
2026-06-11 18:07:27.469,3084786925,29469,1,1.0293,-0.08667,0.33252,30.901,-24.511,16.069
2026-06-11 18:07:27.469,3084786925,29469,2,1.06958,-0.05054,0.04883,40.031,-9.565,-7.519
2026-06-11 18:07:27.669,3084787125,29669,1,1.03345,-0.0708,0.19897,98.87,-12.16,26.763
2026-06-11 18:07:27.669,3084787125,29669,2,1.07397,0.02881,-0.06396,85.427,13.824,-28.389
2026-06-11 18:07:27.869,3084787325,29869,1,1.00879,-0.12695,0.29346,65.466,-4.359,13.061
2026-06-11 18:07:27.869,3084787325,29869,2,1.08911,0.08716,-0.07202,27.038,20.13,-4.947
2026-06-11 18:07:28.070,3084787526,30070,1,1.01025,-0.03101,0.28247,29.756,3.069,-4.336
2026-06-11 18:07:28.070,3084787526,30070,2,1.09692,0.0564,0.12769,34.26,-10.16,5.466
2026-06-11 18:07:28.270,3084787726,30270,1,0.98877,0.00391,0.3606,2.748,32.931,1.954
2026-06-11 18:07:28.270,3084787726,30270,2,1.07178,0.0332,0.16455,-22.809,21.511,4.893
2026-06-11 18:07:28.470,3084787926,30470,1,1.00415,-0.08545,0.39722,-31.351,3.076,-5.74
2026-06-11 18:07:28.470,3084787926,30470,2,1.0918,0.03369,0.18481,-11.267,-6.954,12.45
2026-06-11 18:07:28.679,3084788135,30679,1,1.00024,-0.07104,0.35645,-24.84,-0.214,-5.779
2026-06-11 18:07:28.679,3084788135,30679,2,1.13525,-0.12769,0.16309,-31.092,-18.046,7.42
2026-06-11 18:07:28.879,3084788335,30879,1,0.88574,-0.19922,0.36206,7.115,8.565,-3.504
2026-06-11 18:07:28.879,3084788335,30879,2,1.05176,-0.10425,0.052,-37.611,9.26,-1.565
2026-06-11 18:07:29.079,3084788535,31079,1,0.87207,-0.12964,0.7085,-87.878,25.137,-38.687
2026-06-11 18:07:29.079,3084788535,31079,2,1.30127,-0.82617,-0.20093,57.855,3.924,-8.344
2026-06-11 18:07:29.279,3084788735,31279,1,0.86963,-0.02954,0.66748,-33.695,-1.55,-23.206
2026-06-11 18:07:29.279,3084788735,31279,2,1.04932,-0.05151,0.05737,-29.015,5.534,9.55
2026-06-11 18:07:29.479,3084788935,31479,1,0.9126,-0.0874,0.5957,-42.71,-2.687,-18.466
2026-06-11 18:07:29.479,3084788935,31479,2,1.0,-0.08301,0.00049,-40.855,-19.29,5.42
2026-06-11 18:07:29.679,3084789135,31679,1,0.9043,-0.32324,0.58472,19.42,9.092,-1.908
2026-06-11 18:07:29.679,3084789135,31679,2,1.06982,-0.04468,-0.13525,-42.214,-10.534,-6.58
2026-06-11 18:07:29.879,3084789335,31879,1,0.86108,0.03174,0.64087,35.458,25.771,7.443
2026-06-11 18:07:29.879,3084789335,31879,2,1.07422,-0.02271,-0.17261,-2.817,4.267,7.878
2026-06-11 18:07:30.079,3084789535,32079,1,0.95166,-0.02417,0.63672,38.748,5.328,17.313
2026-06-11 18:07:30.079,3084789535,32079,2,1.0083,-0.06104,-0.19995,12.336,-12.519,1.527
2026-06-11 18:07:30.279,3084789735,32279,1,0.90723,-0.15747,0.58667,-1.351,2.977,0.664
2026-06-11 18:07:30.279,3084789735,32279,2,1.05005,-0.05762,-0.24023,-32.015,-3.046,7.748
2026-06-11 18:07:30.479,3084789935,32479,1,0.8606,-0.17139,0.63281,0.489,-12.855,2.13
2026-06-11 18:07:30.479,3084789935,32479,2,1.0564,-0.0625,-0.18115,9.481,26.031,5.084
2026-06-11 18:07:30.679,3084790135,32679,1,0.89331,-0.13672,0.58179,9.901,-3.969,18.229
2026-06-11 18:07:30.679,3084790135,32679,2,1.10107,-0.07373,-0.23633,65.099,32.672,3.855
2026-06-11 18:07:30.879,3084790335,32879,1,0.88916,-0.0896,0.59399,-1.267,4.748,-1.588
2026-06-11 18:07:30.879,3084790335,32879,2,1.0437,-0.1311,-0.02734,-5.305,-6.191,0.885
2026-06-11 18:07:31.079,3084790535,33079,1,0.8479,-0.06494,0.62671,-14.13,16.359,-4.672
2026-06-11 18:07:31.079,3084790535,33079,2,0.98901,-0.07788,0.02612,-10.718,-30.794,7.183
2026-06-11 18:07:31.279,3084790735,33279,1,0.88599,-0.06055,0.60986,-9.847,-1.206,-8.84
2026-06-11 18:07:31.279,3084790735,33279,2,1.06812,-0.15479,0.06421,-54.809,-25.55,60.092
2026-06-11 18:07:31.517,3084790973,33517,1,0.99268,-0.05981,0.48486,13.382,16.962,7.985
2026-06-11 18:07:31.517,3084790973,33517,2,0.8606,-0.15479,-0.49365,-1.664,-6.252,-0.313
2026-06-11 18:07:31.786,3084791242,33786,1,0.96167,-0.1167,0.47314,13.573,-7.939,10.405
2026-06-11 18:07:31.786,3084791242,33786,2,0.89941,-0.16821,-0.42847,11.275,2.198,-7.947
2026-06-11 18:07:31.986,3084791442,33986,1,0.95361,-0.10327,0.47681,7.786,-2.015,6.237
2026-06-11 18:07:31.986,3084791442,33986,2,0.90698,-0.16553,-0.42725,0.992,1.435,0.519
2026-06-11 18:07:32.186,3084791642,34186,1,0.95483,-0.12744,0.44775,0.267,2.45,-0.13
2026-06-11 18:07:32.186,3084791642,34186,2,0.91138,-0.16406,-0.41724,5.733,8.687,-2.412
2026-06-11 18:07:32.399,3084791855,34398,1,0.93896,-0.10522,0.49414,-1.924,1.649,-2.053
2026-06-11 18:07:32.399,3084791855,34398,2,0.91016,-0.14771,-0.42578,-6.107,1.107,2.527
2026-06-11 18:07:32.598,3084792054,34598,1,0.95483,-0.09619,0.47339,-4.908,-0.084,-5.855
2026-06-11 18:07:32.598,3084792054,34598,2,0.92139,-0.17578,-0.43286,-12.786,-0.153,5.954
2026-06-11 18:07:32.798,3084792254,34798,1,0.95459,-0.09253,0.45117,4.847,8.427,-3.13
2026-06-11 18:07:32.798,3084792254,34798,2,0.96924,-0.22021,-0.39185,-9.656,7.405,-1.023
2026-06-11 18:07:32.998,3084792454,34998,1,0.91064,-0.05176,0.52686,-2.603,3.763,-1.511
2026-06-11 18:07:32.998,3084792454,34998,2,0.93091,-0.15112,-0.37695,4.359,3.802,0.26
2026-06-11 18:07:33.198,3084792654,35198,1,0.93848,-0.07617,0.50049,-3.672,1.756,2.153
2026-06-11 18:07:33.198,3084792654,35198,2,0.93359,-0.13965,-0.39941,-11.435,-0.412,4.779
2026-06-11 18:07:33.398,3084792854,35398,1,0.94287,-0.08813,0.49536,-3.824,1.008,-2.282
2026-06-11 18:07:33.398,3084792854,35398,2,0.92847,-0.15576,-0.39697,-4.534,2.656,1.336
2026-06-11 18:07:33.598,3084793054,35598,1,0.93677,-0.07764,0.49487,-2.55,0.687,-2.328
2026-06-11 18:07:33.598,3084793054,35598,2,0.91724,-0.17554,-0.39307,-6.916,-2.969,5.893
2026-06-11 18:07:33.798,3084793254,35798,1,0.9519,-0.0874,0.48828,-6.634,-0.122,-1.382
2026-06-11 18:07:33.798,3084793254,35798,2,0.94043,-0.19458,-0.36108,-1.076,-2.053,1.939
2026-06-11 18:07:33.998,3084793454,35998,1,0.96655,-0.09375,0.48169,3.313,-0.282,2.855
2026-06-11 18:07:33.998,3084793454,35998,2,0.92529,-0.16675,-0.40356,0.16,1.107,-1.634
2026-06-11 18:07:34.198,3084793654,36198,1,0.94629,-0.08521,0.47852,2.725,3.84,3.298
2026-06-11 18:07:34.198,3084793654,36198,2,0.92676,-0.17212,-0.3999,6.206,4.13,-2.221
2026-06-11 18:07:34.398,3084793854,36398,1,0.95532,-0.09106,0.48364,3.664,2.359,2.099
2026-06-11 18:07:34.398,3084793854,36398,2,0.9209,-0.16382,-0.41357,-1.328,1.015,1.565
2026-06-11 18:07:34.601,3084794057,36601,1,0.94067,-0.19653,0.46973,-12.977,11.389,-14.855
2026-06-11 18:07:34.601,3084794057,36601,2,0.90332,-0.22754,-0.42773,-14.382,4.443,2.244
2026-06-11 18:07:34.801,3084794257,36801,1,0.92163,-0.07568,0.51855,10.374,1.252,18.069
2026-06-11 18:07:34.801,3084794257,36801,2,0.93018,-0.17554,-0.35181,10.191,-0.031,-2.099
2026-06-11 18:07:34.008,3084793464,37008,1,0.9458,-0.11279,0.49463,9.145,3.74,6.221
2026-06-11 18:07:34.008,3084793464,37008,2,0.94751,-0.14478,-0.37744,14.687,8.779,-10.321
2026-06-11 18:07:35.208,3084794664,37208,1,0.93164,-0.10205,0.50244,10.45,-1.389,3.832
2026-06-11 18:07:35.208,3084794664,37208,2,0.97388,-0.16528,-0.32959,8.481,1.794,-8.252
2026-06-11 18:07:35.408,3084794864,37408,1,0.93408,-0.09326,0.50146,9.336,2.038,-1.756
2026-06-11 18:07:35.408,3084794864,37408,2,0.93799,-0.12964,-0.3501,6.962,2.244,-7.366
2026-06-11 18:07:35.608,3084795064,37608,1,0.94458,-0.04175,0.50952,6.847,2.58,-1.947
2026-06-11 18:07:35.608,3084795064,37608,2,0.94507,-0.11377,-0.36597,1.435,-0.031,-2.71
2026-06-11 18:07:35.808,3084795264,37808,1,0.93555,-0.04834,0.5127,-6.321,0.435,-2.771
2026-06-11 18:07:35.808,3084795264,37808,2,0.94678,-0.13599,-0.37012,-3.153,-5.328,4.496
2026-06-11 18:07:35.008,3084794464,38008,1,0.93555,-0.05737,0.50635,-5.931,-1.321,-0.221
2026-06-11 18:07:35.008,3084794464,38008,2,0.93042,-0.1394,-0.39014,-6.779,-7.176,4.939
2026-06-11 18:07:36.263,3084795719,38263,1,0.97949,-0.11426,0.43921,-14.687,-3.237,-6.397
2026-06-11 18:07:36.263,3084795719,38263,2,0.91797,-0.16577,-0.44165,-11.038,-4.061,6.626
2026-06-11 18:07:36.463,3084795919,38463,1,0.95923,-0.07446,0.45166,-2.458,-0.26,0.565
2026-06-11 18:07:36.463,3084795919,38463,2,0.92749,-0.15894,-0.4043,1.168,-0.031,-0.412
2026-06-11 18:07:36.663,3084796119,38663,1,0.96899,-0.08618,0.44946,-8.687,5.389,-2.855
2026-06-11 18:07:36.663,3084796119,38663,2,0.91162,-0.17212,-0.42285,-10.206,5.947,4.992
2026-06-11 18:07:36.919,3084796375,38919,1,0.95435,-0.07886,0.45752,3.672,7.313,1.641
2026-06-11 18:07:36.919,3084796375,38919,2,0.90283,-0.15503,-0.43115,-3.71,-2.466,4.992
2026-06-11 18:07:37.200,3084796656,39200,1,0.96118,-0.07495,0.47485,-9.427,-4.985,1.947
2026-06-11 18:07:37.200,3084796656,39200,2,0.9231,-0.16479,-0.3833,-7.84,-5.061,4.809
2026-06-11 18:07:37.412,3084796868,39412,1,1.00854,-0.08545,0.40942,-6.634,-2.412,-2.092
2026-06-11 18:07:37.412,3084796868,39412,2,0.91113,-0.16553,-0.46973,-1.046,1.779,1.137
2026-06-11 18:07:37.612,3084797068,39612,1,0.96143,-0.08496,0.44019,1.779,0.985,-0.718
2026-06-11 18:07:37.612,3084797068,39612,2,0.89868,-0.18115,-0.42651,-5.962,0.542,2.977
2026-06-11 18:07:37.812,3084797268,39812,1,0.97681,-0.0918,0.43896,-1.962,4.779,-1.282
2026-06-11 18:07:37.812,3084797268,39812,2,0.90112,-0.1709,-0.45825,2.321,2.84,-3.885
2026-06-11 18:07:37.012,3084796468,40012,1,0.97607,-0.08716,0.41943,0.405,-5.328,0.626
2026-06-11 18:07:37.012,3084796468,40012,2,0.90454,-0.16895,-0.45313,-2.771,-2.038,-1.504
2026-06-11 18:07:38.212,3084797668,40212,1,0.97607,-0.10181,0.41846,14.214,1.298,7.275
2026-06-11 18:07:38.212,3084797668,40212,2,0.91943,-0.16455,-0.42578,2.405,8.718,-6.015
2026-06-11 18:07:38.412,3084797868,40412,1,0.97852,-0.09814,0.42285,5.458,2.237,2.137
2026-06-11 18:07:38.412,3084797868,40412,2,0.91479,-0.15894,-0.42407,14.015,7.466,-8.511
2026-06-11 18:07:38.612,3084798068,40612,1,0.96655,-0.09961,0.44409,12.023,7.74,2.053
2026-06-11 18:07:38.612,3084798068,40612,2,0.91895,-0.15234,-0.4248,9.695,3.809,-7.198
2026-06-11 18:07:38.812,3084798268,40812,1,0.96265,-0.08032,0.44604,7.008,4.534,-0.588
2026-06-11 18:07:38.812,3084798268,40812,2,0.91943,-0.15869,-0.41211,11.939,3.656,-7.695
2026-06-11 18:07:38.012,3084797468,41012,1,0.94897,-0.07837,0.45483,9.183,4.977,0.74
2026-06-11 18:07:38.012,3084797468,41012,2,0.92358,-0.13989,-0.39478,6.733,1.115,-4.855
2026-06-11 18:07:39.221,3084798677,41221,1,0.96216,-0.01563,0.45605,-1.634,0.786,0.519
2026-06-11 18:07:39.221,3084798677,41221,2,0.93481,-0.10938,-0.41357,6.26,-6.183,-0.13
2026-06-11 18:07:39.421,3084798877,41421,1,0.97046,-0.04492,0.44385,-3.855,1.069,1.672
2026-06-11 18:07:39.421,3084798877,41421,2,0.93188,-0.11035,-0.42676,-7.985,2.206,4.198
2026-06-11 18:07:39.621,3084799077,41621,1,0.97021,-0.073,0.4624,-4.29,4.527,-6.374
2026-06-11 18:07:39.621,3084799077,41621,2,0.92188,-0.1272,-0.40356,-1.466,8.679,-2.275
2026-06-11 18:07:39.871,3084799327,41871,1,0.9436,-0.03711,0.47217,-2.71,2.275,-0.42
2026-06-11 18:07:39.871,3084799327,41871,2,0.92944,-0.13989,-0.40015,-7.527,-2.29,5.229
2026-06-11 18:07:40.071,3084799527,42071,1,0.94287,-0.07593,0.48608,-8.107,2.603,4.534
2026-06-11 18:07:40.071,3084799527,42071,2,0.90942,-0.13428,-0.40747,-1.771,-2.45,4.031
2026-06-11 18:07:40.271,3084799727,42271,1,0.95996,-0.09595,0.46997,-0.611,1.756,2.336
2026-06-11 18:07:40.271,3084799727,42271,2,0.91357,-0.14917,-0.41284,-2.588,-0.023,1.191
2026-06-11 18:07:40.499,3084799955,42498,1,0.95288,-0.0813,0.47095,-1.702,0.015,2.206
2026-06-11 18:07:40.499,3084799955,42498,2,0.93579,-0.16553,-0.40723,-0.573,1.511,-1.473
2026-06-11 18:07:40.698,3084800154,42698,1,1.02441,-0.12329,0.41089,-4.893,14.695,-0.74
2026-06-11 18:07:40.698,3084800154,42698,2,0.97803,-0.19727,-0.37085,12.664,21.908,-1.779
2026-06-11 18:07:40.898,3084800354,42898,1,0.97827,-0.12476,0.45435,8.244,53.145,-0.252
2026-06-11 18:07:40.898,3084800354,42898,2,1.05054,-0.20703,-0.24927,35.901,79.099,-6.809
2026-06-11 18:07:41.098,3084800554,43098,1,0.58252,-0.01221,0.69116,21.26,109.901,0.977
2026-06-11 18:07:41.098,3084800554,43098,2,0.93188,-0.12329,0.06787,26.977,93.58,-2.229
2026-06-11 18:07:41.298,3084800754,43298,1,0.38721,-0.02393,0.9104,11.267,105.504,-0.969
2026-06-11 18:07:41.298,3084800754,43298,2,0.99292,-0.13623,0.42944,4.969,75.702,-5.015
2026-06-11 18:07:41.498,3084800954,43498,1,0.13306,-0.0105,1.20508,0.038,37.695,-0.153
2026-06-11 18:07:41.498,3084800954,43498,2,0.96265,-0.15283,0.54834,9.534,17.992,-5.832
2026-06-11 18:07:41.703,3084801159,43703,1,0.06567,0.02319,1.18677,4.198,2.863,4.389
2026-06-11 18:07:41.703,3084801159,43703,2,0.92773,-0.13721,0.5918,0.252,-9.237,1.496
2026-06-11 18:07:41.903,3084801359,43903,1,0.16504,0.00806,1.01904,-1.634,-2.916,4.076
2026-06-11 18:07:41.903,3084801359,43903,2,1.00537,-0.1311,0.50903,20.779,-0.786,-0.893
2026-06-11 18:07:42.103,3084801559,44103,1,0.1106,0.11304,1.12769,2.122,-14.992,-8.061
2026-06-11 18:07:42.103,3084801559,44103,2,0.84106,-0.46143,0.39673,-24.55,-50.962,5.29
2026-06-11 18:07:42.314,3084801770,44314,1,0.29346,-0.21875,0.98096,7.458,-51.916,14.985
2026-06-11 18:07:42.314,3084801770,44314,2,0.88599,-0.00244,0.23657,2.802,7.344,-2.718
2026-06-11 18:07:42.514,3084801970,44514,1,0.25342,0.05933,0.56445,0.931,8.038,-6.969
2026-06-11 18:07:42.514,3084801970,44514,2,0.72949,-0.2207,0.30273,-4.519,-11.565,10.122
2026-06-11 18:07:42.714,3084802170,44714,1,0.37476,-0.02344,1.09985,-12.565,-23.664,5.16
2026-06-11 18:07:42.714,3084802170,44714,2,1.08423,-0.20483,0.32129,-7.893,-2.649,-1.664
2026-06-11 18:07:42.950,3084802406,44950,1,0.51636,-0.07837,1.0625,7.099,-31.527,-2.053
2026-06-11 18:07:42.950,3084802406,44950,2,1.29175,-0.44263,0.14233,-36.573,-34.992,-7.481
2026-06-11 18:07:43.163,3084802619,45163,1,0.95801,-0.22607,1.01929,-23.351,-43.847,2.786
2026-06-11 18:07:43.163,3084802619,45163,2,1.49316,-0.43408,0.10181,9.176,-9.725,-4.786
2026-06-11 18:07:43.396,3084802852,45396,1,0.54712,-0.17749,0.60596,-26.0,6.069,-6.824
2026-06-11 18:07:43.396,3084802852,45396,2,0.96973,-0.36011,0.16968,4.046,30.855,4.855
2026-06-11 18:07:43.606,3084803062,45605,1,0.75952,-0.19189,1.0188,-24.321,3.885,-8.42
2026-06-11 18:07:43.606,3084803062,45605,2,1.09717,-0.36792,0.23022,16.435,29.519,5.542
2026-06-11 18:07:43.805,3084803261,45805,1,0.66772,-0.26001,0.83618,17.008,-4.947,12.901
2026-06-11 18:07:43.805,3084803261,45805,2,1.46802,-0.41724,0.26099,20.206,-31.328,-20.214
2026-06-11 18:07:43.028,3084802484,46028,1,0.62866,-0.11792,1.20361,30.496,34.29,9.13
2026-06-11 18:07:43.028,3084802484,46028,2,1.08032,-0.32324,0.31616,-3.87,2.42,2.389
2026-06-11 18:07:44.228,3084803684,46228,1,0.4939,-0.1543,1.03149,0.115,-6.153,5.832
2026-06-11 18:07:44.228,3084803684,46228,2,0.98706,-0.28931,0.21924,-0.802,-36.924,-9.351
2026-06-11 18:07:44.428,3084803884,46428,1,0.51489,-0.11719,0.80981,9.427,-36.458,-9.634
2026-06-11 18:07:44.428,3084803884,46428,2,0.77881,-0.16504,0.03442,-1.924,-75.252,-22.321
2026-06-11 18:07:44.667,3084804123,46667,1,0.55591,0.00488,0.36499,-21.634,-63.672,-10.893
2026-06-11 18:07:44.667,3084804123,46667,2,0.8667,-0.21338,-0.12036,-14.664,-48.863,-5.412
2026-06-11 18:07:44.867,3084804323,46867,1,0.9812,-0.09912,0.41479,-20.672,-16.076,5.023
2026-06-11 18:07:44.867,3084804323,46867,2,0.94531,-0.17773,-0.36353,8.13,-0.687,0.733
2026-06-11 18:07:45.067,3084804523,47067,1,0.90845,-0.10205,0.52881,10.008,-1.565,1.298
2026-06-11 18:07:45.067,3084804523,47067,2,0.9834,-0.19482,-0.33154,2.099,12.458,-2.084
2026-06-11 18:07:45.276,3084804732,47276,1,0.87939,-0.09912,0.60059,-2.626,11.26,-1.565
2026-06-11 18:07:45.276,3084804732,47276,2,0.96606,-0.21777,-0.30737,1.45,2.176,-0.756
2026-06-11 18:07:45.533,3084804989,47533,1,0.87573,-0.10986,0.60547,-7.366,10.802,0.405
2026-06-11 18:07:45.533,3084804989,47533,2,0.95459,-0.22241,-0.30469,-1.206,4.718,3.305
2026-06-11 18:07:45.733,3084805189,47733,1,0.9231,-0.10913,0.53564,3.496,8.618,1.168
2026-06-11 18:07:45.733,3084805189,47733,2,0.9812,-0.21387,-0.22192,5.962,40.931,10.924
2026-06-11 18:07:45.933,3084805389,47933,1,0.65723,-0.03833,0.3916,25.252,30.618,6.099
2026-06-11 18:07:45.933,3084805389,47933,2,0.6106,-0.19995,-0.02881,23.718,74.893,20.366
2026-06-11 18:07:46.133,3084805589,48133,1,0.51099,-0.08374,0.7312,16.832,13.321,3.947
2026-06-11 18:07:46.133,3084805589,48133,2,0.93945,-0.27002,0.07666,25.618,33.023,-4.832
2026-06-11 18:07:46.363,3084805819,48362,1,0.64087,-0.11987,0.97632,-1.664,7.466,-2.137
2026-06-11 18:07:46.363,3084805819,48362,2,1.0918,-0.3252,0.0459,-15.168,-10.237,1.252
2026-06-11 18:07:46.569,3084806025,48569,1,0.88037,-0.02588,0.95557,1.275,-18.534,10.733
2026-06-11 18:07:46.569,3084806025,48569,2,1.26978,-0.39771,0.0498,2.748,4.656,-2.252
2026-06-11 18:07:46.789,3084806245,48789,1,0.72559,-0.0188,0.93677,36.267,15.885,12.481
2026-06-11 18:07:46.789,3084806245,48789,2,1.04248,-0.29224,0.07617,-27.137,-6.13,1.282
2026-06-11 18:07:46.989,3084806445,48989,1,0.6814,-0.11426,0.80762,-29.626,-16.443,-7.42
2026-06-11 18:07:46.989,3084806445,48989,2,1.06641,-0.24878,0.00781,9.87,-15.45,-6.626
2026-06-11 18:07:47.189,3084806645,49189,1,0.78442,-0.06689,0.77905,18.679,-5.481,8.771
2026-06-11 18:07:47.189,3084806645,49189,2,1.01563,-0.24194,-0.00244,2.595,1.885,2.527
2026-06-11 18:07:47.389,3084806845,49389,1,0.71582,-0.0957,0.79932,-3.473,-0.282,2.252
2026-06-11 18:07:47.389,3084806845,49389,2,1.04834,-0.24951,0.0105,-2.542,-1.122,4.298
2026-06-11 18:07:47.589,3084807045,49589,1,0.98755,-0.12915,0.94189,-0.412,-5.092,-13.023
2026-06-11 18:07:47.589,3084807045,49589,2,1.66113,-0.50024,-0.15161,-2.595,16.076,5.237
2026-06-11 18:07:47.789,3084807245,49789,1,0.63452,-0.02075,1.0144,11.977,23.435,9.664
2026-06-11 18:07:47.789,3084807245,49789,2,0.97876,-0.23291,0.01904,3.763,-23.847,-3.023
2026-06-11 18:07:47.025,3084806481,50025,1,0.64722,-0.06738,0.76563,-4.58,-21.221,2.824
2026-06-11 18:07:47.025,3084806481,50025,2,0.98462,-0.19897,-0.03027,1.756,-15.366,-2.26
2026-06-11 18:07:48.225,3084807681,50225,1,0.59521,-0.0271,0.64893,7.992,2.771,1.649
2026-06-11 18:07:48.225,3084807681,50225,2,0.76758,-0.14575,-0.05444,-3.29,-14.053,-6.45
2026-06-11 18:07:48.425,3084807881,50425,1,0.51416,-0.06567,0.54614,-10.053,-26.336,3.466
2026-06-11 18:07:48.425,3084807881,50425,2,1.00024,-0.08936,-0.14648,9.74,-12.611,-5.038
2026-06-11 18:07:48.631,3084808087,50630,1,0.86475,-0.1272,0.64795,-13.802,10.779,-0.214
2026-06-11 18:07:48.631,3084808087,50630,2,1.09082,-0.10156,-0.20313,3.656,12.58,2.763
2026-06-11 18:07:48.870,3084808326,50870,1,0.87183,-0.17236,0.48315,-44.908,26.55,-14.786
2026-06-11 18:07:48.870,3084808326,50870,2,1.20532,-0.48071,-0.2373,-22.382,37.924,6.489
2026-06-11 18:07:49.070,3084808526,51070,1,0.79761,-0.15552,0.65649,22.977,27.359,8.351
2026-06-11 18:07:49.070,3084808526,51070,2,1.03491,-0.03613,-0.00464,33.634,47.0,-23.603
2026-06-11 18:07:49.270,3084808726,51270,1,0.69092,-0.07813,0.86792,27.901,-5.725,0.977
2026-06-11 18:07:49.270,3084808726,51270,2,1.03369,-0.15845,-0.06665,10.145,-11.427,-8.244
2026-06-11 18:07:49.546,3084809002,51546,1,0.79395,0.0166,0.73535,-10.29,2.847,9.809
2026-06-11 18:07:49.546,3084809002,51546,2,1.03369,-0.21484,-0.10596,-10.863,-5.137,17.382
2026-06-11 18:07:49.746,3084809202,51746,1,0.77661,-0.15259,0.73438,-5.214,2.725,3.038
2026-06-11 18:07:49.746,3084809202,51746,2,1.02148,-0.21509,-0.11694,11.267,5.427,-7.84
2026-06-11 18:07:49.971,3084809427,51971,1,0.84009,-0.17847,0.58008,22.046,17.198,-11.328
2026-06-11 18:07:49.971,3084809427,51971,2,1.10498,-0.12695,-0.00977,66.573,64.557,-40.076
2026-06-11 18:07:50.171,3084809627,52171,1,0.49976,0.13965,0.5,11.29,109.351,-27.389
2026-06-11 18:07:50.171,3084809627,52171,2,1.10376,-0.11279,0.22803,-50.122,133.557,17.427
2026-06-11 18:07:50.371,3084809827,52371,1,-0.02051,0.0708,1.05615,11.656,127.221,6.626
2026-06-11 18:07:50.371,3084809827,52371,2,0.86353,-0.21484,0.70825,28.267,115.908,-0.473
2026-06-11 18:07:50.571,3084810027,52571,1,-0.34375,0.06836,1.20776,22.046,59.542,14.504
2026-06-11 18:07:50.571,3084810027,52571,2,0.52075,0.01904,1.07715,10.947,45.611,2.053
2026-06-11 18:07:50.777,3084810233,52777,1,-0.38086,0.10156,1.11841,-8.153,16.29,10.153
2026-06-11 18:07:50.777,3084810233,52777,2,0.48511,-0.03076,1.02051,1.74,7.298,10.71
2026-06-11 18:07:50.977,3084810433,52977,1,-0.36646,0.11719,1.0166,-7.176,-7.679,7.061
2026-06-11 18:07:50.977,3084810433,52977,2,0.44165,0.0144,1.08813,-5.206,-12.687,13.336
2026-06-11 18:07:51.255,3084810711,53254,1,-0.15649,-0.04199,1.07373,20.061,-53.695,-0.023
2026-06-11 18:07:51.255,3084810711,53254,2,0.83521,-0.0918,0.78931,-30.817,-83.664,4.321
2026-06-11 18:07:51.483,3084810939,53483,1,-0.01172,0.06787,1.10156,-18.015,-77.992,-4.679
2026-06-11 18:07:51.483,3084810939,53483,2,0.87695,-0.24634,0.50488,-31.26,-92.756,0.557
2026-06-11 18:07:51.683,3084811139,53683,1,0.22119,0.02271,0.87744,-25.557,-108.656,-4.405
2026-06-11 18:07:51.683,3084811139,53683,2,0.98071,-0.31006,0.04126,-34.557,-101.351,1.282
2026-06-11 18:07:51.883,3084811339,53883,1,0.69922,-0.13159,0.60034,-25.687,-132.656,-6.366
2026-06-11 18:07:51.883,3084811339,53883,2,0.94116,-0.25659,-0.20361,-16.634,-57.924,0.534
2026-06-11 18:07:52.083,3084811539,54083,1,1.01001,-0.15112,0.3728,-8.115,-43.527,-10.267
2026-06-11 18:07:52.083,3084811539,54083,2,0.90918,-0.26465,-0.46411,-13.656,-22.374,-0.611
2026-06-11 18:07:52.283,3084811739,54283,1,1.00635,-0.1123,0.38818,-1.641,-10.122,-3.366
2026-06-11 18:07:52.283,3084811739,54283,2,0.89819,-0.23315,-0.47729,-2.168,0.145,-0.084
2026-06-11 18:07:52.483,3084811939,54483,1,0.94971,-0.10352,0.43726,-9.74,7.16,-4.618
2026-06-11 18:07:52.483,3084811939,54483,2,0.9043,-0.23633,-0.46826,1.855,9.099,-0.443
2026-06-11 18:07:52.683,3084812139,54683,1,0.92651,-0.10596,0.51172,-2.382,9.794,1.168
2026-06-11 18:07:52.683,3084812139,54683,2,0.89453,-0.21924,-0.44214,-2.26,7.84,-1.26
2026-06-11 18:07:52.883,3084812339,54883,1,0.93018,-0.09106,0.49023,2.084,9.351,-4.489
2026-06-11 18:07:52.883,3084812339,54883,2,0.91382,-0.2041,-0.4209,8.458,7.756,-1.916
2026-06-11 18:07:53.083,3084812539,55083,1,0.927,-0.10205,0.51245,6.702,4.076,0.924
2026-06-11 18:07:53.083,3084812539,55083,2,0.90649,-0.22388,-0.41528,3.74,5.015,-2.924
2026-06-11 18:07:53.283,3084812739,55283,1,0.94043,-0.08716,0.48926,-1.824,2.954,-1.794
2026-06-11 18:07:53.283,3084812739,55283,2,0.90527,-0.22339,-0.38208,-0.008,3.183,1.115
2026-06-11 18:07:53.483,3084812939,55483,1,0.94019,-0.10107,0.48315,-2.695,4.198,-3.053
2026-06-11 18:07:53.483,3084812939,55483,2,0.91528,-0.20361,-0.42261,4.16,4.954,-2.939
2026-06-11 18:07:53.683,3084813139,55683,1,0.9668,-0.08545,0.47461,2.015,8.061,-2.153
2026-06-11 18:07:53.683,3084813139,55683,2,0.93921,-0.2251,-0.4187,9.527,4.802,-1.771
2026-06-11 18:07:53.883,3084813339,55883,1,0.97803,-0.03857,0.41724,15.267,49.725,2.725
2026-06-11 18:07:53.883,3084813339,55883,2,1.04102,-0.21777,-0.32397,31.756,52.977,-0.641
2026-06-11 18:07:54.083,3084813539,56083,1,0.67627,-0.05566,0.59277,20.588,99.229,13.504
2026-06-11 18:07:54.083,3084813539,56083,2,1.00903,-0.21167,-0.04102,38.863,94.107,-16.206
2026-06-11 18:07:54.283,3084813739,56283,1,0.4126,,0.89111,7.817,108.176,3.71
2026-06-11 18:07:54.283,3084813739,56283,2,0.96826,-0.21045,0.30762,7.321,93.939,-5.313
2026-06-11 18:07:54.483,3084813939,56483,1,0.05884,0.10986,1.23462,19.13,73.588,7.779
2026-06-11 18:07:54.483,3084813939,56483,2,0.82788,-0.05737,0.56836,23.427,87.206,-5.206
2026-06-11 18:07:54.683,3084814139,56683,1,0.05981,0.03735,1.17432,7.366,58.321,13.656
2026-06-11 18:07:54.683,3084814139,56683,2,0.73413,-0.07275,0.9375,14.13,51.275,-4.687
2026-06-11 18:07:54.883,3084814339,56883,1,-0.0896,0.02271,1.11353,-12.328,9.58,3.649
2026-06-11 18:07:54.883,3084814339,56883,2,0.70117,-0.06519,0.86621,-1.84,22.954,-2.145
2026-06-11 18:07:55.083,3084814539,57083,1,-0.17383,0.08472,1.10254,-8.328,3.733,0.313
2026-06-11 18:07:55.083,3084814539,57083,2,0.6333,-0.07397,0.93433,3.237,-10.931,2.351
2026-06-11 18:07:55.283,3084814739,57283,1,-0.2561,0.07373,1.26147,-1.145,-2.84,6.397
2026-06-11 18:07:55.283,3084814739,57283,2,0.84912,-0.15308,0.75415,-24.992,-88.252,10.092
2026-06-11 18:07:55.525,3084814981,57525,1,-0.0332,0.10474,1.12451,-15.16,-115.466,6.389
2026-06-11 18:07:55.525,3084814981,57525,2,0.90698,-0.22632,0.04468,-31.527,-130.313,6.481
2026-06-11 18:07:55.799,3084815255,57799,1,0.70386,-0.07568,0.46704,-12.359,-103.519,15.634
2026-06-11 18:07:55.799,3084815255,57799,2,1.04688,-0.24072,-0.23413,2.824,-79.641,-14.359
2026-06-11 18:07:55.999,3084815455,57999,1,0.9248,-0.13916,0.45068,-18.092,-50.305,-5.176
2026-06-11 18:07:55.999,3084815455,57999,2,0.94922,-0.22485,-0.40576,-1.802,-38.794,1.351
2026-06-11 18:07:56.199,3084815655,58199,1,1.00488,-0.12134,0.39722,-9.817,-16.534,-4.191
2026-06-11 18:07:56.199,3084815655,58199,2,0.90918,-0.20776,-0.47046,-11.618,0.053,3.435
2026-06-11 18:07:56.416,3084815872,58416,1,1.00684,-0.11865,0.3877,-9.481,1.802,-3.893
2026-06-11 18:07:56.416,3084815872,58416,2,0.87305,-0.2146,-0.46191,3.481,3.977,2.008
2026-06-11 18:07:56.616,3084816072,58616,1,0.96143,-0.10132,0.40332,-1.924,4.122,-1.45
2026-06-11 18:07:56.616,3084816072,58616,2,0.87793,-0.19946,-0.4646,-5.015,1.443,-2.252
2026-06-11 18:07:56.816,3084816272,58816,1,1.02661,-0.1333,0.35767,9.763,5.183,-0.374
2026-06-11 18:07:56.816,3084816272,58816,2,0.89819,-0.13599,-0.43335,3.427,8.824,2.107
2026-06-11 18:07:56.016,3084815472,59016,1,0.94043,-0.1311,0.4126,-26.092,3.237,-30.405
2026-06-11 18:07:56.016,3084815472,59016,2,0.87354,-0.1814,-0.46997,-4.153,-1.542,-3.893
2026-06-11 18:07:57.216,3084816672,59216,1,1.0083,-0.03003,0.37793,12.099,-4.282,1.954
2026-06-11 18:07:57.216,3084816672,59216,2,0.86719,-0.13696,-0.46753,10.924,-11.481,-8.672
2026-06-11 18:07:57.416,3084816872,59416,1,1.0061,-0.07227,0.35864,11.191,-2.344,9.137
2026-06-11 18:07:57.416,3084816872,59416,2,0.86133,-0.09985,-0.43872,11.489,0.26,3.855
2026-06-11 18:07:57.646,3084817102,59645,1,0.97705,-0.04932,0.41382,-12.908,6.924,0.87
2026-06-11 18:07:57.646,3084817102,59645,2,0.86011,-0.17407,-0.48877,-11.237,2.252,5.931
2026-06-11 18:07:57.845,3084817301,59845,1,0.98291,-0.07349,0.40918,-6.473,3.878,-0.969
2026-06-11 18:07:57.845,3084817301,59845,2,0.86768,-0.18359,-0.47705,-7.069,0.427,9.412
2026-06-11 18:07:57.045,3084816501,60045,1,0.97656,-0.07739,0.39868,0.481,-1.55,0.969
2026-06-11 18:07:57.045,3084816501,60045,2,0.88745,-0.19629,-0.50171,-6.046,-2.809,1.29
2026-06-11 18:07:58.298,3084817754,60298,1,1.00024,-0.1145,0.35767,-3.023,4.855,3.481
2026-06-11 18:07:58.298,3084817754,60298,2,0.85547,-0.19531,-0.4751,-2.908,7.229,7.061
2026-06-11 18:07:58.498,3084817954,60498,1,0.97021,-0.11304,0.41895,-1.275,4.786,0.244
2026-06-11 18:07:58.498,3084817954,60498,2,0.85327,-0.2063,-0.48511,1.924,4.321,-2.489
2026-06-11 18:07:58.719,3084818175,60719,1,0.93164,-0.11621,0.40723,8.786,6.924,4.206
2026-06-11 18:07:58.719,3084818175,60719,2,0.84546,-0.18604,-0.50635,6.702,3.695,-4.916
2026-06-11 18:07:58.919,3084818375,60919,1,0.97388,-0.09717,0.375,4.427,-0.321,-0.115
2026-06-11 18:07:58.919,3084818375,60919,2,0.87085,-0.18213,-0.479,-4.336,1.16,-2.214
2026-06-11 18:07:59.119,3084818575,61119,1,1.00122,-0.0835,0.37402,-1.137,2.145,-1.519
2026-06-11 18:07:59.119,3084818575,61119,2,0.85669,-0.16479,-0.50977,-1.634,-1.099,-0.061
2026-06-11 18:07:59.347,3084818803,61347,1,0.99585,-0.09326,0.3877,-0.183,2.069,1.16
2026-06-11 18:07:59.347,3084818803,61347,2,0.85327,-0.17139,-0.49243,0.405,2.305,-0.595
2026-06-11 18:07:59.547,3084819003,61547,1,0.99219,-0.08105,0.39307,-0.115,1.076,-0.336
2026-06-11 18:07:59.547,3084819003,61547,2,0.85645,-0.18091,-0.50098,-2.099,1.137,0.015
2026-06-11 18:07:59.747,3084819203,61747,1,0.98389,-0.09375,0.37646,2.634,2.519,-0.496
2026-06-11 18:07:59.747,3084819203,61747,2,0.86157,-0.16187,-0.51343,1.122,2.733,-3.015
2026-06-11 18:07:59.973,3084819429,61972,1,1.00122,-0.08081,0.38818,1.328,2.679,-0.321
2026-06-11 18:07:59.973,3084819429,61972,2,0.86279,-0.15674,-0.49707,1.336,1.542,-2.756
2026-06-11 18:08:00.175,3084819631,62175,1,0.98315,-0.09058,0.39185,2.458,2.656,0.969
2026-06-11 18:08:00.175,3084819631,62175,2,0.85718,-0.16553,-0.49878,-0.443,0.771,-0.595
2026-06-11 18:08:00.375,3084819831,62375,1,0.99365,-0.06616,0.3855,8.298,4.321,0.534
2026-06-11 18:08:00.375,3084819831,62375,2,0.87061,-0.17798,-0.48193,7.916,6.595,-2.473
2026-06-11 18:08:00.575,3084820031,62575,1,0.99365,-0.09204,0.36914,-2.885,5.977,2.458
2026-06-11 18:08:00.575,3084820031,62575,2,0.86279,-0.14233,-0.48901,5.344,2.725,0.168
2026-06-11 18:08:00.775,3084820231,62775,1,0.9707,-0.06421,0.42041,2.137,5.595,-0.237
2026-06-11 18:08:00.775,3084820231,62775,2,0.86719,-0.15259,-0.47827,-0.885,-0.687,-0.183
2026-06-11 18:08:00.975,3084820431,62975,1,0.97974,-0.05469,0.41968,-6.267,-0.275,-1.58
2026-06-11 18:08:00.975,3084820431,62975,2,0.85303,-0.13745,-0.47485,2.107,-5.275,4.206
2026-06-11 18:08:01.175,3084820631,63175,1,0.99609,-0.08228,0.40161,-10.305,2.794,-4.664
2026-06-11 18:08:01.175,3084820631,63175,2,0.85059,-0.1626,-0.53223,-7.718,2.069,1.321
2026-06-11 18:08:01.380,3084820836,63380,1,0.99707,-0.0625,0.38086,-1.908,0.603,0.885
2026-06-11 18:08:01.380,3084820836,63380,2,0.85107,-0.16089,-0.52563,0.031,0.42,0.824
2026-06-11 18:08:01.580,3084821036,63580,1,0.98535,-0.08521,0.39575,5.282,0.992,2.328
2026-06-11 18:08:01.580,3084821036,63580,2,0.85229,-0.16284,-0.52856,2.458,-0.084,-3.115
2026-06-11 18:08:01.780,3084821236,63780,1,1.01855,-0.06641,0.33862,5.29,2.473,3.687
2026-06-11 18:08:01.780,3084821236,63780,2,0.85547,-0.13379,-0.5061,10.656,1.855,-6.496
2026-06-11 18:08:01.997,3084821453,63997,1,0.98511,-0.0686,0.38013,-1.885,1.229,-2.336
2026-06-11 18:08:01.997,3084821453,63997,2,0.8584,-0.15527,-0.50464,-4.328,-1.107,0.221
2026-06-11 18:08:02.197,3084821653,64197,1,0.97632,-0.08081,0.37061,-0.45,4.481,-1.122
2026-06-11 18:08:02.197,3084821653,64197,2,0.85107,-0.14697,-0.51001,-4.351,4.756,-2.053
2026-06-11 18:08:02.397,3084821853,64397,1,0.99683,-0.05786,0.37354,1.099,4.366,-0.405
2026-06-11 18:08:02.397,3084821853,64397,2,0.85254,-0.15039,-0.5166,-0.58,1.611,-0.824
2026-06-11 18:08:02.597,3084822053,64597,1,0.97583,-0.06299,0.38525,6.214,0.893,2.771
2026-06-11 18:08:02.597,3084822053,64597,2,0.86719,-0.15771,-0.50391,3.954,2.656,-5.053
2026-06-11 18:08:02.797,3084822253,64797,1,0.99463,-0.06372,0.37378,9.832,1.924,4.137
2026-06-11 18:08:02.797,3084822253,64797,2,0.85938,-0.13257,-0.49658,9.267,1.901,-7.458
2026-06-11 18:08:02.997,3084822453,64997,1,1.0144,-0.05688,0.36768,10.55,1.351,-0.351
2026-06-11 18:08:02.997,3084822453,64997,2,0.87622,-0.1521,-0.48584,10.221,1.985,-6.328
2026-06-11 18:08:03.197,3084822653,65197,1,0.99927,-0.07349,0.37402,8.473,8.656,3.305
2026-06-11 18:08:03.197,3084822653,65197,2,0.87427,-0.14819,-0.49438,4.221,7.137,-3.267
2026-06-11 18:08:03.397,3084822853,65397,1,0.97803,-0.04858,0.4104,5.389,11.794,0.412
2026-06-11 18:08:03.397,3084822853,65397,2,0.88989,-0.12891,-0.45264,14.244,6.519,-5.931
2026-06-11 18:08:03.597,3084823053,65597,1,0.98218,-0.04175,0.39722,25.382,18.252,18.824
2026-06-11 18:08:03.597,3084823053,65597,2,0.89697,-0.12549,-0.49902,17.084,1.924,-6.313
2026-06-11 18:08:03.797,3084823253,65797,1,0.95166,-0.08276,0.4502,8.42,2.725,3.183
2026-06-11 18:08:03.797,3084823253,65797,2,0.88721,-0.18262,-0.46558,5.153,10.901,-7.702
2026-06-11 18:08:03.997,3084823453,65997,1,0.91357,-0.07813,0.4856,-7.74,-8.183,3.397
2026-06-11 18:08:03.997,3084823453,65997,2,0.89307,-0.16138,-0.4436,-2.504,-16.038,8.534
2026-06-11 18:08:04.197,3084823653,66197,1,0.98706,-0.05908,0.42432,-22.855,-9.366,-6.229
2026-06-11 18:08:04.197,3084823653,66197,2,0.88062,-0.1582,-0.47119,-19.244,-6.618,15.244
2026-06-11 18:08:04.397,3084823853,66397,1,1.00049,-0.11865,0.38037,-31.0,-4.252,-8.855
2026-06-11 18:08:04.397,3084823853,66397,2,0.86255,-0.22241,-0.51538,-30.153,1.557,15.618
2026-06-11 18:08:04.597,3084824053,66597,1,0.99854,-0.13818,0.36279,-11.298,1.176,-3.321
2026-06-11 18:08:04.597,3084824053,66597,2,0.85498,-0.19165,-0.52588,3.198,-7.153,-0.748
2026-06-11 18:08:04.797,3084824253,66797,1,1.07373,-0.14429,0.29639,12.237,3.29,-1.924
2026-06-11 18:08:04.797,3084824253,66797,2,0.84326,-0.16602,-0.53442,12.336,15.099,-8.771
2026-06-11 18:08:04.000,3084823456,67000,1,0.97754,-0.06372,0.40381,11.733,11.595,2.489
2026-06-11 18:08:04.000,3084823456,67000,2,0.86792,-0.1731,-0.46265,4.206,12.565,-2.977
2026-06-11 18:08:05.200,3084824656,67200,1,0.98438,-0.0874,0.39624,16.252,23.542,-3.244
2026-06-11 18:08:05.200,3084824656,67200,2,0.87769,-0.20337,-0.39014,23.832,21.053,-8.115
2026-06-11 18:08:05.413,3084824869,67413,1,0.8772,-0.01416,0.54858,4.947,1.847,1.298
2026-06-11 18:08:05.413,3084824869,67413,2,0.94214,-0.16333,-0.41406,28.16,3.763,-10.969
2026-06-11 18:08:05.613,3084825069,67613,1,0.96509,0.01489,0.47314,15.901,11.145,10.763
2026-06-11 18:08:05.613,3084825069,67613,2,0.90405,-0.15625,-0.38745,-5.183,4.122,9.366
2026-06-11 18:08:05.813,3084825269,67813,1,0.91846,-0.07104,0.52661,-7.985,-2.557,6.298
2026-06-11 18:08:05.813,3084825269,67813,2,0.93237,-0.1687,-0.37646,-3.137,-4.229,6.511
2026-06-11 18:08:05.013,3084824469,68013,1,0.92969,-0.09033,0.5249,-2.824,-1.458,1.511
2026-06-11 18:08:05.013,3084824469,68013,2,0.9314,-0.18164,-0.41333,-4.16,-1.107,1.901
2026-06-11 18:08:06.248,3084825704,68248,1,0.94507,-0.08521,0.50073,-4.153,2.672,-1.321
2026-06-11 18:08:06.248,3084825704,68248,2,0.90845,-0.2085,-0.40942,6.885,-1.954,-1.824
2026-06-11 18:08:06.480,3084825936,68480,1,0.92847,-0.09839,0.50415,2.115,4.122,0.092
2026-06-11 18:08:06.480,3084825936,68480,2,0.93604,-0.18579,-0.3916,5.679,4.13,-7.84
2026-06-11 18:08:06.680,3084826136,68680,1,0.98877,-0.06104,0.49463,1.641,-4.847,1.542
2026-06-11 18:08:06.680,3084826136,68680,2,0.90723,-0.14502,-0.30615,28.71,29.305,-0.931
2026-06-11 18:08:06.880,3084826336,68880,1,0.89136,-0.05371,0.51709,12.519,-1.771,1.405
2026-06-11 18:08:06.880,3084826336,68880,2,1.00586,-0.1665,-0.32373,-17.595,-0.771,4.145
2026-06-11 18:08:07.096,3084826552,69096,1,0.96973,-0.09863,0.50439,5.534,5.046,4.618
2026-06-11 18:08:07.096,3084826552,69096,2,0.94678,-0.14844,-0.37354,-3.221,6.603,0.405
2026-06-11 18:08:07.296,3084826752,69296,1,0.92505,-0.07178,0.52148,-0.099,6.008,2.237
2026-06-11 18:08:07.296,3084826752,69296,2,0.95508,-0.14087,-0.29858,10.389,7.672,-1.122
2026-06-11 18:08:07.496,3084826952,69496,1,0.92334,-0.09302,0.54321,0.053,8.137,1.267
2026-06-11 18:08:07.496,3084826952,69496,2,0.98486,-0.18066,-0.2688,-10.053,1.305,0.771
2026-06-11 18:08:07.696,3084827152,69696,1,0.92163,-0.10522,0.53369,-2.55,-0.908,-1.595
2026-06-11 18:08:07.696,3084827152,69696,2,0.94971,-0.16724,-0.34741,-2.802,-10.214,-6.137
2026-06-11 18:08:07.899,3084827355,69898,1,0.91284,-0.08203,0.54956,5.382,3.962,1.389
2026-06-11 18:08:07.899,3084827355,69898,2,0.94824,-0.15137,-0.37305,-12.595,-3.702,3.519
2026-06-11 18:08:08.098,3084827554,70098,1,0.95093,-0.08887,0.50513,-4.443,-5.588,0.038
2026-06-11 18:08:08.098,3084827554,70098,2,0.98145,-0.15381,-0.32251,-4.275,3.244,1.672
2026-06-11 18:08:08.298,3084827754,70298,1,0.92969,-0.09155,0.50488,-1.359,8.595,-3.908
2026-06-11 18:08:08.298,3084827754,70298,2,0.94043,-0.16992,-0.64648,57.542,23.45,-9.038
2026-06-11 18:08:08.498,3084827954,70498,1,0.98804,-0.08667,0.45166,-31.504,-1.412,-3.58
2026-06-11 18:08:08.498,3084827954,70498,2,1.09058,-0.17725,-0.24585,8.947,15.771,5.603
2026-06-11 18:08:08.698,3084828154,70698,1,0.96094,-0.08179,0.46313,7.779,7.763,2.489
2026-06-11 18:08:08.698,3084828154,70698,2,1.01782,-0.23267,-0.13013,-12.351,-8.908,-0.282
2026-06-11 18:08:08.898,3084828354,70898,1,0.95679,-0.04224,0.44653,10.092,3.092,-2.473
2026-06-11 18:08:08.898,3084828354,70898,2,0.90283,-0.04272,-0.28638,-20.244,-13.992,15.672
2026-06-11 18:08:09.098,3084828554,71098,1,0.94897,-0.09082,0.44849,7.198,-12.885,8.481
2026-06-11 18:08:09.098,3084828554,71098,2,0.94849,-0.17432,-0.27466,-8.053,-1.595,2.878
2026-06-11 18:08:09.298,3084828754,71298,1,0.98022,-0.10181,0.40234,-0.863,-6.313,-0.084
2026-06-11 18:08:09.298,3084828754,71298,2,0.93115,-0.16479,-0.36426,0.733,-6.534,2.588
2026-06-11 18:08:09.498,3084828954,71498,1,0.98169,-0.10376,0.40259,-3.557,-4.626,1.557
2026-06-11 18:08:09.498,3084828954,71498,2,0.94214,-0.16553,-0.39551,-11.786,-9.527,0.092
2026-06-11 18:08:09.698,3084829154,71698,1,1.02075,-0.12915,0.35889,-1.366,-6.305,-4.229
2026-06-11 18:08:09.698,3084829154,71698,2,0.99902,-0.17188,-0.26758,23.389,14.534,-5.359
2026-06-11 18:08:09.898,3084829354,71898,1,0.97729,-0.05249,0.41528,-2.084,6.817,-0.511
2026-06-11 18:08:09.898,3084829354,71898,2,0.90747,-0.16113,-0.41626,-5.771,-5.244,0.221
2026-06-11 18:08:10.154,3084829610,72153,1,1.0437,-0.10278,0.31665,4.718,1.16,3.099
2026-06-11 18:08:10.154,3084829610,72153,2,0.9248,-0.15308,-0.37891,22.031,14.863,-7.229
2026-06-11 18:08:10.353,3084829809,72353,1,0.97314,-0.0979,0.36499,-0.336,-1.733,-0.031
2026-06-11 18:08:10.353,3084829809,72353,2,0.94165,-0.17554,-0.40942,-10.519,-4.015,3.855
2026-06-11 18:08:10.553,3084830009,72553,1,0.99829,-0.11328,0.35352,2.061,3.893,-1.053
2026-06-11 18:08:10.553,3084830009,72553,2,0.94165,-0.17969,-0.41211,-0.534,-2.481,0.122
2026-06-11 18:08:10.812,3084830268,72812,1,0.9978,-0.08252,0.33984,2.489,2.198,0.168
2026-06-11 18:08:10.812,3084830268,72812,2,0.90845,-0.1438,-0.40869,0.863,4.359,-1.359
2026-06-11 18:08:10.014,3084829470,73014,1,0.99927,-0.08911,0.3313,-0.679,2.412,3.206
2026-06-11 18:08:10.014,3084829470,73014,2,0.9187,-0.14624,-0.40332,5.16,2.504,-3.389
2026-06-11 18:08:11.214,3084830670,73214,1,1.00879,-0.09399,0.34717,-0.534,2.511,-0.168
2026-06-11 18:08:11.214,3084830670,73214,2,0.93799,-0.19092,-0.37915,8.305,2.588,-2.16
2026-06-11 18:08:11.421,3084830877,73420,1,0.98071,-0.10669,0.38696,7.374,5.794,2.588
2026-06-11 18:08:11.421,3084830877,73420,2,0.92578,-0.1709,-0.39844,-6.183,-2.214,-0.214
2026-06-11 18:08:11.620,3084831076,73620,1,1.0166,-0.1084,0.34717,-0.649,2.053,-0.748
2026-06-11 18:08:11.620,3084831076,73620,2,0.94458,-0.17725,-0.32959,14.305,11.58,-3.275
2026-06-11 18:08:11.820,3084831276,73820,1,0.98096,-0.08789,0.3916,-2.489,0.145,-2.458
2026-06-11 18:08:11.820,3084831276,73820,2,0.93433,-0.1604,-0.37549,-10.061,-0.687,1.763
2026-06-11 18:08:11.020,3084830476,74020,1,1.03247,-0.1106,0.34155,-3.947,3.366,-1.374
2026-06-11 18:08:11.020,3084830476,74020,2,0.96167,-0.20117,-0.32373,17.771,14.962,-2.481
2026-06-11 18:08:12.220,3084831676,74220,1,0.95581,-0.08154,0.40845,0.458,4.802,-1.855
2026-06-11 18:08:12.220,3084831676,74220,2,0.92383,-0.15991,-0.40454,-9.031,-3.977,1.153
2026-06-11 18:08:12.420,3084831876,74420,1,0.99438,-0.09521,0.38745,2.137,7.924,-1.275
2026-06-11 18:08:12.420,3084831876,74420,2,0.91553,-0.14209,-0.3999,2.176,1.924,-1.45
2026-06-11 18:08:12.620,3084832076,74620,1,0.99146,-0.08423,0.37988,-0.863,-4.924,0.794
2026-06-11 18:08:12.620,3084832076,74620,2,0.94141,-0.1543,-0.36963,14.885,10.71,-4.611
2026-06-11 18:08:12.890,3084832346,74890,1,0.97046,-0.07422,0.39722,3.542,1.519,2.038
2026-06-11 18:08:12.890,3084832346,74890,2,0.94702,-0.18066,-0.34888,2.473,-0.214,-0.321
2026-06-11 18:08:13.090,3084832546,75090,1,0.97607,-0.08862,0.40015,1.794,0.916,1.359
2026-06-11 18:08:13.090,3084832546,75090,2,0.93945,-0.17065,-0.35693,-6.947,-2.519,0.786
2026-06-11 18:08:13.290,3084832746,75290,1,0.99243,-0.09692,0.36646,-4.893,-1.824,-5.321
2026-06-11 18:08:13.290,3084832746,75290,2,0.93774,-0.18164,-0.38013,-6.053,-2.855,0.863
2026-06-11 18:08:13.490,3084832946,75490,1,0.9895,-0.07715,0.37402,0.214,4.954,-1.969
2026-06-11 18:08:13.490,3084832946,75490,2,0.93701,-0.16675,-0.39868,0.321,5.779,-3.305
2026-06-11 18:08:13.690,3084833146,75690,1,0.97949,-0.06738,0.40234,4.595,5.321,-1.275
2026-06-11 18:08:13.690,3084833146,75690,2,0.93604,-0.16943,-0.35693,-0.58,3.137,-1.374
2026-06-11 18:08:13.890,3084833346,75890,1,0.98145,-0.07056,0.38916,1.099,1.947,2.084
2026-06-11 18:08:13.890,3084833346,75890,2,0.95142,-0.15723,-0.37695,4.679,2.305,-4.0
2026-06-11 18:08:14.101,3084833557,76101,1,0.99512,-0.06787,0.3772,6.16,1.817,0.466
2026-06-11 18:08:14.101,3084833557,76101,2,0.95728,-0.16113,-0.34424,6.435,2.931,-3.664
2026-06-11 18:08:14.301,3084833757,76301,1,0.97144,-0.05347,0.40894,-1.092,2.053,-1.603
2026-06-11 18:08:14.301,3084833757,76301,2,0.94019,-0.15601,-0.36011,-1.473,4.328,-1.214
2026-06-11 18:08:14.501,3084833957,76501,1,0.99023,-0.052,0.38354,6.977,2.504,4.229
2026-06-11 18:08:14.501,3084833957,76501,2,0.94653,-0.13452,-0.37036,2.939,-0.023,1.351
2026-06-11 18:08:14.701,3084834157,76701,1,0.98242,-0.06323,0.37622,3.496,0.191,2.542
2026-06-11 18:08:14.701,3084834157,76701,2,0.93921,-0.15771,-0.36401,-4.573,2.733,-0.954
2026-06-11 18:08:14.907,3084834363,76907,1,0.99316,-0.04419,0.38354,-4.947,-1.366,3.771
2026-06-11 18:08:14.907,3084834363,76907,2,0.95264,-0.14282,-0.37158,4.008,1.374,2.183
2026-06-11 18:08:15.107,3084834563,77107,1,0.97559,-0.06812,0.39893,-0.565,6.038,-2.656
2026-06-11 18:08:15.107,3084834563,77107,2,0.9397,-0.15479,-0.39087,-4.336,0.275,5.237
2026-06-11 18:08:15.307,3084834763,77307,1,0.99658,-0.10693,0.36304,1.42,2.008,1.939
2026-06-11 18:08:15.307,3084834763,77307,2,0.9436,-0.16724,-0.34741,0.305,-3.305,1.84
2026-06-11 18:08:15.514,3084834970,77514,1,0.98999,-0.0459,0.38257,6.947,4.748,6.099
2026-06-11 18:08:15.514,3084834970,77514,2,0.95483,-0.19263,-0.34741,2.832,0.832,-2.015
2026-06-11 18:08:15.746,3084835202,77746,1,0.9751,-0.09937,0.38965,0.87,-0.74,1.214
2026-06-11 18:08:15.746,3084835202,77746,2,0.93359,-0.16455,-0.39185,-6.16,-3.183,0.809
2026-06-11 18:08:15.946,3084835402,77946,1,0.99341,-0.08667,0.37207,-1.534,0.786,0.29
2026-06-11 18:08:15.946,3084835402,77946,2,0.92578,-0.18628,-0.38916,4.313,5.634,-5.412
2026-06-11 18:08:16.180,3084835636,78179,1,0.99023,-0.10083,0.37891,-2.626,5.802,-1.824
2026-06-11 18:08:16.180,3084835636,78179,2,0.94263,-0.15967,-0.37451,10.885,6.076,-4.221
2026-06-11 18:08:16.379,3084835835,78379,1,0.98145,-0.06714,0.38965,4.046,5.519,-1.527
2026-06-11 18:08:16.379,3084835835,78379,2,0.9502,-0.17749,-0.34741,0.794,3.725,-3.695
2026-06-11 18:08:16.579,3084836035,78579,1,0.97778,-0.06055,0.42236,6.969,3.412,-4.191
2026-06-11 18:08:16.579,3084836035,78579,2,0.94971,-0.21997,-0.34595,6.832,-0.992,-13.046
2026-06-11 18:08:16.779,3084836235,78779,1,0.98291,-0.09863,0.38965,54.351,4.527,15.847
2026-06-11 18:08:16.779,3084836235,78779,2,0.94922,-0.16309,-0.34741,58.84,3.58,-36.962
2026-06-11 18:08:16.979,3084836435,78979,1,0.98999,-0.07397,0.37646,84.015,8.26,23.718
2026-06-11 18:08:16.979,3084836435,78979,2,0.94775,-0.15039,-0.2981,74.176,7.336,-44.58
2026-06-11 18:08:17.179,3084836635,79179,1,0.95508,0.02979,0.45996,87.641,7.382,23.527
2026-06-11 18:08:17.179,3084836635,79179,2,0.97217,-0.05884,-0.27393,70.618,-6.267,-37.672
2026-06-11 18:08:17.379,3084836835,79379,1,0.98145,0.09692,0.43872,65.496,-2.664,25.183
2026-06-11 18:08:17.379,3084836835,79379,2,0.99121,-0.01245,-0.28491,48.229,-1.947,-21.031
2026-06-11 18:08:17.579,3084837035,79579,1,0.99097,0.08032,0.43286,27.511,-1.557,16.328
2026-06-11 18:08:17.579,3084837035,79579,2,0.99048,0.01904,-0.30176,13.771,-2.832,-6.588
2026-06-11 18:08:17.779,3084837235,79779,1,0.9585,0.08398,0.44312,-9.847,3.023,-3.771
2026-06-11 18:08:17.779,3084837235,79779,2,0.96826,0.02466,-0.34302,-62.389,5.473,25.0
2026-06-11 18:08:18.075,3084837531,80074,1,0.98145,0.1228,0.41187,-82.0,3.977,-35.588
2026-06-11 18:08:18.075,3084837531,80074,2,0.89233,0.00952,-0.34058,-93.733,-1.214,58.687
2026-06-11 18:08:18.310,3084837766,80310,1,0.95508,-0.021,0.34814,-100.725,-1.87,-12.649
2026-06-11 18:08:18.310,3084837766,80310,2,0.91211,-0.14282,-0.40918,-100.863,-2.794,60.374
2026-06-11 18:08:18.510,3084837966,80510,1,0.98633,-0.12988,0.36304,-81.702,0.649,-26.023
2026-06-11 18:08:18.510,3084837966,80510,2,0.91772,-0.24683,-0.3999,-42.153,-2.786,38.069
2026-06-11 18:08:18.710,3084838166,80710,1,1.00684,-0.17798,0.41846,-17.893,7.489,-5.107
2026-06-11 18:08:18.710,3084838166,80710,2,0.87598,-0.24097,-0.38623,-12.885,2.298,4.634
2026-06-11 18:08:18.910,3084838366,80910,1,0.98901,-0.15283,0.42285,4.557,4.237,4.397
2026-06-11 18:08:18.910,3084838366,80910,2,0.97192,-0.24292,-0.38672,14.29,6.122,-9.008
2026-06-11 18:08:19.110,3084838566,81110,1,0.88818,-0.12378,0.45044,14.511,17.519,16.115
2026-06-11 18:08:19.110,3084838566,81110,2,1.01465,-0.13013,-0.45972,24.924,16.908,-19.924
2026-06-11 18:08:19.310,3084838766,81310,1,0.96655,-0.03687,0.43579,15.397,-0.863,-14.893
2026-06-11 18:08:19.310,3084838766,81310,2,0.91113,-0.25684,-0.20898,-9.458,-1.359,-6.412
2026-06-11 18:08:19.510,3084838966,81510,1,0.92969,-0.15942,0.38818,5.229,4.305,35.046
2026-06-11 18:08:19.510,3084838966,81510,2,0.92944,-0.146,-0.26563,33.153,-9.885,-31.282
2026-06-11 18:08:19.710,3084839166,81710,1,1.08911,-0.09863,0.49658,9.74,-8.527,-27.023
2026-06-11 18:08:19.710,3084839166,81710,2,1.13135,-0.09912,-0.38232,35.924,13.565,31.084
2026-06-11 18:08:19.910,3084839366,81910,1,0.93262,-0.10913,0.4187,-5.847,-4.443,7.878
2026-06-11 18:08:19.910,3084839366,81910,2,0.87085,-0.16992,-0.33032,-64.214,14.733,-26.687
2026-06-11 18:08:20.110,3084839566,82110,1,0.98926,-0.10278,0.54688,6.519,11.244,2.252
2026-06-11 18:08:20.110,3084839566,82110,2,1.0647,-0.10645,-0.3667,29.656,-24.893,24.29
2026-06-11 18:08:20.323,3084839779,82323,1,0.89185,-0.00659,0.448,1.885,12.893,-14.519
2026-06-11 18:08:20.323,3084839779,82323,2,0.87817,-0.20557,-0.25024,-17.542,-26.718,35.206
2026-06-11 18:08:20.523,3084839979,82523,1,0.99707,-0.10693,0.51025,-1.16,2.672,17.534
2026-06-11 18:08:20.523,3084839979,82523,2,0.88916,-0.17847,-0.4082,-42.206,-10.611,-1.405
2026-06-11 18:08:20.723,3084840179,82723,1,1.0127,-0.14795,0.44629,-5.336,10.855,0.664
2026-06-11 18:08:20.723,3084840179,82723,2,0.94434,-0.29297,-0.32104,-5.916,12.855,9.885
2026-06-11 18:08:20.951,3084840407,82951,1,0.81152,-0.05737,0.5127,-3.573,3.458,-0.71
2026-06-11 18:08:20.951,3084840407,82951,2,0.98486,-0.28076,-0.37061,-48.206,-25.176,5.206
2026-06-11 18:08:21.151,3084840607,83151,1,0.98511,-0.06348,0.42456,-14.206,-4.351,-2.733
2026-06-11 18:08:21.151,3084840607,83151,2,0.91089,-0.18115,-0.40479,-11.244,-2.466,3.214
2026-06-11 18:08:21.351,3084840807,83351,1,0.95825,-0.11035,0.45557,5.947,4.374,0.359
2026-06-11 18:08:21.351,3084840807,83351,2,0.96216,-0.18555,-0.35352,6.069,6.908,-3.252
2026-06-11 18:08:21.567,3084841023,83567,1,0.97314,-0.07397,0.43188,-2.878,0.076,-2.74
2026-06-11 18:08:21.567,3084841023,83567,2,0.93457,-0.17358,-0.37305,-0.107,-0.489,1.58
2026-06-11 18:08:21.767,3084841223,83767,1,0.95947,-0.08032,0.44409,1.573,5.74,1.573
2026-06-11 18:08:21.767,3084841223,83767,2,0.93091,-0.18677,-0.40601,2.916,-1.221,0.931
2026-06-11 18:08:21.967,3084841423,83967,1,0.95483,-0.11694,0.44067,2.573,3.099,2.351
2026-06-11 18:08:21.967,3084841423,83967,2,0.93652,-0.18335,-0.38062,11.649,-0.084,-4.13
2026-06-11 18:08:22.176,3084841632,84176,1,0.96729,-0.12183,0.44458,1.183,-0.656,0.748
2026-06-11 18:08:22.176,3084841632,84176,2,0.92383,-0.18042,-0.37476,1.985,4.313,-4.573
2026-06-11 18:08:22.376,3084841832,84376,1,0.96606,-0.09863,0.43604,-4.794,2.588,-1.366
2026-06-11 18:08:22.376,3084841832,84376,2,0.92383,-0.18433,-0.40649,1.45,0.87,1.565
2026-06-11 18:08:22.576,3084842032,84576,1,0.96631,-0.10889,0.43628,2.13,3.771,1.046
2026-06-11 18:08:22.576,3084842032,84576,2,0.93115,-0.18726,-0.37744,1.099,1.389,-1.008
2026-06-11 18:08:22.776,3084842232,84776,1,0.96655,-0.11157,0.43213,3.756,3.42,0.344
2026-06-11 18:08:22.776,3084842232,84776,2,0.93286,-0.18628,-0.39185,-1.542,0.702,-0.74
2026-06-11 18:08:22.010,3084841466,85010,1,0.96118,-0.1001,0.43823,1.511,2.565,0.405
2026-06-11 18:08:22.010,3084841466,85010,2,0.93774,-0.18359,-0.37207,2.221,2.527,-1.435
2026-06-11 18:08:23.210,3084842666,85210,1,0.9646,-0.104,0.44849,5.359,4.16,0.061
2026-06-11 18:08:23.210,3084842666,85210,2,0.94092,-0.17651,-0.37817,-1.595,1.076,-0.931
2026-06-11 18:08:23.410,3084842866,85410,1,0.97559,-0.09009,0.41699,-4.176,2.038,-0.595
2026-06-11 18:08:23.410,3084842866,85410,2,0.93481,-0.1958,-0.37695,-2.458,1.947,1.412
2026-06-11 18:08:23.610,3084843066,85610,1,0.96948,-0.10742,0.42578,-1.275,1.84,2.321
2026-06-11 18:08:23.610,3084843066,85610,2,0.92236,-0.17041,-0.41016,-0.985,0.42,1.336
2026-06-11 18:08:23.810,3084843266,85810,1,0.96729,-0.11572,0.42603,0.275,2.947,0.954
2026-06-11 18:08:23.810,3084843266,85810,2,0.9353,-0.19067,-0.36987,-1.374,1.084,-0.802
2026-06-11 18:08:23.010,3084842466,86010,1,0.96753,-0.12183,0.42871,4.641,2.16,1.519
2026-06-11 18:08:23.010,3084842466,86010,2,0.94141,-0.17969,-0.38452,-2.053,-2.153,-1.733
2026-06-11 18:08:24.260,3084843716,86259,1,0.96313,-0.10522,0.43848,1.023,1.855,-0.107
2026-06-11 18:08:24.260,3084843716,86259,2,0.9397,-0.17334,-0.36011,2.618,0.29,-1.901
2026-06-11 18:08:24.459,3084843915,86459,1,0.95947,-0.10083,0.45044,-2.115,1.885,-1.069
2026-06-11 18:08:24.459,3084843915,86459,2,0.93384,-0.1626,-0.37573,8.191,0.656,-1.244
2026-06-11 18:08:24.659,3084844115,86659,1,0.96729,-0.09668,0.44238,-2.687,2.466,-2.115
2026-06-11 18:08:24.659,3084844115,86659,2,0.93896,-0.18481,-0.37866,-0.267,0.565,-0.771
2026-06-11 18:08:24.915,3084844371,86915,1,0.95728,-0.11377,0.43774,0.099,2.084,1.977
2026-06-11 18:08:24.915,3084844371,86915,2,0.93188,-0.18408,-0.36523,4.191,2.733,-2.641
2026-06-11 18:08:25.115,3084844571,87115,1,0.97192,-0.10767,0.43872,-0.511,-0.015,1.366
2026-06-11 18:08:25.115,3084844571,87115,2,0.94312,-0.16699,-0.39868,-0.122,0.053,-0.656
2026-06-11 18:08:25.315,3084844771,87315,1,0.97729,-0.10083,0.41211,0.573,1.046,0.817
2026-06-11 18:08:25.315,3084844771,87315,2,0.91968,-0.17261,-0.40723,-2.389,-1.924,2.168
2026-06-11 18:08:25.515,3084844971,87515,1,0.97485,-0.10791,0.41089,-0.824,-0.122,-0.351
2026-06-11 18:08:25.515,3084844971,87515,2,0.92383,-0.17944,-0.40015,-1.496,1.107,0.168
2026-06-11 18:08:25.715,3084845171,87715,1,0.97656,-0.10327,0.41479,1.107,-0.427,0.16
2026-06-11 18:08:25.715,3084845171,87715,2,0.92944,-0.18188,-0.3999,0.466,-0.718,-1.069
2026-06-11 18:08:25.915,3084845371,87915,1,0.97681,-0.10571,0.40063,2.405,1.374,1.282
2026-06-11 18:08:25.915,3084845371,87915,2,0.92212,-0.17407,-0.39819,1.069,0.504,-1.115
2026-06-11 18:08:26.115,3084845571,88115,1,0.98145,-0.10938,0.38306,2.893,2.29,1.611
2026-06-11 18:08:26.115,3084845571,88115,2,0.91455,-0.16333,-0.41626,1.939,0.58,-1.29
2026-06-11 18:08:26.348,3084845804,88347,1,0.98096,-0.10181,0.39453,2.534,2.809,1.107
2026-06-11 18:08:26.348,3084845804,88347,2,0.93506,-0.16943,-0.41553,2.038,2.74,-1.038
2026-06-11 18:08:26.547,3084846003,88547,1,0.97852,-0.10645,0.41675,0.053,3.977,0.649
2026-06-11 18:08:26.547,3084846003,88547,2,0.92725,-0.16699,-0.40259,1.336,-1.336,0.893
2026-06-11 18:08:26.747,3084846203,88747,1,0.98584,-0.11987,0.40405,3.214,3.878,2.405
2026-06-11 18:08:26.747,3084846203,88747,2,0.92798,-0.18774,-0.38989,0.061,3.038,-0.947
2026-06-11 18:08:26.948,3084846404,88948,1,0.97656,-0.10864,0.42627,2.954,3.763,0.771
2026-06-11 18:08:26.948,3084846404,88948,2,0.92896,-0.17261,-0.39844,2.435,2.061,-0.573
2026-06-11 18:08:27.148,3084846604,89148,1,0.97559,-0.10571,0.41162,1.679,2.687,0.656
2026-06-11 18:08:27.148,3084846604,89148,2,0.92578,-0.17065,-0.3877,1.252,1.595,-0.611
2026-06-11 18:08:27.348,3084846804,89348,1,0.97656,-0.11157,0.41357,0.511,0.244,-0.16
2026-06-11 18:08:27.348,3084846804,89348,2,0.92383,-0.17798,-0.40625,-0.542,1.29,-0.565
2026-06-11 18:08:27.594,3084847050,89594,1,0.98169,-0.104,0.42896,0.695,1.824,0.053
2026-06-11 18:08:27.594,3084847050,89594,2,0.93188,-0.17456,-0.39038,-0.496,0.702,-0.771
2026-06-11 18:08:27.835,3084847291,89835,1,0.97925,-0.09595,0.40552,0.626,2.099,0.275
2026-06-11 18:08:27.835,3084847291,89835,2,0.92456,-0.17578,-0.39282,-0.603,1.702,-0.076
2026-06-11 18:08:28.082,3084847538,90082,1,0.98242,-0.10693,0.4126,1.649,2.45,0.664
2026-06-11 18:08:28.082,3084847538,90082,2,0.92383,-0.17188,-0.38916,0.603,1.687,0.145
2026-06-11 18:08:28.282,3084847738,90282,1,0.97412,-0.11108,0.41235,1.267,3.061,0.206
2026-06-11 18:08:28.282,3084847738,90282,2,0.92822,-0.1731,-0.40234,0.458,2.397,-0.763
2026-06-11 18:08:28.482,3084847938,90482,1,0.99268,-0.10938,0.41479,-1.794,3.053,0.137
2026-06-11 18:08:28.482,3084847938,90482,2,0.91675,-0.18335,-0.40161,-0.84,1.214,0.16
2026-06-11 18:08:28.682,3084848138,90682,1,0.97705,-0.11206,0.40601,-1.588,0.137,0.107
2026-06-11 18:08:28.682,3084848138,90682,2,0.91699,-0.18774,-0.42822,0.695,-2.015,0.969
2026-06-11 18:08:28.882,3084848338,90882,1,0.96851,-0.11621,0.42065,3.489,1.122,2.137
2026-06-11 18:08:28.882,3084848338,90882,2,0.92407,-0.18481,-0.39502,4.832,0.55,-2.122
2026-06-11 18:08:29.082,3084848538,91082,1,0.97534,-0.11865,0.4043,0.718,1.847,-0.008
2026-06-11 18:08:29.082,3084848538,91082,2,0.93237,-0.1731,-0.39185,-0.145,3.817,-3.328
2026-06-11 18:08:29.282,3084848738,91282,1,0.98706,-0.10205,0.4126,-2.504,2.74,-2.092
2026-06-11 18:08:29.282,3084848738,91282,2,0.93774,-0.16895,-0.3811,4.962,2.519,-2.763
2026-06-11 18:08:29.482,3084848938,91482,1,0.97388,-0.09131,0.41699,-1.725,3.794,-1.206
2026-06-11 18:08:29.482,3084848938,91482,2,0.92847,-0.18188,-0.39209,-0.527,1.198,-0.55
2026-06-11 18:08:29.682,3084849138,91682,1,0.9646,-0.10767,0.40479,-1.183,0.725,0.053
2026-06-11 18:08:29.682,3084849138,91682,2,0.92944,-0.16187,-0.3916,-4.252,2.229,-4.863
2026-06-11 18:08:29.987,3084849443,91987,1,0.97119,-0.08643,0.40991,4.473,1.489,-1.466
2026-06-11 18:08:29.987,3084849443,91987,2,0.93359,-0.14209,-0.39648,3.221,2.038,-1.206
2026-06-11 18:08:30.252,3084849708,92252,1,0.97461,-0.07788,0.41089,0.542,0.405,0.298
2026-06-11 18:08:30.252,3084849708,92252,2,0.92676,-0.14648,-0.38525,-2.725,0.756,1.427
2026-06-11 18:08:30.453,3084849909,92453,1,0.98218,-0.08936,0.39575,-2.534,0.046,-0.489
2026-06-11 18:08:30.453,3084849909,92453,2,0.92822,-0.15063,-0.40869,-0.939,-0.046,1.87
2026-06-11 18:08:30.653,3084850109,92653,1,0.98853,-0.08789,0.40527,-2.092,1.618,-0.504
2026-06-11 18:08:30.653,3084850109,92653,2,0.92212,-0.15723,-0.41089,-1.176,0.634,0.42
2026-06-11 18:08:30.853,3084850309,92853,1,0.97754,-0.08179,0.39502,-0.366,2.282,
2026-06-11 18:08:30.853,3084850309,92853,2,0.91455,-0.15039,-0.41797,-0.779,1.122,0.443
2026-06-11 18:08:30.053,3084849509,93053,1,0.98267,-0.08032,0.38135,0.42,-0.008,1.092
2026-06-11 18:08:30.053,3084849509,93053,2,0.92383,-0.15674,-0.4104,0.878,2.214,-1.069
2026-06-11 18:08:31.253,3084850709,93253,1,0.9873,-0.08203,0.38452,1.183,3.221,1.328
2026-06-11 18:08:31.253,3084850709,93253,2,0.93237,-0.16309,-0.40796,2.527,2.74,-0.168
2026-06-11 18:08:31.462,3084850918,93462,1,0.98193,-0.08423,0.40234,2.321,4.443,0.794
2026-06-11 18:08:31.462,3084850918,93462,2,0.91797,-0.15356,-0.40991,1.427,3.779,-0.763
2026-06-11 18:08:31.704,3084851160,93704,1,0.97461,-0.09351,0.40283,-0.565,2.656,-0.366
2026-06-11 18:08:31.704,3084851160,93704,2,0.92236,-0.15674,-0.40015,0.496,1.977,-1.29
2026-06-11 18:08:31.904,3084851360,93904,1,0.98462,-0.07568,0.40796,0.527,2.214,-0.198
2026-06-11 18:08:31.904,3084851360,93904,2,0.92236,-0.15527,-0.41113,-1.817,0.931,-0.061
2026-06-11 18:08:32.104,3084851560,94104,1,0.98315,-0.08447,0.40942,1.45,0.71,0.588
2026-06-11 18:08:32.104,3084851560,94104,2,0.92383,-0.14722,-0.40479,-0.618,-0.267,-0.214
2026-06-11 18:08:32.304,3084851760,94304,1,0.99414,-0.08081,0.38745,1.344,1.214,1.443
2026-06-11 18:08:32.304,3084851760,94304,2,0.91626,-0.15039,-0.427,-2.107,0.595,0.794
2026-06-11 18:08:32.504,3084851960,94504,1,0.98291,-0.09326,0.40674,-1.0,2.718,-0.511
2026-06-11 18:08:32.504,3084851960,94504,2,0.91724,-0.14941,-0.41235,0.618,2.038,
2026-06-11 18:08:32.712,3084852168,94712,1,0.98267,-0.08398,0.39185,-0.191,2.382,0.267
2026-06-11 18:08:32.712,3084852168,94712,2,0.9209,-0.15796,-0.41455,0.229,0.565,0.382
2026-06-11 18:08:32.931,3084852387,94931,1,0.99121,-0.08374,0.38989,-0.176,1.58,0.557
2026-06-11 18:08:32.931,3084852387,94931,2,0.91626,-0.14722,-0.43213,0.649,2.092,-0.542
2026-06-11 18:08:33.229,3084852685,95229,1,0.97827,-0.09619,0.38916,-0.275,1.908,1.412
2026-06-11 18:08:33.229,3084852685,95229,2,0.91431,-0.15308,-0.42261,1.473,2.313,-0.603
2026-06-11 18:08:33.429,3084852885,95429,1,0.98535,-0.08472,0.39185,1.176,2.695,1.305
2026-06-11 18:08:33.429,3084852885,95429,2,0.90869,-0.16724,-0.41821,2.023,2.359,-0.794
2026-06-11 18:08:33.629,3084853085,95629,1,0.99756,-0.09058,0.3772,1.26,1.878,0.847
2026-06-11 18:08:33.629,3084853085,95629,2,0.92603,-0.18262,-0.39331,1.573,3.237,-2.099
2026-06-11 18:08:33.848,3084853304,95847,1,0.96216,-0.10254,0.40698,0.237,6.763,1.802
2026-06-11 18:08:33.848,3084853304,95847,2,0.94067,-0.17773,-0.38208,-5.191,4.748,2.366
2026-06-11 18:08:33.050,3084852506,96050,1,0.95386,-0.08154,0.4292,-3.588,4.809,3.008
2026-06-11 18:08:33.050,3084852506,96050,2,0.91064,-0.16675,-0.41064,-3.252,-4.153,3.481
2026-06-11 18:08:34.250,3084853706,96250,1,0.95728,-0.1272,0.40942,-1.947,2.832,0.718
2026-06-11 18:08:34.250,3084853706,96250,2,0.91602,-0.15723,-0.43823,-0.588,-0.275,1.962
2026-06-11 18:08:34.450,3084853906,96450,1,0.96362,-0.1062,0.41357,-5.176,-1.947,-0.084
2026-06-11 18:08:34.450,3084853906,96450,2,0.90869,-0.18115,-0.4209,-7.046,-4.305,5.153
2026-06-11 18:08:34.650,3084854106,96650,1,0.99268,-0.11841,0.37476,-4.702,-1.687,-3.771
2026-06-11 18:08:34.650,3084854106,96650,2,0.90112,-0.18579,-0.43311,-4.244,-1.107,1.802
2026-06-11 18:08:34.850,3084854306,96850,1,0.99243,-0.12109,0.38086,-1.389,3.084,-0.672
2026-06-11 18:08:34.850,3084854306,96850,2,0.89673,-0.18506,-0.44556,-0.412,2.511,-0.725
2026-06-11 18:08:35.082,3084854538,97082,1,0.97974,-0.10693,0.38574,5.214,2.305,2.466
2026-06-11 18:08:35.082,3084854538,97082,2,0.90063,-0.17505,-0.42651,6.672,3.099,-5.053
2026-06-11 18:08:35.282,3084854738,97282,1,0.99023,-0.13281,0.38281,6.756,6.405,7.313
2026-06-11 18:08:35.282,3084854738,97282,2,0.91699,-0.17407,-0.44458,11.763,6.802,-5.885
2026-06-11 18:08:35.482,3084854938,97482,1,0.97754,-0.11621,0.38379,11.504,6.824,2.298
2026-06-11 18:08:35.482,3084854938,97482,2,0.93921,-0.16895,-0.34668,-1.595,6.313,-1.023
2026-06-11 18:08:35.793,3084855249,97793,1,0.95728,-0.0874,0.44751,1.229,4.832,0.809
2026-06-11 18:08:35.793,3084855249,97793,2,0.91895,-0.16113,-0.40039,-0.427,-2.412,1.664
2026-06-11 18:08:35.993,3084855449,97993,1,0.96729,-0.10303,0.42896,-1.58,0.229,-0.359
2026-06-11 18:08:35.993,3084855449,97993,2,0.9314,-0.17065,-0.40479,-7.58,0.351,1.878
2026-06-11 18:08:36.217,3084855673,98217,1,0.97339,-0.09595,0.41211,-6.038,-0.344,-1.229
2026-06-11 18:08:36.217,3084855673,98217,2,0.9126,-0.17798,-0.39722,-5.458,-2.466,3.29
2026-06-11 18:08:36.417,3084855873,98417,1,0.98438,-0.11865,0.39966,-6.527,-2.901,-1.084
2026-06-11 18:08:36.417,3084855873,98417,2,0.91284,-0.17603,-0.41968,-5.802,-3.015,1.168
2026-06-11 18:08:36.617,3084856073,98617,1,0.98486,-0.11279,0.38696,-1.321,-0.145,-1.443
2026-06-11 18:08:36.617,3084856073,98617,2,0.91772,-0.18604,-0.41772,-1.931,-1.725,-1.252
2026-06-11 18:08:36.918,3084856374,98918,1,0.99561,-0.10864,0.37988,5.756,4.336,2.099
2026-06-11 18:08:36.918,3084856374,98918,2,0.91675,-0.16138,-0.43262,3.756,3.366,-2.573
2026-06-11 18:08:37.118,3084856574,99118,1,0.97192,-0.09399,0.40869,8.267,4.229,3.863
2026-06-11 18:08:37.118,3084856574,99118,2,0.92432,-0.16089,-0.42358,7.58,4.786,-5.969
2026-06-11 18:08:37.318,3084856774,99318,1,1.00415,-0.09717,0.38135,3.84,0.939,3.534
2026-06-11 18:08:37.318,3084856774,99318,2,0.89795,-0.16724,-0.38574,10.42,1.786,-1.939
2026-06-11 18:08:37.518,3084856974,99518,1,0.96533,-0.12109,0.40674,1.031,3.389,-2.122
2026-06-11 18:08:37.518,3084856974,99518,2,0.9209,-0.16846,-0.43628,-0.947,2.198,-1.618
2026-06-11 18:08:37.753,3084857209,99753,1,0.98608,-0.10132,0.40186,-3.969,1.55,-3.221
2026-06-11 18:08:37.753,3084857209,99753,2,0.92139,-0.16992,-0.40747,-1.603,2.557,-1.252
2026-06-11 18:08:37.953,3084857409,99953,1,0.97876,-0.09863,0.39551,3.237,1.702,-0.16
2026-06-11 18:08:37.953,3084857409,99953,2,0.92529,-0.16821,-0.41309,0.481,0.855,-1.344
2026-06-11 18:08:38.153,3084857609,100153,1,0.98071,-0.08179,0.41846,1.29,-0.435,1.748
2026-06-11 18:08:38.153,3084857609,100153,2,0.92822,-0.15674,-0.41211,0.038,2.298,-0.565
2026-06-11 18:08:38.353,3084857809,100353,1,0.98511,-0.0896,0.39233,1.176,1.328,0.573
2026-06-11 18:08:38.353,3084857809,100353,2,0.93042,-0.15942,-0.41284,-1.076,-0.16,0.321
2026-06-11 18:08:38.592,3084858048,100592,1,0.98413,-0.09253,0.38696,-0.053,-0.618,1.183
2026-06-11 18:08:38.592,3084858048,100592,2,0.92065,-0.15576,-0.42358,-0.031,-0.992,-0.092
2026-06-11 18:08:38.792,3084858248,100792,1,0.99683,-0.10059,0.35718,1.786,0.313,2.687
2026-06-11 18:08:38.792,3084858248,100792,2,0.90967,-0.15088,-0.42139,2.763,4.916,-2.733
2026-06-11 18:08:38.992,3084858448,100992,1,0.98853,-0.10864,0.37085,-0.557,3.496,0.511
2026-06-11 18:08:38.992,3084858448,100992,2,0.90381,-0.14893,-0.44263,1.023,0.603,1.328
2026-06-11 18:08:39.192,3084858648,101192,1,0.99072,-0.11011,0.38989,-2.008,2.42,-0.794
2026-06-11 18:08:39.192,3084858648,101192,2,0.91309,-0.16064,-0.42529,-1.908,-0.55,1.573
2026-06-11 18:08:39.392,3084858848,101392,1,0.98657,-0.10498,0.38892,-0.557,1.885,-0.595
2026-06-11 18:08:39.392,3084858848,101392,2,0.91064,-0.16577,-0.44531,0.122,0.679,1.015
2026-06-11 18:08:39.592,3084859048,101592,1,0.98828,-0.10742,0.38477,-1.435,4.053,-0.725
2026-06-11 18:08:39.592,3084859048,101592,2,0.90723,-0.15723,-0.43433,1.916,2.466,-1.076
2026-06-11 18:08:39.792,3084859248,101792,1,0.98145,-0.10498,0.39063,0.718,3.496,0.58
2026-06-11 18:08:39.792,3084859248,101792,2,0.90552,-0.16919,-0.42944,1.519,3.405,-1.733
2026-06-11 18:08:39.992,3084859448,101992,1,0.99072,-0.09595,0.37598,0.076,2.328,1.618
2026-06-11 18:08:39.992,3084859448,101992,2,0.91284,-0.16016,-0.39917,8.885,-0.359,-2.489
2026-06-11 18:08:40.192,3084859648,102192,1,0.99194,-0.11353,0.3772,0.832,3.191,1.87
2026-06-11 18:08:40.192,3084859648,102192,2,0.91919,-0.15796,-0.43066,-2.565,0.099,0.756
2026-06-11 18:08:40.392,3084859848,102392,1,0.99268,-0.11084,0.37476,0.649,4.565,-0.221
2026-06-11 18:08:40.392,3084859848,102392,2,0.91064,-0.17188,-0.42896,3.985,5.275,-1.168
2026-06-11 18:08:40.592,3084860048,102592,1,0.97485,-0.10181,0.40283,2.427,4.847,0.397
2026-06-11 18:08:40.592,3084860048,102592,2,0.92798,-0.17578,-0.4104,2.756,6.137,-2.137
2026-06-11 18:08:40.830,3084860286,102830,1,0.96826,-0.08936,0.40918,2.214,4.992,1.031
2026-06-11 18:08:40.830,3084860286,102830,2,0.92798,-0.17065,-0.40039,2.74,3.168,-1.0
2026-06-11 18:08:40.030,3084859486,103030,1,0.96533,-0.10571,0.42993,2.885,3.977,1.603
2026-06-11 18:08:40.030,3084859486,103030,2,0.92969,-0.17651,-0.3999,1.542,0.672,-0.29
2026-06-11 18:08:41.230,3084860686,103230,1,0.98022,-0.1106,0.43286,-0.183,1.786,1.145
2026-06-11 18:08:41.230,3084860686,103230,2,0.92773,-0.17139,-0.40308,-1.45,-0.412,0.252
2026-06-11 18:08:41.430,3084860886,103430,1,0.97681,-0.10815,0.41675,0.519,2.412,0.221
2026-06-11 18:08:41.430,3084860886,103430,2,0.95166,-0.18115,-0.3606,6.374,7.885,-3.282
2026-06-11 18:08:41.630,3084861086,103630,1,0.97534,-0.12476,0.38208,10.122,26.42,3.595
2026-06-11 18:08:41.630,3084861086,103630,2,0.85034,-0.12988,-0.2207,27.168,44.389,-5.947
2026-06-11 18:08:41.830,3084861286,103830,1,0.79688,-0.04272,0.26318,-5.832,63.763,3.084
2026-06-11 18:08:41.830,3084861286,103830,2,0.70703,-0.13989,-0.14746,41.153,129.206,9.763
2026-06-11 18:08:41.033,3084860489,104033,1,0.36572,-0.14111,0.85693,0.069,100.275,3.481
2026-06-11 18:08:41.033,3084860489,104033,2,0.78979,-0.24707,0.32251,17.695,83.351,-0.481
2026-06-11 18:08:42.233,3084861689,104233,1,0.42188,-0.04688,1.22681,1.626,-0.145,-3.901
2026-06-11 18:08:42.233,3084861689,104233,2,0.99512,-0.2666,0.40039,10.275,-32.962,2.901
2026-06-11 18:08:42.433,3084861889,104433,1,0.68164,-0.08081,1.04517,-19.626,-64.145,-7.511
2026-06-11 18:08:42.433,3084861889,104433,2,1.93994,-0.42017,0.22388,17.962,-18.908,-1.084
2026-06-11 18:08:42.633,3084862089,104633,1,0.66895,-0.14893,0.7876,30.435,38.756,8.695
2026-06-11 18:08:42.633,3084862089,104633,2,0.78052,-0.11157,0.21997,25.443,42.16,-4.58
2026-06-11 18:08:42.833,3084862289,104833,1,0.55518,-0.02148,0.90527,13.802,-1.595,-0.282
2026-06-11 18:08:42.833,3084862289,104833,2,1.19995,-0.17383,0.36426,7.931,-7.008,-10.947
2026-06-11 18:08:42.033,3084861489,105033,1,0.85522,-0.15063,1.3147,-33.092,32.641,-9.405
2026-06-11 18:08:42.033,3084861489,105033,2,1.06055,-0.33887,0.34253,15.947,42.076,12.328
2026-06-11 18:08:43.233,3084862689,105233,1,0.44287,-0.08301,1.1875,0.359,18.832,6.42
2026-06-11 18:08:43.233,3084862689,105233,2,1.10327,-0.20825,0.35132,14.916,-8.656,-9.557
2026-06-11 18:08:43.433,3084862889,105433,1,0.43237,-0.01294,0.98071,28.122,-13.168,16.527
2026-06-11 18:08:43.433,3084862889,105433,2,0.93433,-0.0686,0.27026,11.076,-34.366,3.13
2026-06-11 18:08:43.633,3084863089,105633,1,0.44971,-0.03418,0.78564,-15.336,-45.122,-4.321
2026-06-11 18:08:43.633,3084863089,105633,2,0.65234,-0.15991,0.12305,-50.16,-72.29,-1.229
2026-06-11 18:08:43.833,3084863289,105833,1,0.48901,-0.03857,0.53198,-12.527,-78.351,-13.863
2026-06-11 18:08:43.833,3084863289,105833,2,0.95459,-0.1709,-0.1582,-48.832,-85.939,-3.809
2026-06-11 18:08:43.033,3084862489,106033,1,0.96875,-0.12012,0.46851,11.74,-13.214,-2.885
2026-06-11 18:08:43.033,3084862489,106033,2,0.94263,-0.25317,-0.31836,-15.893,-18.733,-0.947
2026-06-11 18:08:44.249,3084863705,106249,1,0.98071,-0.08374,0.45337,-8.435,-3.519,-1.481
2026-06-11 18:08:44.249,3084863705,106249,2,1.01929,-0.25342,-0.22461,32.344,42.603,-4.779
2026-06-11 18:08:44.529,3084863985,106528,1,0.2688,0.02124,0.42896,24.336,71.099,4.748
2026-06-11 18:08:44.529,3084863985,106528,2,0.80859,-0.05713,0.01318,8.344,21.023,3.16
2026-06-11 18:08:44.728,3084864184,106728,1,0.65039,-0.07031,0.78052,38.74,61.817,9.534
2026-06-11 18:08:44.728,3084864184,106728,2,0.93994,-0.28784,0.07959,20.763,32.809,0.351
2026-06-11 18:08:44.958,3084864414,106958,1,0.71875,-0.09033,0.9519,-24.679,4.336,-5.282
2026-06-11 18:08:44.958,3084864414,106958,2,1.21729,-0.32373,0.16797,-3.74,15.221,-8.473
2026-06-11 18:08:45.158,3084864614,107158,1,0.93872,-0.01147,0.93677,-6.809,-22.015,4.687
2026-06-11 18:08:45.158,3084864614,107158,2,1.32715,-0.2605,-0.0188,26.656,-35.344,-7.443
2026-06-11 18:08:45.358,3084864814,107358,1,0.64526,-0.10669,1.10376,-1.634,21.618,-3.649
2026-06-11 18:08:45.358,3084864814,107358,2,0.9646,-0.26538,0.18921,7.244,14.29,9.832
2026-06-11 18:08:45.558,3084865014,107558,1,0.6416,-0.16528,0.78345,-14.969,1.481,-4.183
2026-06-11 18:08:45.558,3084865014,107558,2,0.99634,-0.28784,0.16846,13.893,-8.29,-8.45
2026-06-11 18:08:45.758,3084865214,107758,1,0.69775,-0.05664,0.87817,16.198,6.053,6.427
2026-06-11 18:08:45.758,3084865214,107758,2,1.03589,-0.24292,0.18506,6.328,-5.038,-1.069
2026-06-11 18:08:45.958,3084865414,107958,1,0.67139,-0.05444,0.81104,3.969,-4.397,4.023
2026-06-11 18:08:45.958,3084865414,107958,2,1.77319,-0.40283,0.02393,-22.588,-34.802,-1.664
2026-06-11 18:08:46.192,3084865648,108192,1,0.89551,-0.20996,1.10449,8.015,40.183,1.588
2026-06-11 18:08:46.192,3084865648,108192,2,0.96387,-0.18457,0.08789,15.649,2.427,-13.954
2026-06-11 18:08:46.462,3084865918,108462,1,0.63843,-0.02124,0.82324,0.328,-24.687,-4.718
2026-06-11 18:08:46.462,3084865918,108462,2,0.98267,-0.2207,0.06055,-15.435,-28.382,-0.588
2026-06-11 18:08:46.662,3084866118,108662,1,0.54346,-0.04785,0.67554,9.069,-27.595,2.206
2026-06-11 18:08:46.662,3084866118,108662,2,0.66064,-0.13208,0.00879,-8.42,-29.672,-1.115
2026-06-11 18:08:46.862,3084866318,108862,1,0.65063,-0.02905,0.52808,-32.122,-55.664,-10.733
2026-06-11 18:08:46.862,3084866318,108862,2,0.95166,-0.21826,-0.26538,-6.313,-33.618,-2.733
2026-06-11 18:08:47.072,3084866528,109072,1,1.03101,-0.09229,0.39551,-2.321,-37.809,5.817
2026-06-11 18:08:47.072,3084866528,109072,2,0.95264,-0.18921,-0.34448,25.015,-1.198,3.405
2026-06-11 18:08:47.272,3084866728,109272,1,0.97729,-0.1062,0.41821,-10.534,-7.603,-5.947
2026-06-11 18:08:47.272,3084866728,109272,2,0.92847,-0.17505,-0.41821,5.702,7.252,-4.26
2026-06-11 18:08:47.472,3084866928,109472,1,0.98608,-0.09131,0.40625,-3.366,0.435,-3.328
2026-06-11 18:08:47.472,3084866928,109472,2,0.92847,-0.19897,-0.40405,-2.0,11.756,-5.29
2026-06-11 18:08:47.672,3084867128,109672,1,0.97705,-0.07349,0.45313,-1.237,1.16,-7.214
2026-06-11 18:08:47.672,3084867128,109672,2,0.88721,-0.18726,-0.40039,-31.122,-3.053,2.229
2026-06-11 18:08:47.901,3084867357,109900,1,0.97778,-0.07104,0.43091,-6.641,7.771,3.458
2026-06-11 18:08:47.901,3084867357,109900,2,0.92041,-0.15698,-0.3894,8.374,13.649,-2.237
2026-06-11 18:08:48.100,3084867556,110100,1,0.97144,-0.07007,0.42651,-2.885,1.237,0.038
2026-06-11 18:08:48.100,3084867556,110100,2,0.91504,-0.20581,-0.39136,5.221,1.779,0.947
2026-06-11 18:08:48.300,3084867756,110300,1,0.95947,-0.09326,0.43799,0.855,5.389,2.916
2026-06-11 18:08:48.300,3084867756,110300,2,0.91187,-0.20874,-0.40649,1.29,3.885,-3.198
2026-06-11 18:08:48.500,3084867956,110500,1,0.98071,-0.08203,0.42969,2.58,2.863,1.489
2026-06-11 18:08:48.500,3084867956,110500,2,0.91406,-0.20313,-0.39478,3.168,1.962,-2.046
2026-06-11 18:08:48.700,3084868156,110700,1,0.97339,-0.08594,0.41504,0.282,3.359,1.786
2026-06-11 18:08:48.700,3084868156,110700,2,0.91943,-0.18774,-0.39795,0.321,3.198,-0.641
2026-06-11 18:08:48.900,3084868356,110900,1,0.96704,-0.09644,0.43018,-0.74,4.756,0.008
2026-06-11 18:08:48.900,3084868356,110900,2,0.91992,-0.19263,-0.396,1.588,4.069,-0.565
2026-06-11 18:08:49.100,3084868556,111100,1,0.95264,-0.09399,0.44751,-0.756,3.855,-0.443
2026-06-11 18:08:49.100,3084868556,111100,2,0.91699,-0.20093,-0.3855,3.313,-2.809,-1.641
2026-06-11 18:08:49.300,3084868756,111300,1,0.95874,-0.09082,0.4458,0.977,-3.74,-0.382
2026-06-11 18:08:49.300,3084868756,111300,2,0.91748,-0.198,-0.4104,-2.427,-2.954,-0.634
2026-06-11 18:08:49.500,3084868956,111500,1,0.98804,-0.09253,0.4248,2.336,-1.382,0.809
2026-06-11 18:08:49.500,3084868956,111500,2,0.93555,-0.20337,-0.41113,2.534,3.924,-1.84
2026-06-11 18:08:49.700,3084869156,111700,1,1.0,-0.09033,0.40869,6.847,9.626,2.221
2026-06-11 18:08:49.700,3084869156,111700,2,0.95215,-0.19653,-0.38013,7.145,12.42,-2.038
2026-06-11 18:08:49.900,3084869356,111900,1,0.98706,-0.07617,0.4353,3.679,29.679,7.87
2026-06-11 18:08:49.900,3084869356,111900,2,1.00171,-0.20972,-0.2771,0.427,57.191,3.641
2026-06-11 18:08:50.100,3084869556,112100,1,0.74414,-0.10645,0.33398,11.908,110.634,4.031
2026-06-11 18:08:50.100,3084869556,112100,2,0.70093,-0.33276,-0.00513,10.771,96.687,17.092
2026-06-11 18:08:50.300,3084869756,112300,1,0.31641,0.0603,0.79639,-10.656,59.557,-16.55
2026-06-11 18:08:50.300,3084869756,112300,2,0.75513,-0.52759,0.18018,-33.412,28.481,9.718
2026-06-11 18:08:50.500,3084869956,112500,1,0.39258,0.00049,0.94019,-18.969,-9.908,-14.748
2026-06-11 18:08:50.500,3084869956,112500,2,1.02612,-0.25854,0.26318,-22.038,-20.214,1.313
2026-06-11 18:08:50.700,3084870156,112700,1,0.69214,-0.0354,0.96045,6.977,-43.58,9.794
2026-06-11 18:08:50.700,3084870156,112700,2,1.05127,-0.46387,0.16895,24.237,-133.603,-8.718
2026-06-11 18:08:50.900,3084870356,112900,1,1.3313,-0.22998,1.08252,-10.55,-13.672,12.786
2026-06-11 18:08:50.900,3084870356,112900,2,1.35962,-0.24414,0.10278,26.397,69.359,11.313
2026-06-11 18:08:51.100,3084870556,113100,1,0.39893,-0.08057,0.66797,-14.725,13.038,-2.847
2026-06-11 18:08:51.100,3084870556,113100,2,1.15527,-0.32056,0.28735,3.756,-13.511,-2.893
2026-06-11 18:08:51.324,3084870780,113324,1,0.83569,-0.20581,0.95166,8.74,-3.008,2.397
2026-06-11 18:08:51.324,3084870780,113324,2,1.08301,-0.27612,0.11353,-4.443,-14.748,-2.16
2026-06-11 18:08:51.524,3084870980,113524,1,1.13647,-0.29272,1.0354,-12.626,34.809,-6.664
2026-06-11 18:08:51.524,3084870980,113524,2,1.18042,-0.31616,0.29883,26.695,53.656,-5.298
2026-06-11 18:08:51.724,3084871180,113724,1,0.51416,-0.05835,1.03442,15.221,37.321,-6.084
2026-06-11 18:08:51.724,3084871180,113724,2,0.97681,-0.17749,0.37402,9.305,-0.435,-4.061
2026-06-11 18:08:51.924,3084871380,113924,1,0.43286,-0.01929,0.93945,-1.122,-12.267,-7.588
2026-06-11 18:08:51.924,3084871380,113924,2,0.76392,-0.2085,0.23755,-38.115,-37.275,11.45
2026-06-11 18:08:52.124,3084871580,114124,1,0.18115,-0.04077,0.60229,-26.305,-99.328,-12.191
2026-06-11 18:08:52.124,3084871580,114124,2,0.70483,-0.24902,0.02612,-39.008,-114.359,-4.092
2026-06-11 18:08:52.324,3084871780,114324,1,0.98267,-0.07886,0.46753,-10.939,-32.656,-1.267
2026-06-11 18:08:52.324,3084871780,114324,2,0.99683,-0.21021,-0.30444,12.687,-14.252,-5.282
2026-06-11 18:08:52.525,3084871981,114525,1,1.01074,-0.1123,0.42456,-1.374,-5.695,5.198
2026-06-11 18:08:52.525,3084871981,114525,2,0.97241,-0.23999,-0.3728,3.053,-1.969,0.786
2026-06-11 18:08:52.780,3084872236,114780,1,1.02466,-0.09473,0.38306,5.137,30.0,3.122
2026-06-11 18:08:52.780,3084872236,114780,2,1.12671,-0.3374,-0.24805,31.443,46.13,-1.87
2026-06-11 18:08:52.992,3084872448,114991,1,0.47412,-0.14893,0.58008,19.611,155.672,-9.115
2026-06-11 18:08:52.992,3084872448,114991,2,1.02515,-0.08765,0.34741,42.489,115.74,-33.137
2026-06-11 18:08:53.265,3084872721,115265,1,0.17603,0.01733,1.04785,4.298,92.206,-12.939
2026-06-11 18:08:53.265,3084872721,115265,2,0.63867,0.06494,0.85352,52.809,41.244,-21.863
2026-06-11 18:08:53.465,3084872921,115465,1,-0.05884,0.15356,1.15283,-57.618,48.26,-22.328
2026-06-11 18:08:53.465,3084872921,115465,2,0.70142,-0.09204,0.9314,37.725,55.863,-2.969
2026-06-11 18:08:53.665,3084873121,115665,1,-0.15039,0.22632,1.14917,2.443,18.214,5.71
2026-06-11 18:08:53.665,3084873121,115665,2,0.67944,-0.00049,0.90112,-2.221,23.931,5.824
2026-06-11 18:08:53.865,3084873321,115865,1,-0.26758,0.13647,1.13159,-7.366,25.0,2.634
2026-06-11 18:08:53.865,3084873321,115865,2,0.57446,-0.05713,0.95703,3.015,-2.87,5.282
2026-06-11 18:08:54.065,3084873521,116065,1,-0.22119,0.05884,1.03198,-27.099,-3.351,3.16
2026-06-11 18:08:54.065,3084873521,116065,2,0.71631,-0.13232,0.87378,-10.595,-9.489,8.122
2026-06-11 18:08:54.265,3084873721,116265,1,-0.15771,0.0271,1.06909,13.412,-0.137,7.733
2026-06-11 18:08:54.265,3084873721,116265,2,0.66992,-0.04736,0.92212,0.924,-1.053,0.832
2026-06-11 18:08:54.478,3084873934,116478,1,-0.33618,0.03125,1.39429,-5.969,-14.351,-4.611
2026-06-11 18:08:54.478,3084873934,116478,2,0.84473,-0.08691,0.79346,-31.023,-126.122,13.641
2026-06-11 18:08:54.701,3084874157,116700,1,0.05176,0.07446,1.06372,-16.893,-126.641,4.099
2026-06-11 18:08:54.701,3084874157,116700,2,0.854,-0.19312,0.17139,-52.244,-140.718,18.053
2026-06-11 18:08:54.900,3084874356,116900,1,0.52979,-0.05151,0.55103,-16.305,-137.427,7.26
2026-06-11 18:08:54.900,3084874356,116900,2,0.98438,-0.22559,-0.14429,-28.099,-96.87,-0.321
2026-06-11 18:08:55.100,3084874556,117100,1,0.90063,-0.06714,0.46533,-9.939,-72.718,-2.916
2026-06-11 18:08:55.100,3084874556,117100,2,0.95508,-0.30615,-0.34204,-20.328,-44.893,6.573
2026-06-11 18:08:55.300,3084874756,117300,1,1.02637,-0.11719,0.38916,-7.511,-22.023,-2.809
2026-06-11 18:08:55.300,3084874756,117300,2,0.86987,-0.21484,-0.48755,-16.374,-18.084,6.252
2026-06-11 18:08:55.500,3084874956,117500,1,0.99268,-0.08447,0.38232,-10.718,-6.649,-0.351
2026-06-11 18:08:55.500,3084874956,117500,2,0.88477,-0.21777,-0.48438,-5.718,-3.275,1.656
2026-06-11 18:08:55.700,3084875156,117700,1,1.0105,-0.09717,0.36597,-4.046,-0.466,-3.389
2026-06-11 18:08:55.700,3084875156,117700,2,0.85767,-0.22754,-0.49951,3.107,-0.763,-1.748
2026-06-11 18:08:55.900,3084875356,117900,1,0.99414,-0.09668,0.36108,7.771,0.786,3.496
2026-06-11 18:08:55.900,3084875356,117900,2,0.85059,-0.20557,-0.53296,1.458,-0.214,1.015
2026-06-11 18:08:56.100,3084875556,118100,1,0.99878,-0.08203,0.36377,-2.29,3.954,-1.885
2026-06-11 18:08:56.100,3084875556,118100,2,0.8667,-0.22314,-0.49097,7.069,7.573,-3.267
2026-06-11 18:08:56.303,3084875759,118303,1,1.00269,-0.07813,0.36523,-3.786,1.908,-0.656
2026-06-11 18:08:56.303,3084875759,118303,2,0.86597,-0.22119,-0.50537,-0.229,4.359,0.611
2026-06-11 18:08:56.503,3084875959,118503,1,0.99658,-0.08203,0.37866,-0.565,4.664,-0.008
2026-06-11 18:08:56.503,3084875959,118503,2,0.87085,-0.21094,-0.479,4.176,5.748,-2.985
2026-06-11 18:08:56.703,3084876159,118703,1,0.96509,-0.07397,0.37305,1.176,5.176,-1.786
2026-06-11 18:08:56.703,3084876159,118703,2,0.77783,-0.25171,-0.48828,-8.298,-4.542,5.771
2026-06-11 18:08:56.903,3084876359,118903,1,0.99683,-0.08594,0.35425,-0.893,0.321,2.603
2026-06-11 18:08:56.903,3084876359,118903,2,0.87256,-0.23096,-0.45996,1.481,10.832,1.168
2026-06-11 18:08:57.103,3084876559,119103,1,0.98486,-0.08252,0.37061,0.13,3.282,0.824
2026-06-11 18:08:57.103,3084876559,119103,2,0.85474,-0.22925,-0.49487,3.519,1.916,2.321
2026-06-11 18:08:57.303,3084876759,119303,1,0.9895,-0.08228,0.38428,1.214,2.992,1.519
2026-06-11 18:08:57.303,3084876759,119303,2,0.85815,-0.2229,-0.48755,1.672,3.733,0.023
2026-06-11 18:08:57.503,3084876959,119503,1,0.98364,-0.09375,0.39893,0.595,2.359,-0.053
2026-06-11 18:08:57.503,3084876959,119503,2,0.86157,-0.23169,-0.47778,2.252,1.412,-2.618
2026-06-11 18:08:57.703,3084877159,119703,1,0.98438,-0.08228,0.4021,3.427,1.679,0.809
2026-06-11 18:08:57.703,3084877159,119703,2,0.86719,-0.22949,-0.48657,1.29,1.336,-1.908
2026-06-11 18:08:57.903,3084877359,119903,1,0.9917,-0.08594,0.37915,0.748,1.863,0.878
2026-06-11 18:08:57.903,3084877359,119903,2,0.87305,-0.22876,-0.47095,2.053,4.359,-1.229
2026-06-11 18:08:58.106,3084877562,120106,1,0.98682,-0.08789,0.38232,1.649,3.695,2.496
2026-06-11 18:08:58.106,3084877562,120106,2,0.87793,-0.22681,-0.46777,1.763,2.397,-1.023
2026-06-11 18:08:58.306,3084877762,120306,1,0.98584,-0.08716,0.39844,0.573,2.878,0.817
2026-06-11 18:08:58.306,3084877762,120306,2,0.87085,-0.21826,-0.45874,2.542,1.588,-1.504
2026-06-11 18:08:58.506,3084877962,120506,1,0.97192,-0.08887,0.39063,2.206,2.863,0.496
2026-06-11 18:08:58.506,3084877962,120506,2,0.87329,-0.22705,-0.46606,-1.473,-0.008,-0.038
2026-06-11 18:08:58.777,3084878233,120777,1,0.99365,-0.08838,0.40601,-0.405,0.924,-0.382
2026-06-11 18:08:58.777,3084878233,120777,2,0.87207,-0.22876,-0.45728,1.061,1.145,-0.779
2026-06-11 18:08:58.984,3084878440,120984,1,0.98389,-0.08472,0.4043,1.496,2.366,0.634
2026-06-11 18:08:58.984,3084878440,120984,2,0.86963,-0.21899,-0.46948,-0.71,0.023,-0.046
2026-06-11 18:08:59.184,3084878640,121184,1,0.98291,-0.09204,0.39575,0.771,1.878,0.519
2026-06-11 18:08:59.184,3084878640,121184,2,0.87549,-0.21387,-0.47876,-0.168,-0.351,0.901
2026-06-11 18:08:59.384,3084878840,121384,1,0.97754,-0.09326,0.40503,0.649,2.344,0.832
2026-06-11 18:08:59.384,3084878840,121384,2,0.86987,-0.23022,-0.46729,1.649,1.511,-0.481
2026-06-11 18:08:59.584,3084879040,121584,1,0.9895,-0.08545,0.39136,1.015,1.221,0.573
2026-06-11 18:08:59.584,3084879040,121584,2,0.87085,-0.22632,-0.46411,-0.679,0.435,-0.053
2026-06-11 18:08:59.784,3084879240,121784,1,0.99487,-0.09155,0.39111,-0.351,1.626,0.588
2026-06-11 18:08:59.784,3084879240,121784,2,0.86108,-0.21948,-0.48022,1.038,3.55,-0.481
2026-06-11 18:08:59.024,3084878480,122024,1,0.98999,-0.09253,0.3894,1.573,1.817,0.595
2026-06-11 18:08:59.024,3084878480,122024,2,0.87744,-0.22876,-0.46606,1.786,1.55,-1.359
2026-06-11 18:09:00.224,3084879680,122224,1,0.98608,-0.08374,0.38257,0.916,2.58,-0.55
2026-06-11 18:09:00.224,3084879680,122224,2,0.87402,-0.22412,-0.46484,1.916,3.183,-2.435
2026-06-11 18:09:00.424,3084879880,122424,1,0.98315,-0.08398,0.38354,0.679,3.145,0.527
2026-06-11 18:09:00.424,3084879880,122424,2,0.87036,-0.21338,-0.46973,0.229,2.618,-0.847
2026-06-11 18:09:00.624,3084880080,122624,1,0.98633,-0.08325,0.38745,0.183,4.038,0.756
2026-06-11 18:09:00.624,3084880080,122624,2,0.88354,-0.2168,-0.46118,1.809,0.374,-1.252
2026-06-11 18:09:00.900,3084880356,122900,1,0.99048,-0.08594,0.3894,1.351,3.107,0.992
2026-06-11 18:09:00.900,3084880356,122900,2,0.87231,-0.22144,-0.46777,2.87,1.351,-1.809
2026-06-11 18:09:01.100,3084880556,123100,1,0.9856,-0.09448,0.39307,0.794,4.595,0.603
2026-06-11 18:09:01.100,3084880556,123100,2,0.87549,-0.22827,-0.45361,3.313,5.443,-1.565
2026-06-11 18:09:01.300,3084880756,123300,1,1.03735,-0.11523,0.35352,2.954,22.412,4.145
2026-06-11 18:09:01.300,3084880756,123300,2,1.01831,-0.23462,-0.38623,27.16,49.26,-11.885
2026-06-11 18:09:01.511,3084880967,123511,1,0.96069,-0.09766,0.33276,18.534,84.718,3.16
2026-06-11 18:09:01.511,3084880967,123511,2,1.0769,-0.22998,-0.12695,63.0,127.198,-16.092
2026-06-11 18:09:01.711,3084881167,123711,1,0.32495,-0.02148,0.50586,15.13,196.519,-8.511
2026-06-11 18:09:01.711,3084881167,123711,2,0.69751,-0.27588,0.02563,39.252,216.435,-13.023
2026-06-11 18:09:01.911,3084881367,123911,1,-0.2605,0.07983,1.2561,-4.748,114.153,11.511
2026-06-11 18:09:01.911,3084881367,123911,2,0.77661,0.06689,0.93994,45.863,91.191,-9.565
2026-06-11 18:09:02.111,3084881567,124111,1,-0.35718,0.12622,1.23779,-30.779,51.664,-6.366
2026-06-11 18:09:02.111,3084881567,124111,2,0.54077,-0.04736,1.08545,7.359,22.985,5.351
2026-06-11 18:09:02.311,3084881767,124311,1,-0.2854,0.052,1.09766,-7.924,5.489,4.809
2026-06-11 18:09:02.311,3084881767,124311,2,0.53638,-0.02271,1.03906,0.58,-8.015,4.939
2026-06-11 18:09:02.511,3084881967,124511,1,-0.34009,0.0459,1.09644,-5.366,-20.504,-7.595
2026-06-11 18:09:02.511,3084881967,124511,2,0.62598,-0.09058,0.98291,-9.244,-41.466,-3.168
2026-06-11 18:09:02.770,3084882226,124770,1,-0.1438,0.0144,1.22803,11.168,-30.069,-5.076
2026-06-11 18:09:02.770,3084882226,124770,2,0.74805,-0.03882,0.93188,-10.534,-76.198,5.855
2026-06-11 18:09:02.970,3084882426,124970,1,-0.03076,0.01465,1.26733,-13.924,-56.656,8.466
2026-06-11 18:09:02.970,3084882426,124970,2,0.89502,-0.2002,0.56885,-48.183,-138.992,23.573
2026-06-11 18:09:03.170,3084882626,125170,1,0.23389,-0.08643,0.7688,-19.939,-167.74,-3.794
2026-06-11 18:09:03.170,3084882626,125170,2,0.88477,-0.21606,-0.15698,-42.87,-138.038,4.076
2026-06-11 18:09:03.370,3084882826,125370,1,0.8877,-0.12524,0.31592,-11.947,-84.137,-15.023
2026-06-11 18:09:03.370,3084882826,125370,2,0.96631,-0.2478,-0.48193,-23.397,-51.29,4.405
2026-06-11 18:09:03.570,3084883026,125570,1,0.97241,-0.1084,0.40601,4.26,-5.649,1.634
2026-06-11 18:09:03.570,3084883026,125570,2,0.90405,-0.26123,-0.5127,-11.901,-11.664,-2.832
2026-06-11 18:09:03.777,3084883233,125777,1,0.97754,-0.10669,0.38696,6.969,26.618,2.603
2026-06-11 18:09:03.777,3084883233,125777,2,0.93188,-0.26685,-0.41211,19.084,55.832,-7.611
2026-06-11 18:09:03.977,3084883433,125977,1,0.37354,0.02002,0.4082,22.817,78.809,2.389
2026-06-11 18:09:03.977,3084883433,125977,2,0.71118,-0.34448,-0.25342,-32.916,26.397,9.511
2026-06-11 18:09:04.177,3084883633,126177,1,0.65259,-0.0603,0.6748,13.504,5.099,-2.298
2026-06-11 18:09:04.177,3084883633,126177,2,0.91333,-0.40234,-0.0437,2.847,23.947,12.824
2026-06-11 18:09:04.398,3084883854,126398,1,0.82349,-0.16895,0.87036,-35.634,-5.366,-3.115
2026-06-11 18:09:04.398,3084883854,126398,2,1.1665,-0.32593,-0.18408,-6.977,-6.489,-6.71
2026-06-11 18:09:04.598,3084884054,126598,1,1.05347,-0.15601,0.9231,21.885,2.053,-1.542
2026-06-11 18:09:04.598,3084884054,126598,2,1.25171,-0.29761,-0.13452,-1.282,22.863,0.092
2026-06-11 18:09:04.798,3084884254,126798,1,0.79175,-0.10889,0.77954,2.542,36.405,0.137
2026-06-11 18:09:04.798,3084884254,126798,2,1.00708,-0.28735,0.00513,3.58,4.794,-2.031
2026-06-11 18:09:04.998,3084884454,126998,1,0.67651,-0.13965,0.82568,16.687,5.908,2.313
2026-06-11 18:09:04.998,3084884454,126998,2,1.02881,-0.27563,-0.01733,10.489,1.29,-4.237
2026-06-11 18:09:05.198,3084884654,127198,1,0.78662,-0.06396,0.80859,-14.977,-6.901,0.115
2026-06-11 18:09:05.198,3084884654,127198,2,1.07886,-0.27783,-0.02759,-7.527,-2.076,6.382
2026-06-11 18:09:05.398,3084884854,127398,1,0.71533,-0.10962,0.76489,-7.427,-9.13,-1.985
2026-06-11 18:09:05.398,3084884854,127398,2,0.98901,-0.26343,-0.05688,-8.137,-15.405,-3.031
2026-06-11 18:09:05.607,3084885063,127607,1,0.81665,-0.07788,0.64648,2.076,-18.695,-9.679
2026-06-11 18:09:05.607,3084885063,127607,2,0.98145,-0.25732,-0.17261,-8.29,-12.412,-1.557
2026-06-11 18:09:05.807,3084885263,127807,1,0.88062,-0.08545,0.65308,3.237,-4.29,3.466
2026-06-11 18:09:05.807,3084885263,127807,2,1.00073,-0.26855,-0.19922,-3.122,-0.099,7.672
2026-06-11 18:09:05.007,3084884463,128007,1,0.83838,-0.10327,0.64014,-8.351,3.221,5.969
2026-06-11 18:09:05.007,3084884463,128007,2,0.98315,-0.31445,-0.23193,3.939,-6.924,5.397
2026-06-11 18:09:06.213,3084885669,128213,1,0.83154,-0.12354,0.68579,2.237,4.595,8.924
2026-06-11 18:09:06.213,3084885669,128213,2,0.9707,-0.28613,-0.1897,6.725,-3.405,11.725
2026-06-11 18:09:06.521,3084885977,128520,1,0.80103,-0.28223,0.66284,-2.298,9.603,13.931
2026-06-11 18:09:06.521,3084885977,128520,2,0.95142,-0.40601,-0.19873,11.954,2.29,-2.183
2026-06-11 18:09:06.720,3084886176,128720,1,0.76904,-0.25562,0.69141,-3.519,4.313,7.0
2026-06-11 18:09:06.720,3084886176,128720,2,0.94824,-0.40259,-0.18042,1.595,-2.824,2.725
2026-06-11 18:09:06.920,3084886376,128920,1,0.93457,-0.35742,0.74731,-2.214,-15.366,-2.092
2026-06-11 18:09:06.920,3084886376,128920,2,0.99927,-0.35571,-0.12793,28.221,46.397,-22.779
2026-06-11 18:09:07.225,3084886681,129225,1,0.66602,-0.11255,0.81055,0.344,7.275,-25.16
2026-06-11 18:09:07.225,3084886681,129225,2,0.96875,-0.31372,-0.10669,-8.275,-7.191,-11.466
2026-06-11 18:09:07.425,3084886881,129425,1,0.70923,0.00928,0.69043,8.137,-27.153,-12.443
2026-06-11 18:09:07.425,3084886881,129425,2,0.92236,-0.19067,-0.14697,-8.71,-28.87,-9.275
2026-06-11 18:09:07.625,3084887081,129625,1,0.60254,-0.01514,0.50562,5.069,-26.74,-0.756
2026-06-11 18:09:07.625,3084887081,129625,2,0.8335,-0.37988,-0.25879,-27.74,-38.588,0.679
2026-06-11 18:09:07.847,3084887303,129846,1,0.88379,-0.13892,0.44922,23.0,-15.275,15.344
2026-06-11 18:09:07.847,3084887303,129846,2,0.90308,-0.23242,-0.37012,-28.344,-33.389,1.885
2026-06-11 18:09:07.046,3084886502,130046,1,0.97217,-0.03662,0.47437,12.489,6.458,3.145
2026-06-11 18:09:07.046,3084886502,130046,2,0.83667,-0.19263,-0.47607,-7.008,-29.0,-3.412
2026-06-11 18:09:08.246,3084887702,130246,1,0.98682,-0.05298,0.43774,8.076,-6.504,4.168
2026-06-11 18:09:08.246,3084887702,130246,2,0.90356,-0.20435,-0.43286,14.13,-0.679,-10.092
2026-06-11 18:09:08.446,3084887902,130446,1,0.97949,-0.06934,0.42017,1.145,-3.992,0.336
2026-06-11 18:09:08.446,3084887902,130446,2,0.89355,-0.21289,-0.45215,8.641,9.603,-6.267
2026-06-11 18:09:08.676,3084888132,130676,1,0.97241,-0.06055,0.41724,-3.275,2.832,-2.603
2026-06-11 18:09:08.676,3084888132,130676,2,0.89258,-0.20825,-0.42578,-3.733,1.031,2.809
2026-06-11 18:09:08.879,3084888335,130879,1,0.97583,-0.06958,0.43433,-5.305,4.237,-1.916
2026-06-11 18:09:08.879,3084888335,130879,2,0.88916,-0.21387,-0.44214,-2.092,1.038,0.107
2026-06-11 18:09:09.079,3084888535,131079,1,0.96875,-0.06958,0.43604,-1.221,1.389,0.45
2026-06-11 18:09:09.079,3084888535,131079,2,0.89648,-0.21899,-0.43042,-0.374,2.443,1.634
2026-06-11 18:09:09.301,3084888757,131301,1,0.97852,-0.07178,0.41333,-2.359,4.389,0.374
2026-06-11 18:09:09.301,3084888757,131301,2,0.91284,-0.21436,-0.42554,2.008,7.244,-0.916
2026-06-11 18:09:09.501,3084888957,131501,1,1.00342,-0.06665,0.40308,4.802,25.145,2.443
2026-06-11 18:09:09.501,3084888957,131501,2,0.97583,-0.21899,-0.38232,25.824,38.809,-5.832
2026-06-11 18:09:09.701,3084889157,131701,1,0.92017,-0.05811,0.34839,11.718,96.634,-0.374
2026-06-11 18:09:09.701,3084889157,131701,2,0.91504,-0.15723,-0.04956,50.267,155.611,0.351
2026-06-11 18:09:09.937,3084889393,131937,1,0.15234,-0.0481,0.6792,31.962,192.588,4.366
2026-06-11 18:09:09.937,3084889393,131937,2,0.82275,-0.01685,0.73877,42.565,114.794,-12.13
2026-06-11 18:09:10.205,3084889661,132205,1,-0.38623,0.17383,1.29736,-1.061,63.794,7.756
2026-06-11 18:09:10.205,3084889661,132205,2,0.55347,-0.03906,1.05029,11.137,18.901,1.176
2026-06-11 18:09:10.472,3084889928,132472,1,-0.26367,0.04517,1.02417,-10.618,4.863,0.435
2026-06-11 18:09:10.472,3084889928,132472,2,0.52515,-0.052,0.99634,2.626,5.183,3.45
2026-06-11 18:09:10.672,3084890128,132672,1,-0.36694,0.09155,1.18286,-4.115,-11.748,-4.183
2026-06-11 18:09:10.672,3084890128,132672,2,0.46069,-0.01782,1.14722,-9.618,-43.74,15.076
2026-06-11 18:09:10.872,3084890328,132872,1,-0.19287,-0.03442,1.16113,0.443,-43.84,-4.763
2026-06-11 18:09:10.872,3084890328,132872,2,0.88354,-0.21045,0.75293,-47.969,-111.092,17.099
2026-06-11 18:09:11.098,3084890554,133098,1,-0.04272,0.01904,1.12524,-3.031,-109.626,4.496
2026-06-11 18:09:11.098,3084890554,133098,2,0.97485,-0.19922,0.33813,-42.542,-137.641,9.779
2026-06-11 18:09:11.298,3084890754,133298,1,0.42188,-0.08838,0.64771,-12.015,-139.374,-12.389
2026-06-11 18:09:11.298,3084890754,133298,2,1.0791,-0.32373,-0.16479,-45.71,-136.099,0.504
2026-06-11 18:09:11.498,3084890954,133498,1,0.92456,-0.0105,0.40088,-12.153,-84.885,-7.107
2026-06-11 18:09:11.498,3084890954,133498,2,0.90356,-0.29395,-0.52441,-24.099,-57.733,-12.244
2026-06-11 18:09:11.727,3084891183,133727,1,1.04443,-0.01514,0.28638,16.687,-35.282,-2.382
2026-06-11 18:09:11.727,3084891183,133727,2,0.8562,-0.1814,-0.60132,-2.489,-0.519,-0.634
2026-06-11 18:09:11.927,3084891383,133927,1,1.05371,-0.04175,0.29395,-2.176,5.916,-15.603
2026-06-11 18:09:11.927,3084891383,133927,2,0.82373,-0.19507,-0.53174,0.397,23.015,-4.313
2026-06-11 18:09:12.127,3084891583,134127,1,1.00073,0.01318,0.38818,0.695,9.298,-1.763
2026-06-11 18:09:12.127,3084891583,134127,2,0.85156,-0.17603,-0.49951,11.206,13.328,-6.053
2026-06-11 18:09:12.327,3084891783,134327,1,1.03833,0.03491,0.33545,-1.313,50.092,4.55
2026-06-11 18:09:12.327,3084891783,134327,2,0.9895,-0.24146,-0.41406,16.038,91.679,-2.504
2026-06-11 18:09:12.527,3084891983,134527,1,0.50732,-0.03223,0.62427,40.824,197.695,-8.786
2026-06-11 18:09:12.527,3084891983,134527,2,0.9104,-0.09766,-0.07153,123.611,170.397,-33.908
2026-06-11 18:09:12.727,3084892183,134727,1,0.00635,0.06934,1.2334,-18.794,155.221,-9.031
2026-06-11 18:09:12.727,3084892183,134727,2,0.87842,-0.13794,0.77808,-0.481,81.16,-20.115
2026-06-11 18:09:12.944,3084892400,134944,1,-0.30347,0.26904,1.18359,17.71,16.672,4.611
2026-06-11 18:09:12.944,3084892400,134944,2,0.72681,-0.04443,0.83154,-7.29,37.824,-4.275
2026-06-11 18:09:13.144,3084892600,135144,1,-0.20825,0.23193,1.21045,8.977,6.809,7.626
2026-06-11 18:09:13.144,3084892600,135144,2,0.53003,0.01099,0.99097,14.29,31.069,5.832
2026-06-11 18:09:13.383,3084892839,135382,1,-0.16064,0.09985,1.04907,-33.061,21.267,-1.847
2026-06-11 18:09:13.383,3084892839,135382,2,0.65308,-0.02637,0.95361,5.779,14.626,-2.687
2026-06-11 18:09:13.588,3084893044,135588,1,-0.24316,0.14331,1.13086,5.802,6.298,1.344
2026-06-11 18:09:13.588,3084893044,135588,2,0.55762,-0.0061,0.99438,3.641,1.534,-1.824
2026-06-11 18:09:13.788,3084893244,135788,1,-0.16846,0.17798,0.98682,3.527,-3.397,-0.885
2026-06-11 18:09:13.788,3084893244,135788,2,0.58423,-0.00317,0.95557,-1.611,1.473,1.435
2026-06-11 18:09:13.988,3084893444,135988,1,-0.27344,0.16309,1.25098,-9.855,-26.389,2.954
2026-06-11 18:09:13.988,3084893444,135988,2,0.71045,0.00366,1.03003,-0.603,-93.405,11.0
2026-06-11 18:09:14.188,3084893644,136188,1,-0.13232,0.21265,1.22095,-29.443,-98.26,24.053
2026-06-11 18:09:14.188,3084893644,136188,2,0.86865,-0.20557,0.1709,-56.084,-132.672,27.748
2026-06-11 18:09:14.398,3084893854,136398,1,0.42383,-0.02905,0.62085,-31.397,-131.351,13.557
2026-06-11 18:09:14.398,3084893854,136398,2,0.9646,-0.21973,-0.05615,-42.893,-100.885,3.237
2026-06-11 18:09:14.598,3084894054,136598,1,0.83618,-0.10986,0.4126,4.389,-107.099,17.336
2026-06-11 18:09:14.598,3084894054,136598,2,0.99072,-0.21191,-0.32202,-19.626,-69.198,7.435
2026-06-11 18:09:14.798,3084894254,136798,1,0.98975,-0.15137,0.42456,4.191,-31.16,-1.992
2026-06-11 18:09:14.798,3084894254,136798,2,0.9082,-0.21631,-0.45801,3.702,-27.832,-5.733
2026-06-11 18:09:14.998,3084894454,136998,1,1.02759,-0.11792,0.36133,-4.725,-3.298,-4.481
2026-06-11 18:09:14.998,3084894454,136998,2,0.87964,-0.2334,-0.52197,0.885,0.893,1.229
2026-06-11 18:09:15.229,3084894685,137229,1,0.98193,-0.11792,0.39331,-4.275,3.427,-3.809
2026-06-11 18:09:15.229,3084894685,137229,2,0.82935,-0.22339,-0.4978,-4.031,-1.672,3.061
2026-06-11 18:09:15.444,3084894900,137444,1,0.979,-0.1123,0.38721,-5.618,-6.107,-2.13
2026-06-11 18:09:15.444,3084894900,137444,2,0.85034,-0.25391,-0.50586,-4.557,-0.595,-0.855
2026-06-11 18:09:15.644,3084895100,137644,1,0.99194,-0.09375,0.37134,5.962,1.084,-1.145
2026-06-11 18:09:15.644,3084895100,137644,2,0.84058,-0.20752,-0.52271,1.611,-6.229,-2.336
2026-06-11 18:09:15.844,3084895300,137844,1,0.98511,-0.08374,0.36426,6.733,-2.061,2.382
2026-06-11 18:09:15.844,3084895300,137844,2,0.84302,-0.19995,-0.52344,-0.863,1.756,-1.458
2026-06-11 18:09:15.044,3084894500,138044,1,1.00635,-0.08789,0.34961,-0.122,0.786,-1.985
2026-06-11 18:09:15.044,3084894500,138044,2,0.83472,-0.21289,-0.53247,1.687,4.076,0.061
2026-06-11 18:09:16.245,3084895701,138245,1,1.0061,-0.08081,0.34521,5.427,3.893,0.947
2026-06-11 18:09:16.245,3084895701,138245,2,0.83984,-0.21094,-0.51611,2.618,0.046,-1.397
2026-06-11 18:09:16.540,3084895996,138540,1,0.99927,-0.06787,0.34961,-0.244,3.779,-0.458
2026-06-11 18:09:16.540,3084895996,138540,2,0.83228,-0.20361,-0.52832,-5.779,2.794,3.565
2026-06-11 18:09:16.792,3084896248,138792,1,1.00195,-0.07373,0.35132,-6.13,1.191,-0.557
2026-06-11 18:09:16.792,3084896248,138792,2,0.83081,-0.21143,-0.51782,0.061,5.695,1.534
2026-06-11 18:09:16.992,3084896448,138992,1,0.98926,-0.08423,0.35254,-3.832,1.634,1.366
2026-06-11 18:09:16.992,3084896448,138992,2,0.8396,-0.21851,-0.50806,0.053,-0.267,1.321
2026-06-11 18:09:17.192,3084896648,139192,1,1.00562,-0.09375,0.35376,-0.16,3.389,1.389
2026-06-11 18:09:17.192,3084896648,139192,2,0.83276,-0.21729,-0.52563,1.443,-0.305,1.481
2026-06-11 18:09:17.392,3084896848,139392,1,1.00342,-0.10059,0.35767,-3.099,3.16,0.626
2026-06-11 18:09:17.392,3084896848,139392,2,0.83545,-0.21753,-0.50757,8.481,8.878,-5.191
2026-06-11 18:09:17.592,3084897048,139592,1,0.99023,-0.08813,0.3562,2.267,4.405,-0.901
2026-06-11 18:09:17.592,3084897048,139592,2,0.86475,-0.22754,-0.5061,1.313,1.748,-0.748
2026-06-11 18:09:17.792,3084897248,139792,1,0.98682,-0.08984,0.3689,0.924,4.397,2.29
2026-06-11 18:09:17.792,3084897248,139792,2,0.86011,-0.22266,-0.48438,2.366,3.374,-1.321
2026-06-11 18:09:18.166,3084897622,140166,1,0.98462,-0.09155,0.38794,1.366,0.924,-0.511
2026-06-11 18:09:18.166,3084897622,140166,2,0.85645,-0.22485,-0.49243,-0.038,0.71,0.878
2026-06-11 18:09:18.366,3084897822,140366,1,0.98901,-0.09473,0.37524,-1.107,3.092,-0.702
2026-06-11 18:09:18.366,3084897822,140366,2,0.8645,-0.22583,-0.48779,-0.137,1.588,0.466
2026-06-11 18:09:18.566,3084898022,140566,1,0.9812,-0.0918,0.37549,0.473,2.336,0.74
2026-06-11 18:09:18.566,3084898022,140566,2,0.85156,-0.22607,-0.47656,1.733,2.344,-1.076
2026-06-11 18:09:18.766,3084898222,140766,1,0.99292,-0.0791,0.37573,1.321,1.611,-0.435
2026-06-11 18:09:18.766,3084898222,140766,2,0.85327,-0.21948,-0.48828,-3.16,1.214,1.443
2026-06-11 18:09:18.966,3084898422,140966,1,0.99487,-0.08179,0.37134,-1.496,1.366,-0.702
2026-06-11 18:09:18.966,3084898422,140966,2,0.85596,-0.22363,-0.48779,-1.305,2.122,1.397
2026-06-11 18:09:19.166,3084898622,141166,1,0.98706,-0.08496,0.3833,1.092,1.847,0.779
2026-06-11 18:09:19.166,3084898622,141166,2,0.854,-0.2146,-0.49902,-1.901,1.031,0.908
2026-06-11 18:09:19.369,3084898825,141369,1,0.98682,-0.08618,0.37256,-0.061,0.855,-0.153
2026-06-11 18:09:19.369,3084898825,141369,2,0.85059,-0.21387,-0.48779,-0.321,1.42,-1.305
2026-06-11 18:09:19.569,3084899025,141569,1,1.00195,-0.08545,0.37109,0.626,1.443,0.328
2026-06-11 18:09:19.569,3084899025,141569,2,0.85669,-0.21265,-0.4978,2.359,2.519,-2.939
2026-06-11 18:09:19.769,3084899225,141769,1,1.00098,-0.08472,0.37354,0.733,1.794,0.313
2026-06-11 18:09:19.769,3084899225,141769,2,0.86182,-0.22144,-0.49438,2.321,1.901,-2.229
2026-06-11 18:09:19.969,3084899425,141969,1,0.99121,-0.07813,0.37744,2.908,2.824,1.29
2026-06-11 18:09:19.969,3084899425,141969,2,0.8584,-0.21484,-0.49731,2.664,0.878,-1.55
2026-06-11 18:09:20.169,3084899625,142169,1,0.99683,-0.08618,0.36963,0.16,3.779,1.305
2026-06-11 18:09:20.169,3084899625,142169,2,0.86011,-0.21216,-0.47852,0.748,1.328,-1.611
2026-06-11 18:09:20.369,3084899825,142369,1,0.99536,-0.09277,0.38354,-0.427,2.588,0.229
2026-06-11 18:09:20.369,3084899825,142369,2,0.86108,-0.21094,-0.4978,1.863,1.893,-2.229
2026-06-11 18:09:20.569,3084900025,142569,1,0.9895,-0.08667,0.38379,1.954,2.664,0.756
2026-06-11 18:09:20.569,3084900025,142569,2,0.86768,-0.21484,-0.49219,0.771,2.481,-0.397
2026-06-11 18:09:20.769,3084900225,142769,1,0.99097,-0.08154,0.37378,1.267,3.611,-0.511
2026-06-11 18:09:20.769,3084900225,142769,2,0.87109,-0.21069,-0.48706,1.229,1.763,-0.053
2026-06-11 18:09:20.969,3084900425,142969,1,0.99194,-0.07471,0.37646,2.267,3.771,0.939
2026-06-11 18:09:20.969,3084900425,142969,2,0.92871,-0.24756,-0.48486,22.649,-6.863,-7.687
2026-06-11 18:09:21.177,3084900633,143177,1,0.87061,-0.07056,0.44385,2.359,49.573,-22.527
2026-06-11 18:09:21.177,3084900633,143177,2,0.8562,-0.16846,-0.51978,1.542,32.244,-43.573
2026-06-11 18:09:21.377,3084900833,143377,1,0.98071,0.03394,0.50708,13.015,-12.664,34.908
2026-06-11 18:09:21.377,3084900833,143377,2,0.83911,-0.13184,-0.46167,55.603,-66.092,41.252
2026-06-11 18:09:21.577,3084901033,143577,1,0.88452,-0.0564,0.52686,33.023,17.832,-6.42
2026-06-11 18:09:21.577,3084901033,143577,2,1.04761,-0.38843,-0.52344,-39.023,33.076,-23.229
2026-06-11 18:09:21.787,3084901243,143787,1,0.8396,-0.15918,0.49292,-13.221,2.855,-13.458
2026-06-11 18:09:21.787,3084901243,143787,2,0.99854,-0.14893,-0.20581,33.191,15.702,37.802
2026-06-11 18:09:21.987,3084901443,143987,1,1.0896,0.01904,0.55298,4.206,5.061,-3.252
2026-06-11 18:09:21.987,3084901443,143987,2,0.8457,-0.11719,-0.48999,-7.305,75.237,-41.298
2026-06-11 18:09:22.187,3084901643,144187,1,0.94116,-0.04492,0.47363,-38.13,-16.718,10.695
2026-06-11 18:09:22.187,3084901643,144187,2,0.8042,-0.03857,-0.37524,25.214,-29.206,25.595
2026-06-11 18:09:22.387,3084901843,144387,1,1.0061,-0.0354,0.61084,42.328,8.092,-1.954
2026-06-11 18:09:22.387,3084901843,144387,2,1.0625,-0.28613,-0.46558,-25.252,27.153,-26.344
2026-06-11 18:09:22.587,3084902043,144587,1,0.95825,-0.09302,0.41992,14.176,-15.847,17.947
2026-06-11 18:09:22.587,3084902043,144587,2,0.84326,-0.1936,-0.40356,21.328,-27.198,31.153
2026-06-11 18:09:22.787,3084902243,144787,1,1.07227,-0.06348,0.60889,15.397,20.305,-29.939
2026-06-11 18:09:22.787,3084902243,144787,2,1.06006,-0.31152,-0.573,2.802,35.84,-29.786
2026-06-11 18:09:22.017,3084901473,145017,1,0.88843,-0.08105,0.38916,-48.771,-3.863,-3.84
2026-06-11 18:09:22.017,3084901473,145017,2,0.85132,-0.1687,-0.34082,-19.336,-6.939,17.901
2026-06-11 18:09:23.217,3084902673,145217,1,0.93213,-0.02466,0.53003,3.458,3.435,-1.191
2026-06-11 18:09:23.217,3084902673,145217,2,0.91895,-0.20508,-0.42139,8.595,-18.321,7.962
2026-06-11 18:09:23.417,3084902873,145417,1,1.0271,-0.1123,0.34082,-1.489,-10.924,18.153
2026-06-11 18:09:23.417,3084902873,145417,2,0.91699,-0.19409,-0.44067,-8.015,1.382,-1.435
2026-06-11 18:09:23.693,3084903149,145693,1,0.9624,-0.09814,0.3457,2.382,11.557,-2.626
2026-06-11 18:09:23.693,3084903149,145693,2,0.9585,-0.28687,-0.55469,-2.947,31.87,-3.137
2026-06-11 18:09:23.893,3084903349,145893,1,0.96509,-0.09912,0.33838,29.733,-9.183,18.878
2026-06-11 18:09:23.893,3084903349,145893,2,0.76538,-0.22266,-0.10059,-7.718,-0.87,-11.481
2026-06-11 18:09:24.093,3084903549,146093,1,0.83765,-0.06567,0.48145,-0.733,-23.214,0.74
2026-06-11 18:09:24.093,3084903549,146093,2,1.20605,-0.19043,-0.5127,15.992,10.557,-10.336
2026-06-11 18:09:24.293,3084903749,146293,1,0.88965,-0.08447,0.36377,-1.565,-12.672,-4.534
2026-06-11 18:09:24.293,3084903749,146293,2,1.10938,-0.19214,-0.53687,10.122,17.122,2.443
2026-06-11 18:09:24.510,3084903966,146510,1,1.12134,-0.16479,0.57373,-11.0,7.557,5.473
2026-06-11 18:09:24.510,3084903966,146510,2,0.98022,-0.22363,-0.36377,33.321,7.832,1.817
2026-06-11 18:09:24.710,3084904166,146710,1,0.93555,-0.07739,0.55225,20.008,22.786,0.969
2026-06-11 18:09:24.710,3084904166,146710,2,0.87769,-0.2312,-0.29492,-10.481,12.985,0.74
2026-06-11 18:09:25.108,3084904564,147108,1,0.87524,-0.10547,0.32397,-5.786,-11.389,-1.641
2026-06-11 18:09:25.108,3084904564,147108,2,0.86841,-0.20557,-0.35376,-5.45,2.45,0.74
2026-06-11 18:09:25.457,3084904913,147457,1,0.90796,-0.05762,0.51001,4.908,11.198,1.16
2026-06-11 18:09:25.457,3084904913,147457,2,0.9397,-0.21411,-0.45532,8.168,-0.366,-5.336
2026-06-11 18:09:25.838,3084905294,147837,1,0.95288,-0.12915,0.34912,0.672,8.374,3.015
2026-06-11 18:09:25.838,3084905294,147837,2,0.92505,-0.25977,-0.22681,-1.504,16.198,-7.069
2026-06-11 18:09:25.037,3084904493,148037,1,0.95459,-0.06445,0.53442,1.702,9.107,-0.695
2026-06-11 18:09:25.037,3084904493,148037,2,0.93164,-0.20825,-0.38232,8.115,0.466,-4.71
2026-06-11 18:09:26.237,3084905693,148237,1,0.92651,-0.07349,0.5,5.832,5.328,3.336
2026-06-11 18:09:26.237,3084905693,148237,2,0.94482,-0.20874,-0.34204,5.603,-1.221,-2.511
2026-06-11 18:09:26.455,3084905911,148455,1,0.927,-0.13159,0.51196,-1.771,-6.74,-6.298
2026-06-11 18:09:26.455,3084905911,148455,2,0.93677,-0.15454,-0.38135,4.656,-9.611,-18.847
2026-06-11 18:09:27.127,3084906583,149127,1,1.00854,0.14941,0.35742,1.534,-3.489,2.16
2026-06-11 18:09:27.127,3084906583,149127,2,0.90283,-0.05078,-0.44751,-17.443,-13.962,-8.794
2026-06-11 18:09:27.370,3084906826,149370,1,1.06348,0.08447,0.27954,15.183,6.969,4.534
2026-06-11 18:09:27.370,3084906826,149370,2,0.87646,0.01514,-0.5061,1.275,7.725,-5.656
2026-06-11 18:09:27.720,3084907176,149720,1,0.97534,0.08838,0.37769,1.679,3.656,3.687
