datetime,epoch_ms,ts_millis,mpu_id,ax,ay,az,gx,gy,gz
2026-06-11T17:17:34.852145,,,,,,,,,
2026-06-11T17:17:36.788509,,,,,,,,,
2026-06-11 17:17:36.272,3081795728,5272,1,0.83521,-0.16577,0.64551,16.031,-6.466,12.183
2026-06-11 17:17:36.272,3081795728,5272,2,1.0481,-0.08472,0.15991,22.053,0.015,-8.679
2026-06-11 17:17:37.472,3081796928,5472,1,0.86816,-0.15308,0.6333,28.962,-6.611,11.847
2026-06-11 17:17:37.472,3081796928,5472,2,1.08203,-0.07739,0.21045,42.885,1.855,3.725
2026-06-11 17:17:37.672,3081797128,5672,1,0.84375,-0.25732,0.65527,20.595,-4.511,15.359
2026-06-11 17:17:37.672,3081797128,5672,2,1.09717,-0.20386,0.19336,41.519,5.092,11.794
2026-06-11 17:17:37.872,3081797328,5872,1,0.76538,-0.24658,0.62354,21.153,-7.389,27.191
2026-06-11 17:17:37.872,3081797328,5872,2,1.03638,-0.10742,0.29712,33.313,0.359,4.496
2026-06-11 17:17:37.072,3081796528,6072,1,0.83276,-0.17383,0.64404,-18.153,-1.191,-13.412
2026-06-11 17:17:37.072,3081796528,6072,2,1.06567,-0.0791,0.13208,-23.573,13.053,4.252
2026-06-11 17:17:37.272,3081796728,6272,1,0.90674,-0.18872,0.57104,1.504,13.802,-8.702
2026-06-11 17:17:37.272,3081796728,6272,2,1.09155,-0.13989,0.08569,26.084,10.053,3.542
2026-06-11 17:17:38.472,3081797928,6472,1,0.88354,-0.16406,0.55176,29.931,1.221,11.435
2026-06-11 17:17:38.472,3081797928,6472,2,1.021,-0.09253,0.07373,6.053,-3.099,-30.855
2026-06-11 17:17:38.672,3081798128,6672,1,1.0061,-0.11377,0.64258,27.29,-19.885,15.412
2026-06-11 17:17:38.672,3081798128,6672,2,1.03931,0.1875,0.13159,122.756,67.344,1.053
2026-06-11 17:17:38.872,3081798328,6872,1,0.87769,-0.22656,0.58252,62.328,27.076,46.962
2026-06-11 17:17:38.872,3081798328,6872,2,1.00586,-0.3186,-0.02588,117.618,-15.626,37.511
2026-06-11 17:17:38.072,3081797528,7072,1,0.81934,-0.40991,0.59473,88.855,-24.389,79.748
2026-06-11 17:17:38.072,3081797528,7072,2,1.35864,-0.01538,0.18677,208.191,-64.435,57.634
2026-06-11 17:17:38.272,3081797728,7272,1,1.0,-0.19434,0.68799,105.588,-3.397,88.221
2026-06-11 17:17:38.272,3081797728,7272,2,0.99878,0.13281,0.08887,74.0,-98.939,-10.557
2026-06-11 17:17:39.472,3081798928,7472,1,0.79224,0.05347,0.68506,106.023,16.061,56.122
2026-06-11 17:17:39.472,3081798928,7472,2,1.03125,0.01709,0.15625,77.489,-8.366,8.282
2026-06-11 17:17:39.672,3081799128,7672,1,0.98999,-0.12134,0.75854,15.252,2.687,13.863
2026-06-11 17:17:39.672,3081799128,7672,2,0.85254,0.23022,0.229,17.771,76.55,-22.771
2026-06-11 17:17:39.872,3081799328,7872,1,0.89258,-0.17163,0.74072,5.626,8.916,2.969
2026-06-11 17:17:39.872,3081799328,7872,2,0.99268,-0.15015,0.24463,25.069,-0.351,7.221
2026-06-11 17:17:39.072,3081798528,8072,1,0.82104,-0.21094,0.63354,7.092,-15.42,-2.542
2026-06-11 17:17:39.072,3081798528,8072,2,0.98364,-0.1897,0.26221,48.763,-14.748,13.42
2026-06-11 17:17:39.278,3081798734,8278,1,0.86548,-0.05151,0.60254,18.176,-1.832,10.702
2026-06-11 17:17:39.278,3081798734,8278,2,1.02295,-0.13428,0.23071,27.603,-18.389,15.802
2026-06-11 17:17:40.478,3081799934,8478,1,0.84814,-0.15112,0.61743,2.031,2.733,9.359
2026-06-11 17:17:40.478,3081799934,8478,2,1.08105,-0.03442,0.1936,-25.244,24.565,-14.74
2026-06-11 17:17:40.678,3081800134,8678,1,0.80444,-0.11377,0.67383,-9.664,12.824,-17.672
2026-06-11 17:17:40.678,3081800134,8678,2,1.07104,-0.10254,0.21753,-35.191,-0.374,-1.626
2026-06-11 17:17:40.947,3081800403,8947,1,0.82031,-0.17603,0.67407,-23.527,7.435,-20.115
2026-06-11 17:17:40.947,3081800403,8947,2,1.06177,-0.18042,0.19971,-18.58,19.939,-8.076
2026-06-11 17:17:40.165,3081799621,9165,1,0.83594,-0.1499,0.66016,-4.504,1.29,-8.26
2026-06-11 17:17:40.165,3081799621,9165,2,1.04565,-0.16675,0.24072,-1.916,2.626,-2.733
2026-06-11 17:17:40.365,3081799821,9365,1,0.83081,-0.13892,0.66553,8.695,2.565,0.435
2026-06-11 17:17:40.365,3081799821,9365,2,1.03906,-0.12744,0.24292,-0.252,7.046,-9.069
2026-06-11 17:17:41.565,3081801021,9565,1,0.84985,-0.10547,0.66821,9.748,-0.511,0.55
2026-06-11 17:17:41.565,3081801021,9565,2,1.05029,-0.09766,0.2915,13.092,-4.931,-4.26
2026-06-11 17:17:41.887,3081801343,9887,1,0.81592,-0.04224,0.67358,18.176,7.519,8.992
2026-06-11 17:17:41.887,3081801343,9887,2,1.0564,0.0354,0.22681,22.137,17.695,-4.947
2026-06-11 17:17:41.141,3081800597,10141,1,0.79395,0.06055,0.65991,-18.534,-3.443,-9.847
2026-06-11 17:17:41.141,3081800597,10141,2,1.00562,0.01123,0.21777,-33.893,-15.198,12.183
2026-06-11 17:17:41.341,3081800797,10341,1,0.78857,-0.11328,0.66479,-0.374,0.87,12.412
2026-06-11 17:17:41.341,3081800797,10341,2,1.11523,-0.18384,0.09082,-9.71,-23.0,2.847
2026-06-11 17:17:42.541,3081801997,10541,1,0.85718,-0.11133,0.63574,-12.802,-6.336,0.305
2026-06-11 17:17:42.541,3081801997,10541,2,1.04004,-0.09033,0.19971,-3.282,6.992,-1.969
2026-06-11 17:17:42.826,3081802282,10826,1,0.85352,-0.13379,0.65625,-12.863,7.153,-8.504
2026-06-11 17:17:42.826,3081802282,10826,2,1.05615,-0.10156,0.27539,-12.198,10.588,-2.885
2026-06-11 17:17:42.026,3081801482,11026,1,0.83081,-0.14722,0.67822,-15.16,11.458,-11.45
2026-06-11 17:17:42.026,3081801482,11026,2,1.03271,-0.12012,0.25146,-19.908,13.733,-2.855
2026-06-11 17:17:42.226,3081801682,11226,1,0.80762,-0.20703,0.67407,-14.718,8.908,-8.641
2026-06-11 17:17:42.226,3081801682,11226,2,1.0271,-0.2561,0.18555,-16.13,-7.718,0.122
2026-06-11 17:17:43.426,3081802882,11426,1,0.854,-0.25879,0.71143,2.641,-15.87,6.405
2026-06-11 17:17:43.426,3081802882,11426,2,1.15869,0.00684,0.18872,15.191,-10.122,-10.427
2026-06-11 17:17:43.626,3081803082,11626,1,0.854,-0.10596,0.67041,0.763,-3.298,3.053
2026-06-11 17:17:43.626,3081803082,11626,2,1.08643,-0.07593,0.20947,24.023,18.519,9.244
2026-06-11 17:17:43.826,3081803282,11826,1,0.83911,-0.1145,0.6687,10.504,4.641,9.794
2026-06-11 17:17:43.826,3081803282,11826,2,1.04492,-0.08594,0.23706,2.641,-2.206,-0.618
2026-06-11 17:17:43.026,3081802482,12026,1,0.81226,-0.12402,0.66479,5.221,5.099,7.489
2026-06-11 17:17:43.026,3081802482,12026,2,1.06494,-0.1145,0.18726,0.779,6.588,-0.763
2026-06-11 17:17:43.226,3081802682,12226,1,0.82739,-0.14404,0.6687,5.649,0.427,5.634
2026-06-11 17:17:43.226,3081802682,12226,2,1.05249,-0.11206,0.21387,4.55,1.985,-0.298
2026-06-11 17:17:44.426,3081803882,12426,1,0.82935,-0.14673,0.66968,0.649,0.733,-0.702
2026-06-11 17:17:44.426,3081803882,12426,2,1.05273,-0.12769,0.23633,-0.504,2.863,-1.107
2026-06-11 17:17:44.749,3081804205,12749,1,0.84375,-0.15161,0.65576,2.534,1.672,1.26
2026-06-11 17:17:44.749,3081804205,12749,2,1.04517,-0.12573,0.23975,2.206,-0.053,-2.107
2026-06-11 17:17:44.949,3081804405,12949,1,0.83081,-0.14648,0.66455,5.282,1.71,2.534
2026-06-11 17:17:44.949,3081804405,12949,2,1.05054,-0.11938,0.21558,7.969,-0.038,-2.298
2026-06-11 17:17:44.149,3081803605,13149,1,0.84009,-0.14258,0.66211,9.092,2.321,4.023
2026-06-11 17:17:44.149,3081803605,13149,2,1.05615,-0.11157,0.23755,15.031,4.305,-1.908
2026-06-11 17:17:44.349,3081803805,13349,1,0.85718,-0.15454,0.6416,7.954,-2.672,9.992
2026-06-11 17:17:44.349,3081803805,13349,2,1.07959,-0.0979,0.19653,17.26,5.634,-1.115
2026-06-11 17:17:45.549,3081805005,13549,1,0.82251,-0.15747,0.66577,16.542,5.008,3.802
2026-06-11 17:17:45.549,3081805005,13549,2,1.02563,-0.08447,0.27637,10.099,12.817,1.183
2026-06-11 17:17:45.749,3081805205,13749,1,0.82227,-0.09985,0.67847,-5.878,5.351,-0.252
2026-06-11 17:17:45.749,3081805205,13749,2,1.05078,-0.10205,0.25293,-1.435,-1.901,0.595
2026-06-11 17:17:45.949,3081805405,13949,1,0.8269,-0.14453,0.67188,-1.763,-2.336,-2.466
2026-06-11 17:17:45.949,3081805405,13949,2,1.04199,-0.10596,0.28809,3.878,8.16,1.947
2026-06-11 17:17:45.149,3081804605,14149,1,0.83521,-0.12207,0.65991,-1.489,3.634,-3.389
2026-06-11 17:17:45.149,3081804605,14149,2,1.03906,-0.12158,0.25269,-6.939,4.718,-0.313
2026-06-11 17:17:45.349,3081804805,14349,1,0.83228,-0.11157,0.66675,2.771,2.282,-0.229
2026-06-11 17:17:45.349,3081804805,14349,2,1.04785,-0.10889,0.25366,1.458,1.008,-0.664
2026-06-11 17:17:46.549,3081806005,14549,1,0.823,-0.13477,0.6687,0.847,-1.756,-2.015
2026-06-11 17:17:46.549,3081806005,14549,2,1.04102,-0.09473,0.27808,2.275,3.489,-2.947
2026-06-11 17:17:46.749,3081806205,14749,1,0.83521,-0.11108,0.67285,8.794,2.29,5.656
2026-06-11 17:17:46.749,3081806205,14749,2,1.04419,-0.08765,0.29346,11.366,3.901,0.481
2026-06-11 17:17:46.949,3081806405,14949,1,0.83154,-0.12183,0.68384,7.153,2.954,5.565
2026-06-11 17:17:46.949,3081806405,14949,2,1.03735,-0.08472,0.27612,6.473,3.008,-1.527
2026-06-11 17:17:46.149,3081805605,15149,1,0.82983,-0.10107,0.6709,1.252,1.046,0.443
2026-06-11 17:17:46.149,3081805605,15149,2,1.04541,-0.0752,0.27148,-1.969,0.496,0.863
2026-06-11 17:17:46.349,3081805805,15349,1,0.83496,-0.10303,0.66528,-4.267,1.985,-3.038
2026-06-11 17:17:46.349,3081805805,15349,2,1.03442,-0.08691,0.28955,-10.695,3.092,-2.618
2026-06-11 17:17:47.549,3081807005,15549,1,0.83423,-0.11523,0.66577,-4.153,2.366,-3.656
2026-06-11 17:17:47.549,3081807005,15549,2,1.03809,-0.09058,0.27686,-9.687,0.802,-1.863
2026-06-11 17:17:47.751,3081807207,15751,1,0.84473,-0.12012,0.6626,-2.29,2.84,-1.786
2026-06-11 17:17:47.751,3081807207,15751,2,1.04565,-0.104,0.28052,1.443,1.679,-1.405
2026-06-11 17:17:47.951,3081807407,15951,1,0.83545,-0.12061,0.66797,3.053,2.58,1.519
2026-06-11 17:17:47.951,3081807407,15951,2,1.04224,-0.09839,0.27588,4.305,2.603,-1.069
2026-06-11 17:17:47.151,3081806607,16151,1,0.83276,-0.11108,0.67407,1.832,2.458,1.954
2026-06-11 17:17:47.151,3081806607,16151,2,1.04224,-0.09937,0.26831,2.885,1.702,-0.649
2026-06-11 17:17:47.351,3081806807,16351,1,0.83472,-0.10645,0.66357,2.031,2.008,1.832
2026-06-11 17:17:47.351,3081806807,16351,2,1.04297,-0.09253,0.26953,1.817,0.031,0.061
2026-06-11 17:17:48.551,3081808007,16551,1,0.83374,-0.11426,0.66577,0.924,2.443,1.992
2026-06-11 17:17:48.551,3081808007,16551,2,1.04321,-0.08496,0.2793,1.435,1.344,-0.183
2026-06-11 17:17:48.751,3081808207,16751,1,0.83667,-0.1145,0.6665,-0.397,3.137,0.893
2026-06-11 17:17:48.751,3081808207,16751,2,1.04761,-0.09473,0.26025,1.504,1.55,-0.038
2026-06-11 17:17:48.951,3081808407,16951,1,0.82739,-0.11865,0.67529,-0.206,2.756,0.298
2026-06-11 17:17:48.951,3081808407,16951,2,1.04932,-0.09521,0.27075,0.573,0.863,-0.359
2026-06-11 17:17:48.151,3081807607,17151,1,0.83374,-0.12329,0.67017,0.183,3.496,0.145
2026-06-11 17:17:48.151,3081807607,17151,2,1.05005,-0.10693,0.2583,2.115,2.206,-0.26
2026-06-11 17:17:48.351,3081807807,17351,1,0.83008,-0.12354,0.66602,1.42,3.206,1.489
2026-06-11 17:17:48.351,3081807807,17351,2,1.04663,-0.09009,0.27417,2.679,-1.916,-0.168
2026-06-11 17:17:49.551,3081809007,17551,1,0.81836,-0.13184,0.6875,2.534,0.221,1.069
2026-06-11 17:17:49.551,3081809007,17551,2,1.03491,-0.08789,0.2688,20.779,-20.504,7.672
2026-06-11 17:17:49.751,3081809207,17751,1,0.83545,-0.12402,0.65723,1.893,5.015,-2.916
2026-06-11 17:17:49.751,3081809207,17751,2,1.0415,-0.08911,0.21948,12.733,-3.947,-5.771
2026-06-11 17:17:49.951,3081809407,17951,1,0.7793,-0.03296,0.73828,14.42,-9.527,6.832
2026-06-11 17:17:49.951,3081809407,17951,2,1.10107,-0.01245,0.10986,5.473,-12.992,2.023
2026-06-11 17:17:49.151,3081808607,18151,1,0.87939,-0.05273,0.61548,-6.389,-3.641,-2.779
2026-06-11 17:17:49.151,3081808607,18151,2,0.98193,-0.00171,0.15723,-16.168,-3.718,-11.626
2026-06-11 17:17:49.351,3081808807,18351,1,0.85083,-0.08325,0.62817,-5.924,-6.031,-10.061
2026-06-11 17:17:49.351,3081808807,18351,2,1.14819,-0.16919,0.14331,-16.725,-0.26,18.557
2026-06-11 17:17:50.633,3081810089,18633,1,0.85864,-0.15674,0.49683,-18.069,0.015,-7.74
2026-06-11 17:17:50.633,3081810089,18633,2,1.02441,-0.05054,0.16455,14.115,-13.649,-5.832
2026-06-11 17:17:50.833,3081810289,18833,1,0.83765,-0.11206,0.57666,16.412,-0.893,0.641
2026-06-11 17:17:50.833,3081810289,18833,2,1.12329,-0.19141,0.12256,23.115,-7.061,-3.443
2026-06-11 17:17:50.033,3081809489,19033,1,1.00488,-0.17017,0.57373,26.443,-9.046,19.359
2026-06-11 17:17:50.033,3081809489,19033,2,1.08057,-0.2251,0.07788,11.26,-13.282,13.931
2026-06-11 17:17:50.233,3081809689,19233,1,0.80371,-0.23804,0.48071,33.351,1.916,36.832
2026-06-11 17:17:50.233,3081809689,19233,2,0.93042,-0.36719,0.05859,22.405,37.595,16.664
2026-06-11 17:17:51.436,3081810892,19436,1,0.90259,-0.14795,0.55469,25.519,-1.511,35.702
2026-06-11 17:17:51.436,3081810892,19436,2,1.0481,-0.13306,0.25781,49.496,42.26,4.931
2026-06-11 17:17:51.636,3081811092,19636,1,0.95898,-0.17871,0.62695,23.206,-1.115,23.458
2026-06-11 17:17:51.636,3081811092,19636,2,0.99658,-0.13867,0.04858,54.29,9.641,4.328
2026-06-11 17:17:51.836,3081811292,19836,1,0.85156,-0.18945,0.54199,14.565,1.565,1.29
2026-06-11 17:17:51.836,3081811292,19836,2,1.00732,-0.11621,0.05908,-10.595,-30.206,-5.084
2026-06-11 17:17:51.036,3081810492,20036,1,0.91797,-0.13281,0.61133,-11.992,2.641,-14.588
2026-06-11 17:17:51.036,3081810492,20036,2,1.12817,-0.11938,0.17065,-38.092,-10.588,-7.626
2026-06-11 17:17:51.236,3081810692,20236,1,0.8916,-0.10815,0.54004,-23.992,5.29,-24.0
2026-06-11 17:17:51.236,3081810692,20236,2,0.95044,-0.00073,0.12769,-32.672,4.962,-32.794
2026-06-11 17:17:52.436,3081811892,20436,1,0.80518,-0.0813,0.57422,-28.092,7.878,-31.992
2026-06-11 17:17:52.436,3081811892,20436,2,1.01636,-0.0542,0.17334,-50.344,-10.847,-24.962
2026-06-11 17:17:52.639,3081812095,20639,1,0.92871,-0.05688,0.59473,-25.985,-2.573,-32.45
2026-06-11 17:17:52.639,3081812095,20639,2,1.20947,-0.07788,0.08081,-40.458,-5.573,-0.26
2026-06-11 17:17:52.839,3081812295,20839,1,0.87988,-0.05322,0.54321,-32.893,18.26,-28.885
2026-06-11 17:17:52.839,3081812295,20839,2,0.92529,-0.18115,0.1123,-53.397,6.351,9.947
2026-06-11 17:17:52.039,3081811495,21039,1,0.90674,-0.09741,0.57642,-17.84,-5.931,-2.87
2026-06-11 17:17:52.039,3081811495,21039,2,1.14014,-0.13013,0.11353,-27.603,4.802,16.176
2026-06-11 17:17:52.271,3081811727,21271,1,0.94702,-0.16675,0.55615,-4.504,2.466,4.908
2026-06-11 17:17:52.271,3081811727,21271,2,1.04834,-0.15552,0.12378,-26.916,2.321,7.809
2026-06-11 17:17:53.471,3081812927,21471,1,0.84473,-0.22632,0.52295,10.511,-8.29,28.809
2026-06-11 17:17:53.471,3081812927,21471,2,1.16699,-0.05151,0.18433,46.122,-15.611,16.229
2026-06-11 17:17:53.671,3081813127,21671,1,0.92603,-0.17603,0.56006,26.0,-4.023,32.756
2026-06-11 17:17:53.671,3081813127,21671,2,1.11963,-0.18286,0.14917,62.817,-6.695,13.336
2026-06-11 17:17:53.871,3081813327,21871,1,0.93579,-0.22461,0.6106,48.962,-6.595,31.435
2026-06-11 17:17:53.871,3081813327,21871,2,1.09912,-0.12622,0.07715,47.763,-21.115,-15.969
2026-06-11 17:17:53.071,3081812527,22071,1,0.86572,-0.13501,0.51636,45.466,-8.954,14.198
2026-06-11 17:17:53.071,3081812527,22071,2,1.03711,-0.13647,0.17358,48.092,3.13,-1.382
2026-06-11 17:17:53.271,3081812727,22271,1,0.92627,-0.09473,0.57886,20.061,4.168,5.198
2026-06-11 17:17:53.271,3081812727,22271,2,1.08398,-0.08667,0.11206,-2.84,4.954,-24.489
2026-06-11 17:17:54.499,3081813955,22499,1,0.8645,-0.03955,0.55029,-1.771,11.435,-13.565
2026-06-11 17:17:54.499,3081813955,22499,2,1.03589,-0.02612,0.12354,-29.885,-2.313,-12.679
2026-06-11 17:17:54.699,3081814155,22699,1,0.80176,-0.104,0.60913,-16.412,13.237,-9.053
2026-06-11 17:17:54.699,3081814155,22699,2,1.07837,-0.07373,0.18994,-28.405,3.954,-3.397
2026-06-11 17:17:54.899,3081814355,22899,1,0.88354,-0.06982,0.61206,-60.282,18.053,-35.115
2026-06-11 17:17:54.899,3081814355,22899,2,1.01514,-0.11987,0.21606,-90.298,9.748,-11.817
2026-06-11 17:17:54.099,3081813555,23099,1,0.80322,-0.22095,0.70264,-16.366,5.198,-7.534
2026-06-11 17:17:54.099,3081813555,23099,2,1.04541,-0.18921,0.36914,8.382,12.466,7.0
2026-06-11 17:17:54.299,3081813755,23299,1,0.79102,-0.10669,0.71509,1.885,-2.26,3.779
2026-06-11 17:17:54.299,3081813755,23299,2,1.04175,-0.08301,0.21387,-2.718,3.87,8.603
2026-06-11 17:17:55.499,3081814955,23499,1,0.7854,-0.15259,0.70166,0.947,2.908,-2.221
2026-06-11 17:17:55.499,3081814955,23499,2,1.05176,-0.12915,0.2395,-0.641,5.031,1.71
2026-06-11 17:17:55.700,3081815156,23700,1,0.83716,-0.21509,0.65503,-7.908,-1.618,1.145
2026-06-11 17:17:55.700,3081815156,23700,2,1.06641,-0.11865,0.28833,-31.473,6.649,-19.328
2026-06-11 17:17:55.900,3081815356,23900,1,0.83765,-0.13452,0.65625,13.122,0.351,3.397
2026-06-11 17:17:55.900,3081815356,23900,2,1.06006,-0.09229,0.26147,-14.656,22.504,-8.656
2026-06-11 17:17:55.100,3081814556,24100,1,0.83252,-0.12427,0.66919,1.718,1.824,-1.359
2026-06-11 17:17:55.100,3081814556,24100,2,1.0481,-0.06689,0.28296,8.84,11.405,0.069
2026-06-11 17:17:55.300,3081814756,24300,1,0.8374,-0.13721,0.65381,9.191,9.198,-2.794
2026-06-11 17:17:55.300,3081814756,24300,2,1.0459,-0.09741,0.26001,24.336,-4.42,0.443
2026-06-11 17:17:56.500,3081815956,24500,1,0.81421,-0.08545,0.69824,35.824,-4.015,16.542
2026-06-11 17:17:56.500,3081815956,24500,2,1.04541,-0.04761,0.27979,41.374,6.924,4.031
2026-06-11 17:17:56.700,3081816156,24700,1,0.82886,-0.05933,0.68481,5.511,-1.962,6.206
2026-06-11 17:17:56.700,3081816156,24700,2,1.04883,-0.04565,0.29688,3.382,-0.031,2.687
2026-06-11 17:17:56.900,3081816356,24900,1,0.84814,-0.08643,0.65405,-0.427,-0.473,4.069
2026-06-11 17:17:56.900,3081816356,24900,2,1.04712,-0.073,0.28003,-3.015,-2.954,2.168
2026-06-11 17:17:56.100,3081815556,25100,1,0.83472,-0.13965,0.65308,-0.382,0.863,3.954
2026-06-11 17:17:56.100,3081815556,25100,2,1.05615,-0.0603,0.28003,1.802,-0.87,-2.13
2026-06-11 17:17:56.300,3081815756,25300,1,0.83472,-0.08081,0.65918,0.412,3.008,-0.267
2026-06-11 17:17:56.300,3081815756,25300,2,1.0437,-0.06665,0.26611,-2.397,4.786,-0.405
2026-06-11 17:17:57.638,3081817094,25638,1,0.84473,-0.11133,0.67188,-3.74,1.237,-3.786
2026-06-11 17:17:57.638,3081817094,25638,2,1.03809,-0.08423,0.28125,-3.847,1.282,-1.038
2026-06-11 17:17:57.838,3081817294,25838,1,0.85522,-0.10815,0.64966,-5.55,2.29,-2.313
2026-06-11 17:17:57.838,3081817294,25838,2,1.0459,-0.07813,0.27466,-7.092,-2.863,-3.672
2026-06-11 17:17:57.038,3081816494,26038,1,0.85181,-0.10645,0.65381,-1.183,1.84,0.397
2026-06-11 17:17:57.038,3081816494,26038,2,1.04541,-0.07983,0.2688,-0.076,3.29,-0.855
2026-06-11 17:17:57.238,3081816694,26238,1,0.84448,-0.11597,0.65112,2.794,2.74,3.58
2026-06-11 17:17:57.238,3081816694,26238,2,1.04053,-0.07593,0.2417,11.473,-1.74,1.511
2026-06-11 17:17:58.438,3081817894,26438,1,0.85181,-0.10815,0.65674,3.603,2.244,1.832
2026-06-11 17:17:58.438,3081817894,26438,2,1.05444,-0.07275,0.25806,2.397,4.16,1.634
2026-06-11 17:17:58.638,3081818094,26638,1,0.84668,-0.11401,0.65723,-1.153,5.267,-1.718
2026-06-11 17:17:58.638,3081818094,26638,2,1.05298,-0.07935,0.26782,-5.145,6.534,-3.153
2026-06-11 17:17:58.838,3081818294,26838,1,0.83789,-0.11523,0.66675,-2.42,4.672,-3.29
2026-06-11 17:17:58.838,3081818294,26838,2,1.04565,-0.08228,0.28271,-6.519,1.771,-2.214
2026-06-11 17:17:58.038,3081817494,27038,1,0.83862,-0.11084,0.66235,-0.641,3.267,-1.328
2026-06-11 17:17:58.038,3081817494,27038,2,1.03687,-0.08203,0.27954,0.42,0.634,-1.305
2026-06-11 17:17:58.238,3081817694,27238,1,0.8335,-0.09741,0.66577,2.763,1.45,1.313
2026-06-11 17:17:58.238,3081817694,27238,2,1.04517,-0.06982,0.2749,2.305,2.595,-0.664
2026-06-11 17:17:59.438,3081818894,27438,1,0.83081,-0.10156,0.66821,1.519,0.702,1.87
2026-06-11 17:17:59.438,3081818894,27438,2,1.0376,-0.06104,0.28394,2.893,0.977,-0.939
2026-06-11 17:17:59.638,3081819094,27638,1,0.84399,-0.10034,0.67065,1.588,0.931,2.802
2026-06-11 17:17:59.638,3081819094,27638,2,1.04639,-0.06201,0.28931,0.634,0.588,-0.031
2026-06-11 17:17:59.838,3081819294,27838,1,0.8457,-0.10425,0.66772,-1.588,2.542,-0.466
2026-06-11 17:17:59.838,3081819294,27838,2,1.052,-0.06055,0.28174,-1.679,1.229,-0.573
2026-06-11 17:17:59.038,3081818494,28038,1,0.83765,-0.11108,0.65845,-3.176,4.069,-2.435
2026-06-11 17:17:59.038,3081818494,28038,2,1.04297,-0.06372,0.2749,-6.198,3.672,-2.733
2026-06-11 17:17:59.238,3081818694,28238,1,0.83252,-0.10425,0.66748,-2.603,0.702,-1.733
2026-06-11 17:17:59.238,3081818694,28238,2,1.04443,-0.06689,0.2627,-2.504,-0.824,0.977
2026-06-11 17:18:00.438,3081819894,28438,1,0.85156,-0.10474,0.64404,-3.847,2.061,-2.611
2026-06-11 17:18:00.438,3081819894,28438,2,1.05103,-0.07422,0.2627,-3.0,2.023,-0.359
2026-06-11 17:18:00.638,3081820094,28638,1,0.84619,-0.10669,0.65283,-1.679,4.237,-2.298
2026-06-11 17:18:00.638,3081820094,28638,2,1.03271,-0.07373,0.26611,-3.588,3.298,-2.084
2026-06-11 17:18:00.838,3081820294,28838,1,0.84839,-0.11328,0.65845,-0.611,4.008,-0.137
2026-06-11 17:18:00.838,3081820294,28838,2,1.04272,-0.07813,0.27026,-0.412,1.382,-0.099
2026-06-11 17:18:00.038,3081819494,29038,1,0.8313,-0.10522,0.67651,-0.473,3.229,1.885
2026-06-11 17:18:00.038,3081819494,29038,2,1.04443,-0.07471,0.28394,-0.26,1.0,0.771
2026-06-11 17:18:00.238,3081819694,29238,1,0.83496,-0.11133,0.67578,0.252,1.611,2.672
2026-06-11 17:18:00.238,3081819694,29238,2,1.04712,-0.08813,0.25903,-0.939,-2.115,0.611
2026-06-11 17:18:01.438,3081820894,29438,1,0.84351,-0.1145,0.66211,0.031,0.802,2.771
2026-06-11 17:18:01.438,3081820894,29438,2,1.03979,-0.08252,0.26953,0.031,0.13,1.031
2026-06-11 17:18:01.638,3081821094,29638,1,0.83716,-0.1228,0.6604,-0.618,2.176,2.015
2026-06-11 17:18:01.638,3081821094,29638,2,1.04639,-0.09033,0.25269,-2.061,0.969,0.382
2026-06-11 17:18:01.838,3081821294,29838,1,0.83325,-0.1311,0.65894,-1.023,1.435,1.588
2026-06-11 17:18:01.838,3081821294,29838,2,1.04639,-0.09546,0.25366,-3.84,0.718,-0.939
2026-06-11 17:18:01.038,3081820494,30038,1,0.83838,-0.14648,0.65259,-0.664,0.305,1.397
2026-06-11 17:18:01.038,3081820494,30038,2,1.04565,-0.09814,0.25269,-0.496,-0.023,-0.214
2026-06-11 17:18:01.238,3081820694,30238,1,0.84717,-0.13672,0.65381,-0.008,1.756,1.565
2026-06-11 17:18:01.238,3081820694,30238,2,1.04468,-0.09644,0.25073,-0.641,-0.076,-0.099
2026-06-11 17:18:02.438,3081821894,30438,1,0.84546,-0.14478,0.63403,-0.496,1.885,2.221
2026-06-11 17:18:02.438,3081821894,30438,2,1.03857,-0.0979,0.25098,-0.55,0.29,-1.053
2026-06-11 17:18:02.638,3081822094,30638,1,0.84888,-0.15088,0.64429,0.595,3.046,1.496
2026-06-11 17:18:02.638,3081822094,30638,2,1.05298,-0.09448,0.23706,-0.198,1.771,-1.458
2026-06-11 17:18:02.838,3081822294,30838,1,0.83423,-0.15308,0.64868,-0.809,4.229,-0.031
2026-06-11 17:18:02.838,3081822294,30838,2,1.05103,-0.08594,0.24023,-1.954,3.519,-1.954
2026-06-11 17:18:02.038,3081821494,31038,1,0.83252,-0.14771,0.64331,-1.626,3.191,-1.008
2026-06-11 17:18:02.038,3081821494,31038,2,1.04736,-0.08618,0.24097,-2.977,0.366,-1.863
2026-06-11 17:18:02.238,3081821694,31238,1,0.84375,-0.15088,0.65527,-0.191,1.153,-0.725
2026-06-11 17:18:02.238,3081821694,31238,2,1.04541,-0.07349,0.2373,-1.031,0.214,-1.977
2026-06-11 17:18:03.438,3081822894,31438,1,0.84058,-0.14233,0.6499,1.45,1.794,0.038
2026-06-11 17:18:03.438,3081822894,31438,2,1.05322,-0.06885,0.2395,2.74,1.206,-1.053
2026-06-11 17:18:03.638,3081823094,31638,1,0.84229,-0.13843,0.64233,-1.985,3.733,-0.504
2026-06-11 17:18:03.638,3081823094,31638,2,1.05615,-0.08179,0.2561,-8.183,4.504,-2.962
2026-06-11 17:18:03.838,3081823294,31838,1,0.83252,-0.16602,0.65186,-9.198,4.939,-6.786
2026-06-11 17:18:03.838,3081823294,31838,2,1.05054,-0.10327,0.25098,-13.229,0.832,-2.122
2026-06-11 17:18:03.038,3081822494,32038,1,0.84082,-0.17896,0.63403,-4.008,3.603,-4.84
2026-06-11 17:18:03.038,3081822494,32038,2,1.05103,-0.11084,0.24316,-1.282,-1.794,1.008
2026-06-11 17:18:03.238,3081822694,32238,1,0.84253,-0.1731,0.65771,-5.794,5.672,-5.305
2026-06-11 17:18:03.238,3081822694,32238,2,1.04932,-0.12231,0.24243,5.061,9.107,1.282
2026-06-11 17:18:04.438,3081823894,32438,1,0.8042,-0.20776,0.63965,-1.916,3.42,-1.527
2026-06-11 17:18:04.438,3081823894,32438,2,1.09253,-0.10254,0.24487,-14.786,-8.511,-7.748
2026-06-11 17:18:04.638,3081824094,32638,1,0.83667,-0.13867,0.64282,7.511,-0.321,4.603
2026-06-11 17:18:04.638,3081824094,32638,2,1.07129,-0.10938,0.23242,17.046,-1.214,8.237
2026-06-11 17:18:04.838,3081824294,32838,1,0.83765,-0.15698,0.65186,12.153,-0.458,11.351
2026-06-11 17:18:04.838,3081824294,32838,2,1.04199,-0.08374,0.25073,18.45,6.336,-1.061
2026-06-11 17:18:04.038,3081823494,33038,1,0.83105,-0.13184,0.65356,18.786,-1.863,8.443
2026-06-11 17:18:04.038,3081823494,33038,2,1.03955,-0.03223,0.26782,25.0,2.908,-3.443
2026-06-11 17:18:04.238,3081823694,33238,1,0.84644,-0.07104,0.6604,10.282,-0.672,2.435
2026-06-11 17:18:04.238,3081823694,33238,2,1.04297,-0.03931,0.25586,13.611,1.916,4.282
2026-06-11 17:18:05.438,3081824894,33438,1,0.86694,-0.0874,0.65405,4.802,-0.038,2.092
2026-06-11 17:18:05.438,3081824894,33438,2,1.04395,-0.0415,0.28271,0.977,1.275,-1.26
2026-06-11 17:18:05.638,3081825094,33638,1,0.85864,-0.09082,0.65479,-2.115,3.229,-1.496
2026-06-11 17:18:05.638,3081825094,33638,2,1.04224,-0.05859,0.27417,-5.519,1.58,-1.191
2026-06-11 17:18:05.865,3081825321,33865,1,0.8479,-0.11499,0.65552,-3.061,3.466,-1.84
2026-06-11 17:18:05.865,3081825321,33865,2,1.04517,-0.06201,0.28882,-2.832,1.565,-1.878
2026-06-11 17:18:05.135,3081824591,34135,1,0.84253,-0.10693,0.66504,1.977,1.069,-0.206
2026-06-11 17:18:05.135,3081824591,34135,2,1.03979,-0.06592,0.28662,4.351,1.832,1.023
2026-06-11 17:18:05.336,3081824792,34336,1,0.85352,-0.10645,0.64185,3.939,0.412,1.916
2026-06-11 17:18:05.336,3081824792,34336,2,1.04736,-0.06763,0.28101,3.664,0.397,0.656
2026-06-11 17:18:06.536,3081825992,34536,1,0.85522,-0.09839,0.64551,2.679,1.13,2.076
2026-06-11 17:18:06.536,3081825992,34536,2,1.052,-0.05957,0.27368,2.725,-0.328,0.191
2026-06-11 17:18:06.736,3081826192,34736,1,0.85547,-0.0979,0.64355,-0.611,2.282,0.107
2026-06-11 17:18:06.736,3081826192,34736,2,1.04565,-0.06592,0.27026,-0.779,0.489,0.481
2026-06-11 17:18:06.936,3081826392,34936,1,0.85278,-0.10059,0.64624,-1.427,1.153,-0.458
2026-06-11 17:18:06.936,3081826392,34936,2,1.04907,-0.07275,0.26514,-3.84,0.985,-0.191
2026-06-11 17:18:06.136,3081825592,35136,1,0.86035,-0.11426,0.64624,-6.855,1.618,-2.733
2026-06-11 17:18:06.136,3081825592,35136,2,1.04346,-0.09229,0.27417,-9.939,1.031,-1.496
2026-06-11 17:18:06.336,3081825792,35336,1,0.83472,-0.12524,0.65625,-9.122,-0.214,-3.817
2026-06-11 17:18:06.336,3081825792,35336,2,1.05664,-0.09082,0.28369,-5.626,-3.702,2.763
2026-06-11 17:18:07.536,3081826992,35536,1,0.86523,-0.14917,0.62036,-9.443,6.649,-8.588
2026-06-11 17:18:07.536,3081826992,35536,2,1.04517,-0.11816,0.23267,-5.855,4.298,-4.153
2026-06-11 17:18:07.736,3081827192,35736,1,0.83936,-0.14771,0.64331,4.702,4.863,4.038
2026-06-11 17:18:07.736,3081827192,35736,2,1.04907,-0.0791,0.25977,10.817,6.603,0.458
2026-06-11 17:18:07.936,3081827392,35936,1,0.8457,-0.1106,0.65454,10.366,7.153,1.962
2026-06-11 17:18:07.936,3081827392,35936,2,1.04858,-0.08813,0.27954,19.344,4.954,0.382
2026-06-11 17:18:07.136,3081826592,36136,1,0.82422,-0.07104,0.65234,4.229,9.496,-0.45
2026-06-11 17:18:07.136,3081826592,36136,2,1.07935,-0.03589,0.28638,12.412,9.878,8.977
2026-06-11 17:18:07.336,3081826792,36336,1,0.84668,-0.03662,0.70972,1.084,5.397,5.076
2026-06-11 17:18:07.336,3081826792,36336,2,1.01709,0.0127,0.20215,-14.382,1.275,-17.328
2026-06-11 17:18:08.536,3081827992,36536,1,0.84692,-0.09814,0.6731,-4.115,3.183,-4.221
2026-06-11 17:18:08.536,3081827992,36536,2,0.96753,0.00879,0.34937,-12.176,4.511,-5.893
2026-06-11 17:18:08.736,3081828192,36736,1,0.80786,-0.10059,0.67993,-5.748,5.786,-6.992
2026-06-11 17:18:08.736,3081828192,36736,2,1.02441,-0.07178,0.29736,-19.366,2.496,-5.519
2026-06-11 17:18:08.936,3081828392,36936,1,0.78613,-0.11841,0.69019,-5.84,3.992,-3.466
2026-06-11 17:18:08.936,3081828392,36936,2,1.06592,-0.14551,0.25708,-15.527,-4.069,-2.634
2026-06-11 17:18:08.136,3081827592,37136,1,0.84473,-0.13232,0.67285,-4.046,-3.496,-5.916
2026-06-11 17:18:08.136,3081827592,37136,2,1.01733,-0.08838,0.29028,-2.992,2.771,-6.137
2026-06-11 17:18:08.336,3081827792,37336,1,0.83203,-0.09766,0.67236,3.611,-3.458,3.267
2026-06-11 17:18:08.336,3081827792,37336,2,1.03979,-0.07324,0.25952,16.107,-7.908,1.214
2026-06-11 17:18:09.536,3081828992,37536,1,0.84229,-0.09961,0.65405,7.977,-2.84,7.641
2026-06-11 17:18:09.536,3081828992,37536,2,1.03369,-0.06201,0.26123,7.206,3.42,1.626
2026-06-11 17:18:09.736,3081829192,37736,1,0.85889,-0.0957,0.64771,-2.244,0.229,0.878
2026-06-11 17:18:09.736,3081829192,37736,2,1.05225,-0.06982,0.26489,-0.84,1.809,-0.45
2026-06-11 17:18:09.936,3081829392,37936,1,0.85474,-0.10132,0.65015,-4.405,3.748,-2.237
2026-06-11 17:18:09.936,3081829392,37936,2,1.05493,-0.07666,0.25391,-15.71,1.397,-3.664
2026-06-11 17:18:09.136,3081828592,38136,1,0.85791,-0.10864,0.63892,-4.847,4.466,-3.015
2026-06-11 17:18:09.136,3081828592,38136,2,1.05029,-0.07788,0.26318,-3.916,1.397,-0.695
2026-06-11 17:18:09.336,3081828792,38336,1,0.83911,-0.11279,0.64941,-0.84,4.954,-0.817
2026-06-11 17:18:09.336,3081828792,38336,2,1.05078,-0.08154,0.26025,0.672,3.649,-0.389
2026-06-11 17:18:10.536,3081829992,38536,1,0.84009,-0.104,0.65698,1.71,3.611,0.992
2026-06-11 17:18:10.536,3081829992,38536,2,1.03589,-0.08154,0.27417,-2.511,5.183,-3.595
2026-06-11 17:18:10.736,3081830192,38736,1,0.83911,-0.09814,0.66577,3.015,3.504,1.282
2026-06-11 17:18:10.736,3081830192,38736,2,1.04883,-0.06445,0.27539,1.687,2.122,-0.641
2026-06-11 17:18:10.936,3081830392,38936,1,0.83765,-0.10034,0.66626,-0.496,1.42,0.443
2026-06-11 17:18:10.936,3081830392,38936,2,1.04028,-0.07324,0.27661,-0.496,-0.206,-0.206
2026-06-11 17:18:10.136,3081829592,39136,1,0.83423,-0.10376,0.66821,-0.397,0.794,0.802
2026-06-11 17:18:10.136,3081829592,39136,2,1.05054,-0.07251,0.27783,-0.817,0.282,-0.611
2026-06-11 17:18:10.336,3081829792,39336,1,0.84473,-0.11133,0.66187,0.099,0.748,0.252
2026-06-11 17:18:10.336,3081829792,39336,2,1.03955,-0.07275,0.271,0.412,1.191,0.191
2026-06-11 17:18:11.536,3081830992,39536,1,0.84521,-0.10107,0.65869,0.344,1.87,0.221
2026-06-11 17:18:11.536,3081830992,39536,2,1.04565,-0.07007,0.26367,0.305,2.061,-1.015
2026-06-11 17:18:11.736,3081831192,39736,1,0.83813,-0.10205,0.6543,1.023,1.756,0.374
2026-06-11 17:18:11.736,3081831192,39736,2,1.04419,-0.07739,0.26855,-0.282,0.931,-1.046
2026-06-11 17:18:11.955,3081831411,39955,1,0.84229,-0.10425,0.64648,0.672,1.061,0.824
2026-06-11 17:18:11.955,3081831411,39955,2,1.04248,-0.07666,0.26245,0.672,0.779,-0.214
2026-06-11 17:18:11.155,3081830611,40155,1,0.85303,-0.10107,0.64209,0.824,0.794,0.656
2026-06-11 17:18:11.155,3081830611,40155,2,1.0459,-0.07788,0.27783,1.695,0.206,-0.252
2026-06-11 17:18:11.355,3081830811,40355,1,0.8479,-0.10107,0.63623,0.466,2.305,0.611
2026-06-11 17:18:11.355,3081830811,40355,2,1.05615,-0.08179,0.25757,0.603,2.336,-1.13
2026-06-11 17:18:12.555,3081832011,40555,1,0.85107,-0.1062,0.65015,0.702,2.924,0.366
2026-06-11 17:18:12.555,3081832011,40555,2,1.04199,-0.07568,0.25635,0.969,2.42,-1.16
2026-06-11 17:18:12.755,3081832211,40755,1,0.85034,-0.09985,0.64795,-0.031,2.725,-0.198
2026-06-11 17:18:12.755,3081832211,40755,2,1.04175,-0.06909,0.2771,1.099,2.0,-1.275
2026-06-11 17:18:12.955,3081832411,40955,1,0.8479,-0.09204,0.65039,0.275,3.298,-0.618
2026-06-11 17:18:12.955,3081832411,40955,2,1.0459,-0.06445,0.26782,0.305,1.763,-0.802
2026-06-11 17:18:12.155,3081831611,41155,1,0.84619,-0.09717,0.65527,-0.573,3.153,0.13
2026-06-11 17:18:12.155,3081831611,41155,2,1.04736,-0.07178,0.27417,-0.893,1.55,-1.122
2026-06-11 17:18:12.355,3081831811,41355,1,0.84253,-0.10522,0.64551,-0.443,3.061,0.611
2026-06-11 17:18:12.355,3081831811,41355,2,1.03882,-0.07056,0.27856,0.145,1.74,-1.0
2026-06-11 17:18:13.555,3081833011,41555,1,0.83594,-0.11035,0.65894,-0.229,3.115,0.076
2026-06-11 17:18:13.555,3081833011,41555,2,1.0332,-0.07715,0.27417,-0.718,1.45,-0.916
2026-06-11 17:18:13.755,3081833211,41755,1,0.8479,-0.10107,0.65601,-1.618,3.405,-1.26
2026-06-11 17:18:13.755,3081833211,41755,2,1.04834,-0.05176,0.28345,0.496,2.183,-1.756
2026-06-11 17:18:13.955,3081833411,41955,1,0.88354,-0.09351,0.66138,2.58,12.985,-0.664
2026-06-11 17:18:13.955,3081833411,41955,2,1.07031,-0.03613,0.32593,44.763,7.29,6.359
2026-06-11 17:18:13.155,3081832611,42155,1,0.69971,-0.25708,0.71826,0.588,30.893,-12.718
2026-06-11 17:18:13.155,3081832611,42155,2,0.92676,-0.24634,0.26416,57.13,41.756,8.16
2026-06-11 17:18:14.373,3081833829,42373,1,0.72852,0.02124,0.93384,-0.489,28.458,-9.557
2026-06-11 17:18:14.373,3081833829,42373,2,1.09692,0.11426,0.45532,-12.534,22.221,12.092
2026-06-11 17:18:14.573,3081834029,42573,1,0.68481,-0.07959,0.79395,14.557,-24.618,15.931
2026-06-11 17:18:14.573,3081834029,42573,2,1.01099,0.07446,0.36182,71.565,-25.382,23.351
2026-06-11 17:18:14.773,3081834229,42773,1,0.76685,-0.0481,0.73511,26.198,-16.687,17.74
2026-06-11 17:18:14.773,3081834229,42773,2,1.01733,0.01538,0.36426,18.626,-12.511,11.435
2026-06-11 17:18:14.973,3081834429,42973,1,0.81177,-0.07153,0.70703,14.618,-8.229,14.145
2026-06-11 17:18:14.973,3081834429,42973,2,1.04346,-0.00684,0.28882,13.076,-9.634,4.366
2026-06-11 17:18:14.173,3081833629,43173,1,0.83545,-0.08472,0.67358,9.305,-3.061,6.489
2026-06-11 17:18:14.173,3081833629,43173,2,1.05127,0.00171,0.271,4.191,1.863,-4.015
2026-06-11 17:18:15.373,3081834829,43373,1,0.84204,-0.0603,0.6709,-1.649,1.427,-4.183
2026-06-11 17:18:15.373,3081834829,43373,2,1.05225,-0.02124,0.25757,-7.557,-2.13,0.519
2026-06-11 17:18:15.573,3081835029,43573,1,0.84253,-0.05591,0.66528,-11.595,2.756,-9.313
2026-06-11 17:18:15.573,3081835029,43573,2,1.0625,-0.01489,0.27075,-16.45,6.412,-1.878
2026-06-11 17:18:15.773,3081835229,43773,1,0.86475,-0.09839,0.66992,-27.305,19.405,-22.107
2026-06-11 17:18:15.773,3081835229,43773,2,1.04614,-0.03809,0.33667,-19.336,24.359,-9.198
2026-06-11 17:18:15.973,3081835429,43973,1,0.79858,-0.11328,0.69873,-9.145,35.359,-12.038
2026-06-11 17:18:15.973,3081835429,43973,2,1.02612,-0.02295,0.38159,16.939,27.252,-9.397
2026-06-11 17:18:15.173,3081834629,44173,1,0.72046,0.07031,0.79346,8.366,25.382,-2.244
2026-06-11 17:18:15.173,3081834629,44173,2,0.96411,0.1604,0.39233,-7.885,34.336,-12.672
2026-06-11 17:18:16.373,3081835829,44373,1,0.33203,-0.13354,0.67188,-6.626,50.229,-4.275
2026-06-11 17:18:16.373,3081835829,44373,2,0.76025,0.07544,0.41553,25.954,25.55,-20.359
2026-06-11 17:18:16.573,3081836029,44573,1,0.53223,-0.05444,0.82373,2.695,18.542,-7.412
2026-06-11 17:18:16.573,3081836029,44573,2,0.83276,0.08862,0.53027,26.351,32.763,-5.313
2026-06-11 17:18:16.773,3081836229,44773,1,0.34937,0.00171,1.05347,-4.542,13.405,8.473
2026-06-11 17:18:16.773,3081836229,44773,2,0.87451,0.12549,0.69165,-15.13,-9.779,4.557
2026-06-11 17:18:16.973,3081836429,44973,1,0.50635,-0.06372,1.14331,-12.916,-14.954,16.008
2026-06-11 17:18:16.973,3081836429,44973,2,0.92847,0.13623,0.75244,-13.168,-19.786,9.481
2026-06-11 17:18:16.189,3081835645,45189,1,0.55737,-0.14233,1.10645,6.725,-20.992,4.985
2026-06-11 17:18:16.189,3081835645,45189,2,1.07153,0.06445,0.7854,-4.962,-10.702,4.702
2026-06-11 17:18:17.389,3081836845,45389,1,0.52783,-0.18335,1.15161,-7.45,12.679,-4.626
2026-06-11 17:18:17.389,3081836845,45389,2,0.8855,-0.02368,0.6355,-31.168,17.244,-8.916
2026-06-11 17:18:17.589,3081837045,45589,1,0.45068,-0.14551,0.89502,-6.382,-12.603,8.435
2026-06-11 17:18:17.589,3081837045,45589,2,0.95801,-0.01685,0.62769,3.786,-27.229,-2.351
2026-06-11 17:18:17.789,3081837245,45789,1,0.52686,-0.18701,0.93164,-12.542,6.748,-2.305
2026-06-11 17:18:17.789,3081837245,45789,2,0.93506,0.07104,0.54712,-5.328,-33.374,5.916
2026-06-11 17:18:17.989,3081837445,45989,1,0.55005,-0.28564,0.90747,-23.221,10.359,-17.863
2026-06-11 17:18:17.989,3081837445,45989,2,0.9248,-0.02612,0.5686,-17.855,3.473,-5.328
2026-06-11 17:18:17.189,3081836645,46189,1,0.54956,-0.16675,0.92676,-14.405,-2.908,-1.084
2026-06-11 17:18:17.189,3081836645,46189,2,0.94238,-0.02856,0.60034,0.58,18.962,4.16
2026-06-11 17:18:18.389,3081837845,46389,1,0.56445,-0.21387,0.93848,-3.191,-0.863,6.008
2026-06-11 17:18:18.389,3081837845,46389,2,0.94751,-0.00195,0.60938,7.786,-4.351,-0.748
2026-06-11 17:18:18.589,3081838045,46589,1,0.55811,-0.20752,0.90356,12.542,-9.107,-8.282
2026-06-11 17:18:18.589,3081838045,46589,2,0.88574,-0.0415,0.56396,-21.084,17.046,-6.687
2026-06-11 17:18:18.789,3081838245,46789,1,0.59595,-0.13208,0.91406,9.321,-0.489,-11.939
2026-06-11 17:18:18.789,3081838245,46789,2,0.95483,-0.06299,0.58569,12.069,-4.595,-3.519
2026-06-11 17:18:18.989,3081838445,46989,1,0.61279,-0.12695,0.88623,7.771,0.076,5.176
2026-06-11 17:18:18.989,3081838445,46989,2,0.95972,0.02759,0.57251,8.763,5.29,-2.557
2026-06-11 17:18:18.189,3081837645,47189,1,0.59521,-0.09839,0.89453,1.031,6.817,-3.405
2026-06-11 17:18:18.189,3081837645,47189,2,1.09521,-0.00586,0.65381,5.939,-4.87,-2.634
2026-06-11 17:18:19.389,3081838845,47389,1,0.82715,-0.11133,1.03784,8.855,17.84,-1.511
2026-06-11 17:18:19.389,3081838845,47389,2,1.18335,0.0105,0.70923,23.992,36.153,-11.0
2026-06-11 17:18:19.589,3081839045,47589,1,0.38257,-0.0752,1.03638,3.962,40.145,1.641
2026-06-11 17:18:19.589,3081839045,47589,2,0.88062,0.09204,0.71899,23.252,-15.466,10.069
2026-06-11 17:18:19.789,3081839245,47789,1,0.3186,-0.10474,1.02979,12.802,26.267,8.611
2026-06-11 17:18:19.789,3081839245,47789,2,0.78662,0.12915,0.72803,19.863,18.626,2.794
2026-06-11 17:18:19.989,3081839445,47989,1,0.32275,-0.0105,1.16284,14.962,8.656,-8.718
2026-06-11 17:18:19.989,3081839445,47989,2,0.8335,0.17578,0.80298,6.87,8.328,1.29
2026-06-11 17:18:19.189,3081838645,48189,1,0.17993,0.02344,1.06641,-3.038,-19.221,1.87
2026-06-11 17:18:19.189,3081838645,48189,2,0.5293,0.07959,0.52612,-5.168,-29.496,15.42
2026-06-11 17:18:20.389,3081839845,48389,1,0.24609,-0.08984,0.76074,-15.855,-88.252,-2.458
2026-06-11 17:18:20.389,3081839845,48389,2,0.96265,0.00659,0.52856,-16.397,-83.282,28.634
2026-06-11 17:18:20.589,3081840045,48589,1,0.68115,0.01294,0.51904,-20.534,-69.847,3.053
2026-06-11 17:18:20.589,3081840045,48589,2,0.98706,-0.07739,0.25391,14.122,-76.534,19.481
2026-06-11 17:18:20.789,3081840245,48789,1,0.92773,-0.13037,0.75146,-1.145,-3.565,-3.504
2026-06-11 17:18:20.789,3081840245,48789,2,1.06982,-0.05811,0.17773,8.748,-3.924,0.023
2026-06-11 17:18:20.989,3081840445,48989,1,0.80151,-0.1145,0.68018,-4.046,-1.305,-2.718
2026-06-11 17:18:20.989,3081840445,48989,2,1.073,-0.07861,0.22803,1.656,2.916,-1.885
2026-06-11 17:18:20.189,3081839645,49189,1,0.78931,-0.0813,0.69409,3.008,3.603,5.115
2026-06-11 17:18:20.189,3081839645,49189,2,1.03979,-0.06323,0.21313,9.74,3.603,1.427
2026-06-11 17:18:21.389,3081840845,49389,1,0.81177,-0.13745,0.7041,2.962,2.679,2.954
2026-06-11 17:18:21.389,3081840845,49389,2,1.05859,-0.07544,0.20605,1.031,3.908,-2.008
2026-06-11 17:18:21.589,3081841045,49589,1,0.78491,-0.10547,0.72144,2.443,4.092,-1.901
2026-06-11 17:18:21.589,3081841045,49589,2,1.05493,-0.0708,0.2168,6.427,2.58,-0.733
2026-06-11 17:18:21.789,3081841245,49789,1,0.79346,-0.08398,0.70557,1.489,1.809,2.977
2026-06-11 17:18:21.789,3081841245,49789,2,1.05273,-0.0791,0.2168,1.153,-0.84,1.71
2026-06-11 17:18:21.989,3081841445,49989,1,0.86108,-0.12549,0.66382,0.42,6.305,0.817
2026-06-11 17:18:21.989,3081841445,49989,2,1.0813,-0.04785,0.26489,16.901,22.069,-11.336
2026-06-11 17:18:21.189,3081840645,50189,1,0.76074,-0.07422,0.64966,19.695,46.176,6.366
2026-06-11 17:18:21.189,3081840645,50189,2,0.92456,0.04028,0.3418,22.321,57.908,-10.733
2026-06-11 17:18:22.389,3081841845,50389,1,0.34204,-0.00464,0.72607,13.878,57.595,-13.809
2026-06-11 17:18:22.389,3081841845,50389,2,0.65771,0.01709,0.44751,-5.351,26.885,-7.183
2026-06-11 17:18:22.589,3081842045,50589,1,0.44067,0.00122,0.91895,-0.13,18.855,-8.687
2026-06-11 17:18:22.589,3081842045,50589,2,0.88086,0.10718,0.56787,8.588,32.237,-6.977
2026-06-11 17:18:22.789,3081842245,50789,1,0.396,0.05078,1.05762,-3.847,6.817,-6.916
2026-06-11 17:18:22.789,3081842245,50789,2,0.91382,0.12769,0.66064,7.252,-10.351,2.687
2026-06-11 17:18:22.989,3081842445,50989,1,0.45557,-0.01733,1.09277,-6.13,-19.947,16.626
2026-06-11 17:18:22.989,3081842445,50989,2,0.96826,0.08838,0.62036,4.534,-12.26,18.924
2026-06-11 17:18:22.189,3081841645,51189,1,0.58887,-0.08057,1.0542,-8.87,-31.664,5.893
2026-06-11 17:18:22.189,3081841645,51189,2,1.26733,0.03345,0.49805,-7.588,-19.191,7.603
2026-06-11 17:18:23.389,3081842845,51389,1,0.74512,-0.19507,0.92798,-2.336,-1.595,0.58
2026-06-11 17:18:23.389,3081842845,51389,2,1.09326,-0.04468,0.54907,2.809,12.641,0.504
2026-06-11 17:18:23.589,3081843045,51589,1,0.55225,-0.09839,0.87549,9.046,1.794,11.198
2026-06-11 17:18:23.589,3081843045,51589,2,0.93799,-0.01465,0.40527,-8.405,-11.221,-1.626
2026-06-11 17:18:23.789,3081843245,51789,1,0.66064,-0.1106,0.91699,0.504,7.611,-0.954
2026-06-11 17:18:23.789,3081843245,51789,2,0.97192,0.02515,0.49438,3.13,10.985,-7.893
2026-06-11 17:18:23.989,3081843445,51989,1,0.59717,-0.07764,0.88184,0.023,5.809,-0.305
2026-06-11 17:18:23.989,3081843445,51989,2,0.98682,0.05127,0.51831,-0.527,1.191,-14.076
2026-06-11 17:18:23.189,3081842645,52189,1,0.50879,-0.07373,0.94434,-0.168,-3.092,-5.336
2026-06-11 17:18:23.189,3081842645,52189,2,0.93701,0.06909,0.50439,10.198,-2.458,2.42
2026-06-11 17:18:24.389,3081843845,52389,1,0.63818,-0.06445,0.86646,-3.389,-4.344,-5.244
2026-06-11 17:18:24.389,3081843845,52389,2,0.98486,0.02661,0.50879,-3.191,-0.298,-3.489
2026-06-11 17:18:24.589,3081844045,52589,1,0.66406,-0.10742,0.81201,6.588,11.916,3.023
2026-06-11 17:18:24.589,3081844045,52589,2,0.99683,0.0813,0.4917,16.191,16.13,-6.992
2026-06-11 17:18:24.789,3081844245,52789,1,0.88647,-0.17456,1.25146,-14.908,-1.779,-3.817
2026-06-11 17:18:24.789,3081844245,52789,2,1.39941,0.18115,0.69189,21.015,51.336,-21.137
2026-06-11 17:18:24.989,3081844445,52989,1,0.52222,-0.01392,0.96802,15.076,-14.237,6.092
2026-06-11 17:18:24.989,3081844445,52989,2,0.91675,0.14258,0.61035,-22.405,-22.824,3.916
2026-06-11 17:18:24.189,3081843645,53189,1,0.61792,-0.06641,1.05737,-18.023,-16.557,-6.702
2026-06-11 17:18:24.189,3081843645,53189,2,1.02808,0.02271,0.57349,-9.466,-28.252,6.748
2026-06-11 17:18:25.389,3081844845,53389,1,0.58789,-0.03516,0.90967,1.534,3.176,-12.832
2026-06-11 17:18:25.389,3081844845,53389,2,0.98291,-0.00488,0.43262,-18.626,-29.198,11.672
2026-06-11 17:18:25.589,3081845045,53589,1,0.125,0.05347,0.4436,-22.557,-13.275,-4.076
2026-06-11 17:18:25.589,3081845045,53589,2,0.45776,0.13501,0.12354,12.977,-93.153,24.756
2026-06-11 17:18:25.789,3081845245,53789,1,0.76367,-0.17773,0.79712,1.038,-15.275,10.382
2026-06-11 17:18:25.789,3081845245,53789,2,1.0022,-0.17017,0.16406,-36.588,-47.626,-0.069
2026-06-11 17:18:25.989,3081845445,53989,1,0.78931,-0.18091,0.60303,5.237,-17.298,15.687
2026-06-11 17:18:25.989,3081845445,53989,2,0.98657,-0.03857,0.25171,22.603,-21.924,-14.053
2026-06-11 17:18:25.189,3081844645,54189,1,0.79492,-0.08203,0.65747,3.641,-9.733,4.496
2026-06-11 17:18:25.189,3081844645,54189,2,1.07764,-0.11206,0.0769,10.626,-26.053,4.397
2026-06-11 17:18:26.389,3081845845,54389,1,0.88721,-0.10645,0.63135,19.191,-5.099,15.13
2026-06-11 17:18:26.389,3081845845,54389,2,1.02686,-0.10083,0.06958,21.55,11.107,2.641
2026-06-11 17:18:26.589,3081846045,54589,1,0.79785,-0.03979,0.68042,-0.008,9.321,-1.168
2026-06-11 17:18:26.589,3081846045,54589,2,1.05005,-0.09448,0.05835,-5.954,15.893,7.321
2026-06-11 17:18:26.789,3081846245,54789,1,0.82104,-0.07935,0.66846,0.855,5.679,7.145
2026-06-11 17:18:26.789,3081846245,54789,2,1.05054,-0.1145,0.09595,-12.809,-5.435,3.252
2026-06-11 17:18:26.052,3081845508,55052,1,0.83496,-0.12036,0.66968,-6.977,0.847,-5.084
2026-06-11 17:18:26.052,3081845508,55052,2,1.05151,-0.14331,0.10425,-2.206,2.595,0.802
2026-06-11 17:18:26.252,3081845708,55252,1,0.83594,-0.10449,0.67139,-1.611,5.595,-1.931
2026-06-11 17:18:26.252,3081845708,55252,2,1.05835,-0.14063,0.10205,3.763,5.908,-2.359
2026-06-11 17:18:27.452,3081846908,55452,1,0.82788,-0.09521,0.67212,2.122,4.0,-0.542
2026-06-11 17:18:27.452,3081846908,55452,2,1.0459,-0.14063,0.11914,2.802,4.298,-1.466
2026-06-11 17:18:27.652,3081847108,55652,1,0.84253,-0.09961,0.67065,1.656,3.153,-0.458
2026-06-11 17:18:27.652,3081847108,55652,2,1.06372,-0.14429,0.12695,2.13,5.939,-4.565
2026-06-11 17:18:27.852,3081847308,55852,1,0.83569,-0.08325,0.67944,3.74,5.405,3.053
2026-06-11 17:18:27.852,3081847308,55852,2,1.05957,-0.12109,0.15015,4.023,9.672,-3.076
2026-06-11 17:18:27.052,3081846508,56052,1,0.82642,-0.10059,0.68457,-0.58,10.145,0.305
2026-06-11 17:18:27.052,3081846508,56052,2,1.052,-0.10962,0.19824,7.206,13.076,-4.13
2026-06-11 17:18:27.252,3081846708,56252,1,0.85889,-0.11475,0.63672,5.099,34.26,-0.802
2026-06-11 17:18:27.252,3081846708,56252,2,1.08838,-0.05322,0.27173,14.45,64.985,-26.855
2026-06-11 17:18:28.452,3081847908,56452,1,0.58057,-0.03979,0.67627,16.664,100.779,-4.603
2026-06-11 17:18:28.452,3081847908,56452,2,0.9353,0.01245,0.46606,19.176,93.435,-37.061
2026-06-11 17:18:28.652,3081848108,56652,1,0.12769,0.02368,1.00098,12.908,101.099,13.16
2026-06-11 17:18:28.652,3081848108,56652,2,0.81348,0.19751,0.76929,37.588,88.687,-29.511
2026-06-11 17:18:28.852,3081848308,56852,1,-0.14844,0.07324,1.104,21.885,81.13,11.076
2026-06-11 17:18:28.852,3081848308,56852,2,0.46851,0.35303,0.87451,8.191,64.092,-29.748
2026-06-11 17:18:28.052,3081847508,57052,1,-0.38452,0.16821,1.13452,8.29,51.466,10.244
2026-06-11 17:18:28.052,3081847508,57052,2,0.24731,0.4248,1.02783,10.42,36.115,-13.046
2026-06-11 17:18:28.252,3081847708,57252,1,-0.48804,0.18188,1.05811,1.221,20.023,0.008
2026-06-11 17:18:28.252,3081847708,57252,2,0.19165,0.40186,1.04761,-4.183,6.115,2.527
2026-06-11 17:18:29.452,3081848908,57452,1,-0.4104,0.15771,0.94287,12.191,0.298,9.427
2026-06-11 17:18:29.452,3081848908,57452,2,0.20361,0.4375,1.0022,1.763,0.489,-0.458
2026-06-11 17:18:29.652,3081849108,57652,1,-0.38062,0.12744,0.95068,14.145,-5.237,-0.595
2026-06-11 17:18:29.652,3081849108,57652,2,0.22876,0.4021,0.98877,-3.427,-4.977,1.992
2026-06-11 17:18:29.852,3081849308,57852,1,-0.38574,0.21045,1.03296,-8.069,-9.282,-1.366
2026-06-11 17:18:29.852,3081849308,57852,2,0.28564,0.40991,1.03491,-3.504,-23.817,11.29
2026-06-11 17:18:29.052,3081848508,58052,1,-0.3855,0.21411,1.11768,-9.527,-54.305,5.939
2026-06-11 17:18:29.052,3081848508,58052,2,0.43628,0.36816,0.92651,-11.885,-75.252,35.679
2026-06-11 17:18:29.252,3081848708,58252,1,-0.12549,0.09497,1.03149,-23.634,-87.878,-4.191
2026-06-11 17:18:29.252,3081848708,58252,2,0.61133,0.07983,0.82593,-20.45,-89.275,37.458
2026-06-11 17:18:30.452,3081849908,58452,1,0.20605,0.03979,0.91089,-7.954,-76.359,6.878
2026-06-11 17:18:30.452,3081849908,58452,2,0.84888,0.06909,0.63818,-13.473,-50.565,13.053
2026-06-11 17:18:30.652,3081850108,58652,1,0.51709,-0.03369,0.85815,-1.664,-69.29,12.328
2026-06-11 17:18:30.652,3081850108,58652,2,1.05127,0.0603,0.40405,-2.962,-68.26,1.137
2026-06-11 17:18:30.852,3081850308,58852,1,0.78174,-0.03784,0.6333,0.771,-46.229,9.534
2026-06-11 17:18:30.852,3081850308,58852,2,1.05151,0.03955,0.33105,33.16,-38.878,21.389
2026-06-11 17:18:30.052,3081849508,59052,1,0.81226,-0.05615,0.68408,-0.038,-13.954,6.786
2026-06-11 17:18:30.052,3081849508,59052,2,1.10254,0.03931,0.22485,30.786,-10.198,22.771
2026-06-11 17:18:30.252,3081849708,59252,1,0.80371,-0.0542,0.71631,-17.656,0.214,-14.443
2026-06-11 17:18:30.252,3081849708,59252,2,1.06567,-0.07251,0.23145,-4.366,18.489,5.412
2026-06-11 17:18:31.452,3081850908,59452,1,0.88306,-0.08521,0.64795,-6.305,0.695,2.924
2026-06-11 17:18:31.452,3081850908,59452,2,1.04077,-0.09009,0.24268,3.504,4.336,7.58
2026-06-11 17:18:31.652,3081851108,59652,1,0.86011,-0.0957,0.67236,9.763,8.779,10.557
2026-06-11 17:18:31.652,3081851108,59652,2,1.04932,-0.04956,0.23706,7.611,11.489,-3.45
2026-06-11 17:18:31.852,3081851308,59852,1,0.77759,-0.07056,0.72461,4.153,4.206,2.305
2026-06-11 17:18:31.852,3081851308,59852,2,1.06494,-0.07104,0.23267,0.282,0.122,0.511
2026-06-11 17:18:31.052,3081850508,60052,1,0.86694,-0.09058,0.65601,0.542,9.275,1.0
2026-06-11 17:18:31.052,3081850508,60052,2,1.06909,-0.05688,0.2666,6.176,21.023,-9.351
2026-06-11 17:18:31.252,3081850708,60252,1,0.82642,-0.10156,0.69019,11.008,40.962,2.924
2026-06-11 17:18:31.252,3081850708,60252,2,1.03931,-0.0249,0.43555,22.74,46.924,-22.321
2026-06-11 17:18:32.475,3081851931,60475,1,0.48608,-0.00073,0.84058,25.29,76.817,-0.71
2026-06-11 17:18:32.475,3081851931,60475,2,0.93652,0.04248,0.4541,39.542,74.878,-32.55
2026-06-11 17:18:32.675,3081852131,60675,1,0.19214,0.11108,0.93726,28.947,94.733,-0.107
2026-06-11 17:18:32.675,3081852131,60675,2,0.77197,0.14697,0.6687,7.344,57.832,-24.771
2026-06-11 17:18:32.875,3081852331,60875,1,-0.02881,0.16846,1.05322,11.282,76.214,-6.458
2026-06-11 17:18:32.875,3081852331,60875,2,0.64063,0.24146,0.82495,3.084,66.626,-28.275
2026-06-11 17:18:32.076,3081851532,61076,1,-0.21265,0.17139,1.0835,9.16,48.863,5.412
2026-06-11 17:18:32.076,3081851532,61076,2,0.52979,0.29102,0.93799,-1.802,32.344,-14.237
2026-06-11 17:18:32.276,3081851732,61276,1,-0.33398,0.16626,1.05762,5.237,33.382,5.153
2026-06-11 17:18:32.276,3081851732,61276,2,0.40918,0.36035,0.95728,5.534,23.511,-9.305
2026-06-11 17:18:33.476,3081852932,61476,1,-0.39258,0.18042,0.99219,2.817,17.137,1.321
2026-06-11 17:18:33.476,3081852932,61476,2,0.34814,0.3667,0.97412,0.885,12.45,-9.145
2026-06-11 17:18:33.727,3081853183,61727,1,-0.41748,0.19971,0.8999,7.847,20.588,0.939
2026-06-11 17:18:33.727,3081853183,61727,2,0.12231,0.42725,1.15332,2.939,10.107,-9.275
2026-06-11 17:18:33.009,3081852465,62009,1,-0.55176,0.21826,0.8855,-0.985,-10.649,-0.756
2026-06-11 17:18:33.009,3081852465,62009,2,0.18481,0.39063,1.03003,7.824,-3.702,-1.282
2026-06-11 17:18:33.209,3081852665,62209,1,-0.53345,0.26563,0.97119,2.374,-21.863,4.702
2026-06-11 17:18:33.209,3081852665,62209,2,0.22192,0.42236,0.99414,1.145,-21.931,4.817
2026-06-11 17:18:34.409,3081853865,62409,1,-0.44238,0.27832,1.15308,-17.458,-78.168,1.992
2026-06-11 17:18:34.409,3081853865,62409,2,0.48682,0.35718,0.91943,-10.756,-83.58,38.87
2026-06-11 17:18:34.609,3081854065,62609,1,-0.04443,0.14673,1.01538,-38.145,-105.282,3.588
2026-06-11 17:18:34.609,3081854065,62609,2,0.76929,0.24023,0.71582,-13.832,-86.504,54.115
2026-06-11 17:18:34.809,3081854265,62809,1,0.2981,0.01855,0.83765,-22.313,-90.107,7.794
2026-06-11 17:18:34.809,3081854265,62809,2,0.91187,0.06494,0.44043,-18.969,-90.603,41.901
2026-06-11 17:18:34.009,3081853465,63009,1,0.73657,-0.10278,0.62866,-27.076,-77.878,-2.107
2026-06-11 17:18:34.009,3081853465,63009,2,1.04004,-0.06909,0.25024,-26.931,-49.824,18.496
2026-06-11 17:18:34.209,3081853665,63209,1,0.85815,-0.14624,0.62964,-19.473,-18.847,-10.221
2026-06-11 17:18:34.209,3081853665,63209,2,1.09204,-0.1355,0.10498,-22.557,-12.565,5.74
2026-06-11 17:18:35.409,3081854865,63409,1,0.84302,-0.14429,0.67822,-18.519,15.687,-19.038
2026-06-11 17:18:35.409,3081854865,63409,2,0.99829,-0.07935,0.23999,-68.588,27.969,-30.366
2026-06-11 17:18:35.609,3081855065,63609,1,0.80005,-0.11328,0.7146,-2.038,-3.053,-3.557
2026-06-11 17:18:35.609,3081855065,63609,2,1.04712,-0.08789,0.19116,21.931,-4.099,2.863
2026-06-11 17:18:35.809,3081855265,63809,1,0.83008,-0.09668,0.67627,7.641,-5.26,8.344
2026-06-11 17:18:35.809,3081855265,63809,2,1.06787,-0.08228,0.17065,12.672,-2.16,7.802
2026-06-11 17:18:35.009,3081854465,64009,1,0.83081,-0.10474,0.68506,-4.756,2.466,-3.458
2026-06-11 17:18:35.009,3081854465,64009,2,1.05713,-0.10303,0.15161,9.412,0.092,1.687
2026-06-11 17:18:35.209,3081854665,64209,1,0.8374,-0.11792,0.66821,0.45,-1.069,2.794
2026-06-11 17:18:35.209,3081854665,64209,2,1.05908,-0.09399,0.15186,0.168,-0.489,-1.969
2026-06-11 17:18:36.409,3081855865,64409,1,0.8418,-0.11597,0.66284,1.13,2.542,0.405
2026-06-11 17:18:36.409,3081855865,64409,2,1.05884,-0.10425,0.16016,2.16,3.649,0.038
2026-06-11 17:18:36.609,3081856065,64609,1,0.83496,-0.12036,0.66309,-0.031,3.389,-0.366
2026-06-11 17:18:36.609,3081856065,64609,2,1.05591,-0.10059,0.16382,0.084,2.695,-0.313
2026-06-11 17:18:36.809,3081856265,64809,1,0.82764,-0.12427,0.66943,-0.733,3.031,1.611
2026-06-11 17:18:36.809,3081856265,64809,2,1.05054,-0.11035,0.1543,-2.046,2.389,-1.015
2026-06-11 17:18:36.009,3081855465,65009,1,0.83179,-0.1394,0.66016,-0.321,1.687,1.084
2026-06-11 17:18:36.009,3081855465,65009,2,1.05835,-0.10474,0.16211,0.962,0.756,-0.992
2026-06-11 17:18:36.209,3081855665,65209,1,0.83276,-0.12598,0.67334,1.023,1.855,0.092
2026-06-11 17:18:36.209,3081855665,65209,2,1.05737,-0.10571,0.16602,3.206,1.351,-0.168
2026-06-11 17:18:37.409,3081856865,65409,1,0.8374,-0.12476,0.66553,1.26,2.237,1.107
2026-06-11 17:18:37.409,3081856865,65409,2,1.05078,-0.10474,0.15771,2.229,1.786,-1.229
2026-06-11 17:18:37.609,3081857065,65609,1,0.83252,-0.12134,0.66553,0.969,1.771,0.977
2026-06-11 17:18:37.609,3081857065,65609,2,1.05957,-0.09961,0.16382,1.069,1.13,-1.435
2026-06-11 17:18:37.809,3081857265,65809,1,0.83301,-0.1189,0.67456,1.603,2.542,1.122
2026-06-11 17:18:37.809,3081857265,65809,2,1.05933,-0.09277,0.15161,1.275,1.74,-0.634
2026-06-11 17:18:37.009,3081856465,66009,1,0.83667,-0.12793,0.66089,-0.542,1.687,-0.237
2026-06-11 17:18:37.009,3081856465,66009,2,1.06079,-0.10278,0.15674,0.878,1.069,-0.595
2026-06-11 17:18:37.209,3081856665,66209,1,0.83472,-0.13184,0.6748,-0.481,0.649,0.405
2026-06-11 17:18:37.209,3081856665,66209,2,1.05811,-0.09888,0.16455,-0.038,0.519,0.244
2026-06-11 17:18:38.409,3081857865,66409,1,0.83765,-0.11523,0.65771,-2.153,3.069,0.763
2026-06-11 17:18:38.409,3081857865,66409,2,1.0603,-0.09326,0.16431,1.115,1.71,-0.298
2026-06-11 17:18:38.609,3081858065,66609,1,0.82422,-0.1355,0.66138,7.466,0.542,5.061
2026-06-11 17:18:38.609,3081858065,66609,2,1.05957,-0.09766,0.15063,3.053,0.443,1.26
2026-06-11 17:18:38.809,3081858265,66809,1,0.82959,-0.1355,0.65869,-0.603,2.313,-0.832
2026-06-11 17:18:38.809,3081858265,66809,2,1.06177,-0.1106,0.14478,,2.794,-0.771
2026-06-11 17:18:38.009,3081857465,67009,1,0.85938,-0.1189,0.65161,4.634,-0.557,4.313
2026-06-11 17:18:38.009,3081857465,67009,2,1.05493,-0.10938,0.14331,0.641,-0.031,2.527
2026-06-11 17:18:38.209,3081857665,67209,1,0.84473,-0.1438,0.65845,-0.878,3.015,-3.58
2026-06-11 17:18:38.209,3081857665,67209,2,1.05786,-0.12183,0.17261,1.053,1.26,-0.901
2026-06-11 17:18:39.455,3081858911,67455,1,0.85132,-0.1001,0.64697,0.145,3.13,-2.847
2026-06-11 17:18:39.455,3081858911,67455,2,1.06104,-0.11914,0.17773,6.641,4.634,2.252
2026-06-11 17:18:39.655,3081859111,67655,1,0.86206,-0.13818,0.6543,1.046,14.092,-1.336
2026-06-11 17:18:39.655,3081859111,67655,2,1.08643,-0.0957,0.21973,19.389,17.824,-14.74
2026-06-11 17:18:39.855,3081859311,67855,1,0.81592,-0.11499,0.58472,15.321,54.374,-9.267
2026-06-11 17:18:39.855,3081859311,67855,2,0.74194,0.01343,0.17969,45.534,75.16,-30.359
2026-06-11 17:18:39.055,3081858511,68055,1,0.33569,-0.02734,0.5752,12.725,55.191,-6.26
2026-06-11 17:18:39.055,3081858511,68055,2,0.698,-0.05615,0.23975,51.901,52.817,-15.58
2026-06-11 17:18:39.255,3081858711,68255,1,0.47681,0.07715,0.93555,4.053,30.71,-4.489
2026-06-11 17:18:39.255,3081858711,68255,2,0.93896,0.16016,0.55273,-8.168,-4.336,1.832
2026-06-11 17:18:40.455,3081859911,68455,1,0.46851,0.02075,1.17041,-16.573,-1.153,-1.931
2026-06-11 17:18:40.455,3081859911,68455,2,1.021,0.19653,0.61426,-6.649,-13.008,16.84
2026-06-11 17:18:40.655,3081860111,68655,1,0.59863,-0.15991,1.09229,-16.687,-39.389,19.855
2026-06-11 17:18:40.655,3081860111,68655,2,1.20337,0.15015,0.61938,-9.122,-27.939,16.061
2026-06-11 17:18:40.855,3081860311,68855,1,0.7605,-0.26733,1.01245,6.168,-18.573,7.168
2026-06-11 17:18:40.855,3081860311,68855,2,1.17627,0.10425,0.48584,4.328,-4.29,-7.237
2026-06-11 17:18:40.055,3081859511,69055,1,0.61011,-0.10327,0.78003,0.779,-0.71,-5.527
2026-06-11 17:18:40.055,3081859511,69055,2,1.0769,0.00757,0.44727,-4.023,-9.954,0.29
2026-06-11 17:18:40.255,3081859711,69255,1,0.66992,-0.12354,0.89038,-4.916,3.137,-3.443
2026-06-11 17:18:40.255,3081859711,69255,2,1.0105,0.01733,0.42041,-3.656,1.58,-2.046
2026-06-11 17:18:41.455,3081860911,69455,1,0.6626,-0.16064,0.81787,-5.626,9.725,-3.046
2026-06-11 17:18:41.455,3081860911,69455,2,1.01709,0.06396,0.41626,5.115,8.198,-8.924
2026-06-11 17:18:41.655,3081861111,69655,1,0.63672,-0.11255,0.87524,0.26,11.359,-0.847
2026-06-11 17:18:41.655,3081861111,69655,2,1.02148,0.08618,0.44873,5.672,1.771,-0.924
2026-06-11 17:18:41.855,3081861311,69855,1,0.74243,-0.18579,0.97339,-0.191,1.137,-2.87
2026-06-11 17:18:41.855,3081861311,69855,2,1.5459,0.15112,0.69531,4.771,-27.84,-14.748
2026-06-11 17:18:41.055,3081860511,70055,1,0.65869,-0.05249,0.7207,14.053,49.504,-3.359
2026-06-11 17:18:41.055,3081860511,70055,2,0.90063,0.24609,0.43701,10.45,43.145,-27.863
2026-06-11 17:18:41.255,3081860711,70255,1,0.42505,-0.0332,1.02856,16.176,82.084,9.008
2026-06-11 17:18:41.255,3081860711,70255,2,0.83472,0.16943,0.7019,-33.603,43.13,1.847
2026-06-11 17:18:42.455,3081861911,70455,1,0.15967,-0.21362,1.21631,-6.328,18.641,-10.0
2026-06-11 17:18:42.455,3081861911,70455,2,0.77881,0.16821,0.81323,-21.313,7.405,-18.748
2026-06-11 17:18:42.655,3081862111,70655,1,0.13794,-0.03857,1.23071,9.809,-10.901,-14.748
2026-06-11 17:18:42.655,3081862111,70655,2,0.74683,0.21045,0.71094,-3.45,-26.519,-4.679
2026-06-11 17:18:42.855,3081862311,70855,1,0.16577,0.06274,0.81909,-4.702,-48.908,-3.221
2026-06-11 17:18:42.855,3081862311,70855,2,0.61304,0.04297,0.46484,-5.916,-67.641,28.84
2026-06-11 17:18:42.055,3081861511,71055,1,0.53516,0.1106,0.61719,-17.214,-68.305,-7.931
2026-06-11 17:18:42.055,3081861511,71055,2,1.05688,-0.15234,0.30957,-90.481,-74.252,27.824
2026-06-11 17:18:42.255,3081861711,71255,1,0.73267,-0.1582,0.70215,-18.489,-19.344,-17.221
2026-06-11 17:18:42.255,3081861711,71255,2,0.97803,-0.03906,0.40601,-11.924,-7.84,-1.672
2026-06-11 17:18:43.455,3081862911,71455,1,0.70239,-0.17969,0.75269,6.885,-1.229,8.58
2026-06-11 17:18:43.455,3081862911,71455,2,1.12573,-0.06177,0.39307,19.878,-18.183,0.382
2026-06-11 17:18:43.655,3081863111,71655,1,0.71338,-0.06543,0.7998,24.305,-14.26,24.939
2026-06-11 17:18:43.655,3081863111,71655,2,1.02393,-0.0105,0.32715,21.679,-12.626,9.702
2026-06-11 17:18:43.855,3081863311,71855,1,0.78662,-0.09619,0.72119,15.107,-6.573,11.16
2026-06-11 17:18:43.855,3081863311,71855,2,1.03589,-0.05078,0.30273,19.16,1.786,-0.832
2026-06-11 17:18:43.055,3081862511,72055,1,0.87329,-0.03125,0.65332,18.504,14.74,8.542
2026-06-11 17:18:43.055,3081862511,72055,2,1.05005,0.02222,0.33008,20.763,48.817,-13.863
2026-06-11 17:18:43.255,3081862711,72255,1,0.67773,-0.00903,0.68188,5.931,50.038,-4.992
2026-06-11 17:18:43.255,3081862711,72255,2,0.77222,0.07471,0.29932,7.374,63.74,-25.458
2026-06-11 17:18:44.470,3081863926,72470,1,0.3125,-0.11157,0.83569,-0.397,32.977,-5.389
2026-06-11 17:18:44.470,3081863926,72470,2,0.73828,0.09326,0.56421,16.992,23.244,-5.756
2026-06-11 17:18:44.670,3081864126,72670,1,0.4248,-0.02222,0.93823,1.947,6.237,-3.191
2026-06-11 17:18:44.670,3081864126,72670,2,0.97021,0.13965,0.5188,-6.496,-17.023,8.664
2026-06-11 17:18:44.874,3081864330,72874,1,0.51611,0.02563,1.05762,-0.092,-17.405,-4.679
2026-06-11 17:18:44.874,3081864330,72874,2,0.97729,0.01025,0.52734,-3.137,-20.962,16.45
2026-06-11 17:18:44.074,3081863530,73074,1,0.729,-0.09424,0.97803,2.267,-45.023,10.16
2026-06-11 17:18:44.074,3081863530,73074,2,1.36206,0.01782,0.49561,5.443,-44.336,13.71
2026-06-11 17:18:44.274,3081863730,73274,1,0.97852,-0.15283,0.94385,3.534,4.26,8.847
2026-06-11 17:18:44.274,3081863730,73274,2,1.03589,-0.0083,0.41064,17.947,12.351,7.611
2026-06-11 17:18:45.474,3081864930,73474,1,0.75269,-0.13623,0.7312,6.947,-6.382,15.168
2026-06-11 17:18:45.474,3081864930,73474,2,1.15576,0.00879,0.36523,4.198,8.359,-12.351
2026-06-11 17:18:45.674,3081865130,73674,1,0.69263,-0.02271,0.77393,5.115,9.855,-6.74
2026-06-11 17:18:45.674,3081865130,73674,2,0.99756,0.04199,0.35767,-8.931,0.855,-10.023
2026-06-11 17:18:45.874,3081865330,73874,1,0.66919,-0.00195,0.83447,-4.672,2.099,-7.176
2026-06-11 17:18:45.874,3081865330,73874,2,0.96973,0.06299,0.40454,-10.405,8.16,-4.038
2026-06-11 17:18:45.074,3081864530,74074,1,0.65601,-0.04199,0.86182,-6.397,5.427,-5.382
2026-06-11 17:18:45.074,3081864530,74074,2,0.98926,0.03711,0.42578,-8.603,4.641,-4.427
2026-06-11 17:18:45.274,3081864730,74274,1,0.66357,-0.0415,0.8479,1.55,3.847,4.427
2026-06-11 17:18:45.274,3081864730,74274,2,0.9917,0.0188,0.37988,1.115,3.023,6.305
2026-06-11 17:18:46.474,3081865930,74474,1,0.89697,-0.19678,0.86157,-6.534,17.046,-9.664
2026-06-11 17:18:46.474,3081865930,74474,2,1.17114,0.11768,0.61401,26.137,81.061,-33.71
2026-06-11 17:18:46.674,3081866130,74674,1,0.53833,-0.02344,0.99683,21.145,38.206,2.557
2026-06-11 17:18:46.674,3081866130,74674,2,0.88306,0.20093,0.56885,11.794,5.573,-17.557
2026-06-11 17:18:46.003,3081865459,75003,1,0.56738,-0.07593,0.98608,5.679,-13.595,-5.145
2026-06-11 17:18:46.003,3081865459,75003,2,0.92041,0.18433,0.51709,10.847,-19.84,18.282
2026-06-11 17:18:46.203,3081865659,75203,1,0.55029,0.04175,0.86426,-0.359,4.58,-2.328
2026-06-11 17:18:46.203,3081865659,75203,2,0.77588,0.08862,0.40186,-16.817,-40.519,18.611
2026-06-11 17:18:47.403,3081866859,75403,1,0.38916,-0.00073,0.54419,-21.061,-45.771,-5.649
2026-06-11 17:18:47.403,3081866859,75403,2,0.90405,-0.10205,0.23438,-34.061,-61.229,37.435
2026-06-11 17:18:47.603,3081867059,75603,1,0.80127,-0.13281,0.59448,-8.176,-41.015,15.053
2026-06-11 17:18:47.603,3081867059,75603,2,1.03882,-0.0874,0.13745,9.618,-47.321,21.45
2026-06-11 17:18:47.803,3081867259,75803,1,0.92554,-0.13696,0.56152,16.725,-16.221,26.405
2026-06-11 17:18:47.803,3081867259,75803,2,1.07788,-0.11597,0.01099,-1.397,-7.443,-13.885
2026-06-11 17:18:47.003,3081866459,76003,1,0.90308,-0.12695,0.59131,-3.489,3.786,-5.397
2026-06-11 17:18:47.003,3081866459,76003,2,1.03174,-0.15503,0.11694,-15.473,8.511,1.145
2026-06-11 17:18:47.203,3081866659,76203,1,0.86621,-0.14233,0.60376,-6.313,8.328,-0.511
2026-06-11 17:18:47.203,3081866659,76203,2,1.04175,-0.13086,0.12549,-6.687,8.588,-2.229
2026-06-11 17:18:48.403,3081867859,76403,1,0.84595,-0.13843,0.62695,-7.931,6.84,-4.115
2026-06-11 17:18:48.403,3081867859,76403,2,1.06128,-0.15479,0.11108,-8.885,6.214,-0.534
2026-06-11 17:18:48.603,3081868059,76603,1,0.85669,-0.15967,0.62622,-2.008,4.947,-0.237
2026-06-11 17:18:48.603,3081868059,76603,2,1.05054,-0.16162,0.12207,0.931,1.786,-0.718
2026-06-11 17:18:48.803,3081868259,76803,1,0.8501,-0.15381,0.63647,1.702,3.046,3.58
2026-06-11 17:18:48.803,3081868259,76803,2,1.04688,-0.15918,0.14526,2.588,0.366,0.473
2026-06-11 17:18:48.003,3081867459,77003,1,0.8252,-0.15137,0.64722,1.931,-1.718,0.939
2026-06-11 17:18:48.003,3081867459,77003,2,1.03394,-0.15723,0.146,0.725,-4.618,0.053
2026-06-11 17:18:48.203,3081867659,77203,1,0.90186,-0.14185,0.58594,5.038,0.603,2.626
2026-06-11 17:18:48.203,3081867659,77203,2,1.07202,-0.15112,0.1106,10.374,7.031,-4.969
2026-06-11 17:18:49.403,3081868859,77403,1,0.90015,-0.15405,0.604,10.076,24.763,0.901
2026-06-11 17:18:49.403,3081868859,77403,2,1.07935,-0.11108,0.18701,26.008,44.527,-21.168
2026-06-11 17:18:49.603,3081869059,77603,1,0.81299,-0.13159,0.62061,17.084,64.863,-5.092
2026-06-11 17:18:49.603,3081869059,77603,2,1.05078,-0.02466,0.36475,20.198,61.061,-30.183
2026-06-11 17:18:49.803,3081869259,77803,1,0.47339,-0.00195,0.69482,29.137,127.534,-2.252
2026-06-11 17:18:49.803,3081869259,77803,2,0.80518,0.13647,0.63818,9.916,103.908,-49.771
2026-06-11 17:18:49.003,3081868459,78003,1,-0.01953,0.13501,1.03809,23.183,120.099,9.466
2026-06-11 17:18:49.003,3081868459,78003,2,0.66772,0.3147,0.75854,13.771,91.977,-37.252
2026-06-11 17:18:49.203,3081868659,78203,1,-0.40356,0.11743,1.11401,14.298,61.382,16.13
2026-06-11 17:18:49.203,3081868659,78203,2,0.41235,0.37378,1.00195,15.366,54.794,-19.87
2026-06-11 17:18:50.403,3081869859,78403,1,-0.4104,0.14526,1.08325,3.969,20.038,2.344
2026-06-11 17:18:50.403,3081869859,78403,2,0.31592,0.39722,0.9873,-3.954,15.359,-3.809
2026-06-11 17:18:50.603,3081870059,78603,1,-0.39331,0.1001,0.94409,-4.55,7.244,1.107
2026-06-11 17:18:50.603,3081870059,78603,2,0.25586,0.37207,1.00537,3.878,10.756,-11.603
2026-06-11 17:18:50.803,3081870259,78803,1,-0.43286,0.16357,0.99634,13.489,-7.397,6.275
2026-06-11 17:18:50.803,3081870259,78803,2,0.17529,0.43921,1.02026,3.16,-6.649,-3.802
2026-06-11 17:18:50.003,3081869459,79003,1,-0.34155,0.1709,0.92993,-4.794,-11.229,-3.802
2026-06-11 17:18:50.003,3081869459,79003,2,0.29541,0.42627,0.99243,-6.145,-11.321,8.374
2026-06-11 17:18:50.208,3081869664,79208,1,-0.41675,0.14038,1.12354,-8.107,-17.824,-2.71
2026-06-11 17:18:50.208,3081869664,79208,2,0.36475,0.38623,1.00024,-8.069,-40.13,18.901
2026-06-11 17:18:51.408,3081870864,79408,1,-0.24927,0.06738,1.1084,-20.176,-69.595,-2.107
2026-06-11 17:18:51.408,3081870864,79408,2,0.57056,0.27612,0.85522,-12.008,-81.496,29.916
2026-06-11 17:18:51.608,3081871064,79608,1,0.11108,-0.00562,0.89014,-22.489,-94.405,-5.802
2026-06-11 17:18:51.608,3081871064,79608,2,0.87207,0.12671,0.64722,-12.168,-69.87,-0.015
2026-06-11 17:18:51.809,3081871265,79809,1,0.37451,-0.06738,1.06836,4.008,-60.58,-4.832
2026-06-11 17:18:51.809,3081871265,79809,2,0.91992,0.11963,0.53125,-2.954,-47.145,16.687
2026-06-11 17:18:51.009,3081870465,80009,1,0.6167,0.00122,0.76001,-3.435,-78.305,8.511
2026-06-11 17:18:51.009,3081870465,80009,2,1.00586,0.02637,0.29688,24.153,-15.786,30.802
2026-06-11 17:18:51.209,3081870665,80209,1,0.77295,-0.04663,0.70166,-16.389,-21.695,-7.763
2026-06-11 17:18:51.209,3081870665,80209,2,1.03687,-0.0625,0.21191,-23.328,-15.557,9.328
2026-06-11 17:18:52.409,3081871865,80409,1,0.81958,-0.08667,0.70166,-21.466,0.649,-20.023
2026-06-11 17:18:52.409,3081871865,80409,2,1.08423,-0.04834,0.25391,1.374,7.336,-4.466
2026-06-11 17:18:52.609,3081872065,80609,1,0.82813,-0.11694,0.70898,1.534,14.733,-1.26
2026-06-11 17:18:52.609,3081872065,80609,2,1.0791,-0.02637,0.36914,13.344,31.389,-9.26
2026-06-11 17:18:52.809,3081872265,80809,1,0.55444,0.07324,0.65063,35.496,54.069,20.656
2026-06-11 17:18:52.809,3081872265,80809,2,0.70483,0.2644,0.13354,52.443,22.473,8.214
2026-06-11 17:18:52.009,3081871465,81009,1,0.47754,-0.14893,0.86035,-12.397,13.038,-9.87
2026-06-11 17:18:52.009,3081871465,81009,2,0.86206,0.34106,0.39966,107.962,52.298,5.061
2026-06-11 17:18:52.209,3081871665,81209,1,0.48193,-0.05859,0.89575,-3.733,5.344,-7.924
2026-06-11 17:18:52.209,3081871665,81209,2,0.98218,0.09863,0.56616,14.29,-3.374,-0.328
2026-06-11 17:18:53.409,3081872865,81409,1,0.54688,-0.03174,0.99561,-9.702,-23.702,-4.267
2026-06-11 17:18:53.409,3081872865,81409,2,1.03516,-0.01733,0.38892,-20.191,-34.466,12.847
2026-06-11 17:18:53.609,3081873065,81609,1,0.69873,-0.06738,0.92773,-6.84,-55.191,4.229
2026-06-11 17:18:53.609,3081873065,81609,2,1.26489,-0.03491,0.38623,-3.565,-47.061,14.924
2026-06-11 17:18:53.857,3081873313,81857,1,1.08887,-0.1311,0.74219,-7.26,12.733,-1.443
2026-06-11 17:18:53.857,3081873313,81857,2,1.08765,-0.07983,0.22852,10.0,27.214,-10.87
2026-06-11 17:18:53.057,3081872513,82057,1,0.77002,-0.08813,0.76807,7.099,28.786,-2.947
2026-06-11 17:18:53.057,3081872513,82057,2,1.06787,-0.01196,0.34473,-0.847,21.878,-10.069
2026-06-11 17:18:53.257,3081872713,82257,1,0.69019,-0.11328,0.77124,8.466,28.855,-1.489
2026-06-11 17:18:53.257,3081872713,82257,2,1.01953,0.05371,0.45117,-21.092,8.313,-27.863
2026-06-11 17:18:54.457,3081873913,82457,1,0.5813,-0.01489,0.85718,26.122,16.244,8.756
2026-06-11 17:18:54.457,3081873913,82457,2,0.94482,0.06152,0.48755,28.985,4.153,-7.992
2026-06-11 17:18:54.657,3081874113,82657,1,0.54126,-0.02393,0.93359,4.115,5.313,4.198
2026-06-11 17:18:54.657,3081874113,82657,2,0.90405,0.08545,0.5144,-1.046,-6.534,-7.092
2026-06-11 17:18:54.857,3081874313,82857,1,0.62085,0.00049,0.94702,13.328,-7.0,1.618
2026-06-11 17:18:54.857,3081874313,82857,2,0.98145,0.10107,0.49341,22.359,-19.26,7.618
2026-06-11 17:18:54.057,3081873513,83057,1,0.63232,0.00269,0.80396,-9.298,-6.443,-9.55
2026-06-11 17:18:54.057,3081873513,83057,2,0.97827,0.0813,0.49487,-7.817,-2.321,8.374
2026-06-11 17:18:54.257,3081873713,83257,1,0.55054,0.01758,0.89917,25.702,34.038,39.786
2026-06-11 17:18:54.257,3081873713,83257,2,0.85303,0.21729,0.57642,45.649,42.015,22.481
2026-06-11 17:18:55.457,3081874913,83457,1,0.34961,-0.09814,0.93481,-11.053,33.435,48.511
2026-06-11 17:18:55.457,3081874913,83457,2,0.73218,0.05981,0.36694,55.664,-30.817,24.962
2026-06-11 17:18:55.657,3081875113,83657,1,0.29102,0.17725,1.10986,3.489,-40.969,50.252
2026-06-11 17:18:55.657,3081875113,83657,2,1.99994,0.22876,0.85522,90.626,-138.885,63.908
2026-06-11 17:18:55.857,3081875313,83857,1,0.74634,-0.13525,0.48853,-5.649,-92.366,76.847
2026-06-11 17:18:55.857,3081875313,83857,2,1.38013,0.06152,-0.00488,113.359,-59.328,23.992
2026-06-11 17:18:55.057,3081874513,84057,1,0.96265,-0.53125,0.16528,-53.031,7.84,-10.206
2026-06-11 17:18:55.057,3081874513,84057,2,1.20142,0.35303,-0.32129,-5.908,8.053,-13.198
2026-06-11 17:18:55.257,3081874713,84257,1,0.96143,-0.23291,0.38452,6.87,-14.611,5.84
2026-06-11 17:18:55.257,3081874713,84257,2,1.05835,-0.04297,-0.42188,80.244,-10.031,33.916
2026-06-11 17:18:56.457,3081875913,84457,1,0.98901,-0.29395,0.33936,-12.046,18.466,-8.275
2026-06-11 17:18:56.457,3081875913,84457,2,1.11157,-0.2478,-0.03931,-23.412,13.847,-0.802
2026-06-11 17:18:56.657,3081876113,84657,1,0.84741,-0.21338,0.48462,30.435,31.374,31.817
2026-06-11 17:18:56.657,3081876113,84657,2,1.00537,-0.14502,-0.18262,2.13,10.603,6.992
2026-06-11 17:18:56.857,3081876313,84857,1,0.8667,-0.35596,0.47461,13.061,23.168,29.458
2026-06-11 17:18:56.857,3081876313,84857,2,1.05371,-0.25171,0.05981,26.16,33.275,0.374
2026-06-11 17:18:56.057,3081875513,85057,1,0.77173,-0.41943,0.56885,89.634,19.573,41.076
2026-06-11 17:18:56.057,3081875513,85057,2,0.99414,-0.21338,0.23291,54.458,26.588,4.809
2026-06-11 17:18:56.257,3081875713,85257,1,0.89453,-0.15088,1.06909,121.656,-2.794,40.588
2026-06-11 17:18:56.257,3081875713,85257,2,0.97852,-0.18481,0.34814,-11.168,-0.565,32.802
2026-06-11 17:18:57.457,3081876913,85457,1,0.64526,-0.2146,0.90381,-19.695,22.908,-6.298
2026-06-11 17:18:57.457,3081876913,85457,2,1.03125,-0.27612,0.42432,47.168,11.611,-10.076
2026-06-11 17:18:57.657,3081877113,85657,1,0.63672,-0.2085,0.81763,26.634,0.183,21.763
2026-06-11 17:18:57.657,3081877113,85657,2,0.98218,-0.13403,0.38867,8.947,-1.679,-2.405
2026-06-11 17:18:57.857,3081877313,85857,1,0.55811,-0.19263,0.88501,-4.786,8.695,-5.664
2026-06-11 17:18:57.857,3081877313,85857,2,0.98096,-0.1416,0.44775,0.916,10.748,-14.611
2026-06-11 17:18:57.057,3081876513,86057,1,0.58179,-0.21899,0.85571,-6.725,-0.672,-4.832
2026-06-11 17:18:57.057,3081876513,86057,2,1.02173,-0.13721,0.40991,6.473,-8.336,-18.824
2026-06-11 17:18:57.257,3081876713,86257,1,0.64355,-0.16479,0.84814,20.733,-12.527,13.489
2026-06-11 17:18:57.257,3081876713,86257,2,1.02124,0.01929,0.37671,19.412,-6.74,-17.687
2026-06-11 17:18:58.457,3081877913,86457,1,0.69702,-0.12329,0.81421,16.275,-9.832,-2.725
2026-06-11 17:18:58.457,3081877913,86457,2,1.03687,0.12378,0.29834,12.366,-0.58,-8.878
2026-06-11 17:18:58.657,3081878113,86657,1,0.94922,0.00317,0.78638,3.053,-13.244,-18.252
2026-06-11 17:18:58.657,3081878113,86657,2,1.11987,0.073,0.22559,6.252,30.588,10.061
2026-06-11 17:18:58.857,3081878313,86857,1,0.6189,-0.12183,0.83228,-2.183,16.397,-6.832
2026-06-11 17:18:58.857,3081878313,86857,2,1.02515,-0.01294,0.38989,9.168,8.214,-2.489
2026-06-11 17:18:58.057,3081877513,87057,1,0.59424,-0.08936,0.90381,2.679,2.771,1.641
2026-06-11 17:18:58.057,3081877513,87057,2,1.01587,0.07104,0.3606,-1.87,-4.031,-2.29
2026-06-11 17:18:58.257,3081877713,87257,1,0.65771,-0.06934,0.84546,2.382,-5.42,-8.198
2026-06-11 17:18:58.257,3081877713,87257,2,1.03223,0.04248,0.35229,-1.16,-4.0,-0.58
2026-06-11 17:18:59.457,3081878913,87457,1,0.68311,-0.01831,0.84277,6.794,-1.275,0.641
2026-06-11 17:18:59.457,3081878913,87457,2,1.02051,0.05566,0.34424,0.847,2.321,-1.351
2026-06-11 17:18:59.657,3081879113,87657,1,0.67017,-0.04541,0.84839,4.74,1.427,-0.855
2026-06-11 17:18:59.657,3081879113,87657,2,1.02051,0.0625,0.33643,-0.351,0.298,0.107
2026-06-11 17:18:59.857,3081879313,87857,1,0.67969,-0.0127,0.84546,-2.405,3.473,-2.786
2026-06-11 17:18:59.857,3081879313,87857,2,1.02271,0.05127,0.35938,-1.168,3.115,1.473
2026-06-11 17:18:59.057,3081878513,88057,1,0.67358,-0.04541,0.823,-7.603,2.756,-4.71
2026-06-11 17:18:59.057,3081878513,88057,2,1.03101,0.03003,0.34204,-2.611,-1.153,-1.069
2026-06-11 17:18:59.257,3081878713,88257,1,0.69775,-0.04175,0.84595,-16.031,-1.74,-3.122
2026-06-11 17:18:59.257,3081878713,88257,2,1.02295,0.03589,0.33447,-0.221,-0.008,-0.031
2026-06-11 17:19:00.457,3081879913,88457,1,0.68408,-0.05908,0.82666,-27.718,9.71,6.176
2026-06-11 17:19:00.457,3081879913,88457,2,1.03052,0.04053,0.33984,-0.527,0.901,3.0
2026-06-11 17:19:00.657,3081880113,88657,1,0.65479,-0.1438,0.83423,4.221,1.481,-0.008
2026-06-11 17:19:00.657,3081880113,88657,2,1.03589,0.01978,0.32129,2.031,-1.672,2.756
2026-06-11 17:19:00.857,3081880313,88857,1,0.68066,-0.13208,0.83081,-0.046,-1.649,3.13
2026-06-11 17:19:00.857,3081880313,88857,2,1.0459,0.01172,0.33081,0.427,-1.802,1.809
2026-06-11 17:19:00.057,3081879513,89057,1,0.68335,-0.13379,0.83252,-5.061,0.031,2.443
2026-06-11 17:19:00.057,3081879513,89057,2,1.03857,-0.00098,0.30542,-2.573,-2.74,3.939
2026-06-11 17:19:00.257,3081879713,89257,1,0.7019,-0.14795,0.80493,-4.817,-3.389,2.901
2026-06-11 17:19:00.257,3081879713,89257,2,1.04443,,0.28711,-0.939,-4.366,4.443
2026-06-11 17:19:01.457,3081880913,89457,1,0.71216,-0.18286,0.79663,-3.366,-4.351,-0.435
2026-06-11 17:19:01.457,3081880913,89457,2,1.04199,-0.03027,0.26538,0.924,-8.504,4.58
2026-06-11 17:19:01.657,3081881113,89657,1,0.71997,-0.15552,0.76929,0.786,-7.832,0.901
2026-06-11 17:19:01.657,3081881113,89657,2,1.04297,-0.01245,0.24365,-6.252,-13.16,10.626
2026-06-11 17:19:01.857,3081881313,89857,1,0.79785,-0.18384,0.70068,-8.885,-10.527,9.595
2026-06-11 17:19:01.857,3081881313,89857,2,1.06689,-0.09058,0.15039,-5.115,-6.168,17.099
2026-06-11 17:19:01.057,3081880513,90057,1,0.77246,-0.27393,0.69238,6.29,3.427,15.557
2026-06-11 17:19:01.057,3081880513,90057,2,1.03491,-0.16333,0.19482,24.183,6.527,8.351
2026-06-11 17:19:01.257,3081880713,90257,1,0.73047,-0.25049,0.76392,9.618,3.718,2.511
2026-06-11 17:19:01.257,3081880713,90257,2,1.02295,-0.24438,0.16504,10.168,1.885,16.573
2026-06-11 17:19:02.457,3081881913,90457,1,0.74023,-0.23438,0.677,-1.435,-0.198,6.321
2026-06-11 17:19:02.457,3081881913,90457,2,1.06909,-0.3335,0.14185,9.947,-2.26,15.55
2026-06-11 17:19:02.657,3081882113,90657,1,0.73901,-0.35181,0.70313,0.305,2.29,16.985
2026-06-11 17:19:02.657,3081882113,90657,2,0.99951,-0.31738,0.23218,37.137,-12.328,1.214
2026-06-11 17:19:02.857,3081882313,90857,1,0.62671,-0.37231,0.75879,-21.702,6.412,16.634
2026-06-11 17:19:02.857,3081882313,90857,2,0.99756,-0.27417,0.28247,16.779,8.55,-17.496
2026-06-11 17:19:02.057,3081881513,91057,1,0.71216,-0.57397,0.67065,-14.649,-3.969,-9.26
2026-06-11 17:19:02.057,3081881513,91057,2,1.19238,-0.18359,0.14526,51.916,20.214,-37.397
2026-06-11 17:19:02.257,3081881713,91257,1,0.89966,-0.13159,0.63745,62.702,-11.626,2.206
2026-06-11 17:19:02.257,3081881713,91257,2,1.07739,0.07349,0.19507,-8.84,31.916,-34.13
2026-06-11 17:19:03.457,3081882913,91457,1,0.61963,-0.06958,0.85376,16.565,38.748,-28.786
2026-06-11 17:19:03.457,3081882913,91457,2,1.05518,0.01392,0.29883,-4.969,24.847,-8.557
2026-06-11 17:19:03.657,3081883113,91657,1,0.61426,-0.11157,0.86987,-37.0,13.985,-24.298
2026-06-11 17:19:03.657,3081883113,91657,2,0.97363,-0.00537,0.38086,-14.87,-5.824,12.405
2026-06-11 17:19:03.857,3081883313,91857,1,0.62988,-0.06543,0.89722,27.015,-0.298,9.748
2026-06-11 17:19:03.857,3081883313,91857,2,1.02344,-0.02246,0.36816,23.603,12.42,-11.389
2026-06-11 17:19:03.066,3081882522,92066,1,0.64233,-0.09399,0.84424,29.405,4.55,31.733
2026-06-11 17:19:03.066,3081882522,92066,2,1.04907,0.05811,0.32397,38.992,-0.969,-13.344
2026-06-11 17:19:03.266,3081882722,92266,1,0.63574,-0.02734,0.87988,14.221,-0.557,7.679
2026-06-11 17:19:03.266,3081882722,92266,2,1.01758,0.06152,0.35669,3.489,0.229,3.244
2026-06-11 17:19:04.466,3081883922,92466,1,0.64429,-0.07056,0.86523,-6.702,1.573,0.695
2026-06-11 17:19:04.466,3081883922,92466,2,1.02637,0.05469,0.34888,-0.695,1.313,2.901
2026-06-11 17:19:04.666,3081884122,92666,1,0.63599,-0.09155,0.85938,-13.046,8.466,-10.137
2026-06-11 17:19:04.666,3081884122,92666,2,1.02344,0.02148,0.36621,-10.145,5.176,-2.756
2026-06-11 17:19:04.866,3081884322,92866,1,0.61963,-0.09692,0.86597,5.473,5.221,-2.977
2026-06-11 17:19:04.866,3081884322,92866,2,1.01025,0.03516,0.36353,0.947,3.359,-4.099
2026-06-11 17:19:04.066,3081883522,93066,1,0.59473,-0.06299,0.89355,-15.496,9.29,-13.176
2026-06-11 17:19:04.066,3081883522,93066,2,0.99854,0.04272,0.37866,-1.588,-0.733,1.145
2026-06-11 17:19:04.266,3081883722,93266,1,0.63208,-0.03418,0.87305,-15.695,2.45,-6.511
2026-06-11 17:19:04.266,3081883722,93266,2,1.03345,0.0293,0.35498,-10.481,-2.008,7.473
2026-06-11 17:19:05.466,3081884922,93466,1,0.6228,-0.13135,0.87231,-3.183,0.55,0.847
2026-06-11 17:19:05.466,3081884922,93466,2,1.0249,0.00098,0.37427,-0.206,-2.863,-1.298
2026-06-11 17:19:05.666,3081885122,93666,1,0.62842,-0.11841,0.89111,-5.832,-0.977,-4.046
2026-06-11 17:19:05.666,3081885122,93666,2,1.03101,0.02075,0.35303,-0.008,-0.74,0.198
2026-06-11 17:19:05.866,3081885322,93866,1,0.62646,-0.13721,0.86108,-2.542,0.496,-0.71
2026-06-11 17:19:05.866,3081885322,93866,2,1.02197,0.00293,0.35864,-2.748,-1.58,1.13
2026-06-11 17:19:05.066,3081884522,94066,1,0.64819,-0.12988,0.85107,-1.015,0.84,2.84
2026-06-11 17:19:05.066,3081884522,94066,2,1.0332,0.00757,0.34302,-1.244,-0.656,-0.725
2026-06-11 17:19:05.266,3081884722,94266,1,0.65234,-0.15381,0.83887,0.313,2.527,0.756
2026-06-11 17:19:05.266,3081884722,94266,2,1.03125,0.01416,0.34912,0.847,2.824,-0.412
2026-06-11 17:19:06.466,3081885922,94466,1,0.63672,-0.15869,0.8606,3.397,4.939,-0.779
2026-06-11 17:19:06.466,3081885922,94466,2,1.0271,0.00439,0.34863,1.832,2.847,-1.153
2026-06-11 17:19:06.666,3081886122,94666,1,0.62817,-0.13208,0.86792,1.336,4.435,0.595
2026-06-11 17:19:06.666,3081886122,94666,2,1.03027,0.0166,0.34546,1.718,2.885,-0.443
2026-06-11 17:19:06.866,3081886322,94866,1,0.60815,-0.13257,0.88525,6.443,2.397,2.916
2026-06-11 17:19:06.866,3081886322,94866,2,1.01221,0.01636,0.37329,6.42,1.443,0.084
2026-06-11 17:19:06.066,3081885522,95066,1,0.69849,-0.11279,0.79102,0.115,6.374,1.725
2026-06-11 17:19:06.066,3081885522,95066,2,1.09839,-0.00781,0.28809,1.122,11.16,-3.16
2026-06-11 17:19:06.266,3081885722,95266,1,0.60132,-0.10303,0.87085,6.16,2.244,3.557
2026-06-11 17:19:06.266,3081885722,95266,2,1.00952,0.04663,0.40552,2.641,5.763,-5.198
2026-06-11 17:19:07.483,3081886939,95483,1,0.5835,-0.06958,0.90698,3.71,1.038,3.832
2026-06-11 17:19:07.483,3081886939,95483,2,1.01465,0.04785,0.39136,-0.733,-0.626,1.634
2026-06-11 17:19:07.683,3081887139,95683,1,0.62402,-0.11108,0.88062,-9.427,1.267,-0.985
2026-06-11 17:19:07.683,3081887139,95683,2,1.04077,0.02661,0.35986,-0.847,-0.931,2.725
2026-06-11 17:19:07.981,3081887437,95981,1,0.62817,-0.13452,0.87305,-0.237,1.397,2.634
2026-06-11 17:19:07.981,3081887437,95981,2,1.021,0.02417,0.36597,1.313,1.305,-0.481
2026-06-11 17:19:07.181,3081886637,96181,1,0.61401,-0.13794,0.875,1.504,-0.634,1.366
2026-06-11 17:19:07.181,3081886637,96181,2,1.02075,0.01587,0.36108,-0.412,-0.298,-1.779
2026-06-11 17:19:08.381,3081887837,96381,1,0.63354,-0.12036,0.86133,-4.878,-2.458,1.74
2026-06-11 17:19:08.381,3081887837,96381,2,1.03857,0.02197,0.35278,-0.374,-0.985,1.611
2026-06-11 17:19:08.581,3081888037,96581,1,0.60742,-0.16138,0.85449,1.763,0.183,17.282
2026-06-11 17:19:08.581,3081888037,96581,2,1.02417,0.03711,0.35913,17.473,-2.565,5.053
2026-06-11 17:19:08.781,3081888237,96781,1,0.64453,-0.20044,0.81055,-14.656,4.168,6.359
2026-06-11 17:19:08.781,3081888237,96781,2,1.04443,-0.02344,0.33545,-7.26,0.031,10.664
2026-06-11 17:19:08.981,3081888437,96981,1,0.62646,-0.27271,0.83667,-6.679,4.321,9.687
2026-06-11 17:19:08.981,3081888437,96981,2,1.02808,-0.0498,0.34375,-0.038,1.695,5.58
2026-06-11 17:19:08.181,3081887637,97181,1,0.61255,-0.28906,0.82397,-16.382,2.573,7.405
2026-06-11 17:19:08.181,3081887637,97181,2,1.04102,-0.08862,0.35327,-2.168,2.779,7.275
2026-06-11 17:19:09.381,3081888837,97381,1,0.58813,-0.35034,0.82373,1.405,0.824,13.412
2026-06-11 17:19:09.381,3081888837,97381,2,1.02612,-0.10449,0.3457,3.397,-2.702,7.015
2026-06-11 17:19:09.581,3081889037,97581,1,0.5769,-0.34619,0.80542,-15.969,2.786,8.847
2026-06-11 17:19:09.581,3081889037,97581,2,1.03638,-0.1272,0.33789,-4.069,-2.061,15.656
2026-06-11 17:19:09.781,3081889237,97781,1,0.6084,-0.44385,0.74219,-14.344,-0.992,-6.458
2026-06-11 17:19:09.781,3081889237,97781,2,1.02466,-0.21094,0.32739,-9.481,0.519,13.885
2026-06-11 17:19:09.981,3081889437,97981,1,0.58716,-0.4751,0.71069,-20.275,-9.611,-13.305
2026-06-11 17:19:09.981,3081889437,97981,2,0.98584,-0.23218,0.38574,8.13,14.878,4.336
2026-06-11 17:19:09.181,3081888637,98181,1,0.60669,-0.44995,0.76074,0.977,10.031,-2.473
2026-06-11 17:19:09.181,3081888637,98181,2,0.98413,-0.25122,0.34863,-1.565,-1.504,-1.191
2026-06-11 17:19:10.381,3081889837,98381,1,0.59546,-0.427,0.76318,-1.328,3.588,-1.954
2026-06-11 17:19:10.381,3081889837,98381,2,1.00024,-0.2312,0.35425,-1.817,3.885,0.344
2026-06-11 17:19:10.621,3081890077,98621,1,0.60229,-0.43457,0.76123,8.359,-0.214,-0.092
2026-06-11 17:19:10.621,3081890077,98621,2,1.01538,-0.25317,0.32104,-6.313,1.282,-1.13
2026-06-11 17:19:10.902,3081890358,98902,1,0.61133,-0.42896,0.75,-2.481,-0.985,0.947
2026-06-11 17:19:10.902,3081890358,98902,2,1.00464,-0.24707,0.33154,-6.992,2.008,-0.649
2026-06-11 17:19:10.102,3081889558,99102,1,0.61523,-0.40405,0.7356,-5.573,-12.519,-8.565
2026-06-11 17:19:10.102,3081889558,99102,2,0.9729,-0.25122,0.36865,18.053,11.855,6.313
2026-06-11 17:19:10.302,3081889758,99302,1,0.62427,-0.45703,0.74268,-4.733,9.809,-3.206
2026-06-11 17:19:10.302,3081889758,99302,2,0.99707,-0.28003,0.30933,-6.015,-6.481,0.481
2026-06-11 17:19:11.502,3081890958,99502,1,0.61279,-0.42993,0.74878,-1.71,5.13,-3.29
2026-06-11 17:19:11.502,3081890958,99502,2,0.99854,-0.27197,0.33203,-4.992,-13.458,-1.427
2026-06-11 17:19:11.702,3081891158,99702,1,0.62939,-0.40063,0.75073,-3.29,-8.076,-0.489
2026-06-11 17:19:11.702,3081891158,99702,2,0.98877,-0.26636,0.30981,30.191,-10.115,10.511
2026-06-11 17:19:11.902,3081891358,99902,1,0.62402,-0.44946,0.75073,-12.595,17.015,-9.069
2026-06-11 17:19:11.902,3081891358,99902,2,0.99097,-0.31934,0.34302,1.511,6.206,4.824
2026-06-11 17:19:11.102,3081890558,100102,1,0.59595,-0.45044,0.74512,5.351,-9.038,-2.13
2026-06-11 17:19:11.102,3081890558,100102,2,0.97778,-0.31128,0.3208,-3.733,0.046,-0.389
2026-06-11 17:19:11.302,3081890758,100302,1,0.64258,-0.44043,0.73413,0.901,-0.779,-6.046
2026-06-11 17:19:11.302,3081890758,100302,2,0.99487,-0.29907,0.31519,-4.924,4.084,-2.809
