datetime,epoch_ms,ts_millis,mpu_id,ax,ay,az,gx,gy,gz
2026-06-11T16:28:34.663850,,,,,,,,,
2026-06-11T16:29:53.581971,,,,,,,,,
2026-06-11 16:29:53.504,3078932960,5504,1,0.89648,0.06763,0.61206,-9.282,-7.443,-39.618
2026-06-11 16:29:53.504,3078932960,5504,2,0.98291,-0.22852,-0.12866,6.786,-1.939,5.84
2026-06-11 16:29:54.704,3078934160,5704,1,0.89697,0.14795,0.59375,1.557,2.573,-12.023
2026-06-11 16:29:54.704,3078934160,5704,2,1.0105,-0.06445,-0.19189,-15.0,0.351,-14.672
2026-06-11 16:29:54.213,3078933669,6213,1,0.85034,0.24194,0.59131,-21.405,3.489,-13.824
2026-06-11 16:29:54.213,3078933669,6213,2,0.98315,-0.08813,-0.19287,-9.977,2.733,7.321
2026-06-11 16:29:54.471,3078933927,6471,1,0.80713,0.24023,0.60986,-9.16,-1.527,6.55
2026-06-11 16:29:54.471,3078933927,6471,2,1.09839,-0.10791,-0.16382,-33.527,-22.992,9.573
2026-06-11 16:29:55.671,3078935127,6671,1,0.79443,0.13818,0.6167,4.252,12.534,11.336
2026-06-11 16:29:55.671,3078935127,6671,2,1.08325,-0.16357,-0.22534,-21.542,14.336,-6.206
2026-06-11 16:29:55.942,3078935398,6942,1,0.87012,0.00708,0.58838,-8.748,2.275,-1.527
2026-06-11 16:29:55.942,3078935398,6942,2,1.01196,-0.2168,-0.06909,3.443,13.649,-8.779
2026-06-11 16:29:55.166,3078934622,7166,1,0.81934,-0.01147,0.64233,9.275,12.71,9.855
2026-06-11 16:29:55.166,3078934622,7166,2,1.11621,-0.2688,-0.1106,32.489,-21.656,-4.366
2026-06-11 16:29:55.440,3078934896,7440,1,0.82373,0.12256,0.72241,20.504,11.298,-0.718
2026-06-11 16:29:55.440,3078934896,7440,2,1.00952,0.00488,0.02881,-11.634,-6.298,-5.496
2026-06-11 16:29:56.640,3078936096,7640,1,0.73926,0.15942,0.75513,6.046,0.763,-3.29
2026-06-11 16:29:56.640,3078936096,7640,2,1.09058,0.01294,-0.00952,2.481,12.718,-6.0
2026-06-11 16:29:56.840,3078936296,7840,1,0.78418,0.23877,0.65723,-21.832,-11.893,-16.573
2026-06-11 16:29:56.840,3078936296,7840,2,1.08521,0.01685,-0.09888,-57.954,4.916,18.511
2026-06-11 16:29:56.040,3078935496,8040,1,0.86694,0.177,0.63354,-48.26,-15.962,-25.221
2026-06-11 16:29:56.040,3078935496,8040,2,1.00806,-0.0437,-0.17798,-22.969,-9.504,11.031
2026-06-11 16:29:56.260,3078935716,8260,1,0.90137,0.13525,0.64233,-42.626,-8.55,-23.969
2026-06-11 16:29:56.260,3078935716,8260,2,1.073,-0.12183,-0.05078,-36.336,27.466,14.511
2026-06-11 16:29:56.460,3078935916,8460,1,0.86255,0.04419,0.62305,-49.939,26.214,-19.099
2026-06-11 16:29:56.460,3078935916,8460,2,1.07031,-0.15356,-0.0481,-10.0,43.794,4.489
2026-06-11 16:29:57.660,3078937116,8660,1,0.77979,-0.07739,0.72314,-50.366,12.061,-29.328
2026-06-11 16:29:57.660,3078937116,8660,2,0.99365,-0.28467,0.12646,-44.13,14.137,8.634
2026-06-11 16:29:57.860,3078937316,8860,1,0.78564,-0.13794,0.71899,-4.389,-11.351,-3.924
2026-06-11 16:29:57.860,3078937316,8860,2,1.00879,-0.25708,0.0918,-41.908,-12.397,-1.649
2026-06-11 16:29:57.060,3078936516,9060,1,0.80493,-0.07324,0.66968,11.344,-13.794,-5.206
2026-06-11 16:29:57.060,3078936516,9060,2,1.14868,-0.11768,-0.02661,23.023,-2.977,-11.863
2026-06-11 16:29:57.447,3078936903,9447,1,0.98413,0.28271,0.60913,11.344,1.183,-3.87
2026-06-11 16:29:57.447,3078936903,9447,2,0.90869,-0.02026,-0.24463,36.916,-12.985,4.588
2026-06-11 16:29:58.671,3078938127,9671,1,0.80469,0.32764,0.51904,-16.336,-16.702,-15.481
2026-06-11 16:29:58.671,3078938127,9671,2,0.99878,-0.02856,-0.30176,0.137,-3.252,17.351
2026-06-11 16:29:58.871,3078938327,9871,1,1.03711,0.20239,0.61963,17.863,-5.191,13.695
2026-06-11 16:29:58.871,3078938327,9871,2,1.01318,-0.12671,-0.12793,18.305,6.718,-25.557
2026-06-11 16:29:58.163,3078937619,10162,1,0.8689,0.1333,0.62305,15.405,7.962,5.87
2026-06-11 16:29:58.163,3078937619,10162,2,1.03442,-0.26709,-0.03882,17.794,18.695,15.924
2026-06-11 16:29:58.374,3078937830,10374,1,0.82666,0.0144,0.60083,-20.015,5.802,-2.847
2026-06-11 16:29:58.374,3078937830,10374,2,0.97388,-0.15381,-0.13208,-13.542,11.298,1.893
2026-06-11 16:29:59.574,3078939030,10574,1,0.91016,0.05127,0.63599,-3.198,3.397,-2.351
2026-06-11 16:29:59.574,3078939030,10574,2,0.99292,-0.22217,-0.1228,-16.389,8.893,14.733
2026-06-11 16:29:59.774,3078939230,10774,1,0.95752,0.05469,0.66797,-9.115,-1.794,4.023
2026-06-11 16:29:59.774,3078939230,10774,2,1.06274,-0.13037,-0.00781,9.901,10.794,13.74
2026-06-11 16:29:59.016,3078938472,11016,1,0.83228,0.05835,0.63916,-7.473,0.87,-4.321
2026-06-11 16:29:59.016,3078938472,11016,2,1.0332,-0.09033,-0.02661,9.053,6.214,-1.427
2026-06-11 16:29:59.239,3078938695,11239,1,0.84351,0.26074,0.72876,13.527,7.305,5.924
2026-06-11 16:29:59.239,3078938695,11239,2,1.07617,0.03564,-0.15234,3.924,0.687,-11.885
2026-06-11 16:29:59.439,3078938895,11439,1,0.84741,0.23535,0.67529,-24.069,-24.649,-28.031
2026-06-11 16:29:59.439,3078938895,11439,2,1.06763,-0.14868,-0.08228,-43.443,-5.618,13.573
2026-06-11 16:30:00.689,3078940145,11688,1,0.85938,0.13037,0.60864,-8.359,6.221,-3.55
2026-06-11 16:30:00.689,3078940145,11688,2,1.03857,-0.07324,-0.0835,-14.748,-1.817,-4.817
2026-06-11 16:30:00.932,3078940388,11932,1,0.83887,0.15625,0.60205,-24.855,1.702,-20.42
2026-06-11 16:30:00.932,3078940388,11932,2,1.00098,-0.12158,-0.0542,-13.115,9.015,3.282
2026-06-11 16:30:00.132,3078939588,12132,1,0.9248,0.09546,0.60181,-16.023,-9.573,-17.214
2026-06-11 16:30:00.132,3078939588,12132,2,0.9939,-0.1814,-0.09814,-20.168,2.87,9.412
2026-06-11 16:30:00.332,3078939788,12332,1,0.90356,0.15088,0.573,4.924,8.573,7.634
2026-06-11 16:30:00.332,3078939788,12332,2,1.06226,-0.19385,-0.15063,1.084,10.359,11.267
2026-06-11 16:30:01.575,3078941031,12575,1,0.89722,0.0979,0.5791,-14.962,9.74,0.504
2026-06-11 16:30:01.575,3078941031,12575,2,1.04614,-0.16577,-0.08374,-8.374,17.023,0.893
2026-06-11 16:30:01.783,3078941239,12783,1,0.85767,0.01904,0.62549,-18.435,6.267,-7.58
2026-06-11 16:30:01.783,3078941239,12783,2,1.02026,-0.17798,-0.08618,-7.855,2.58,-4.634
2026-06-11 16:30:01.983,3078941439,12983,1,0.9231,0.03906,0.62378,4.756,18.527,-2.954
2026-06-11 16:30:01.983,3078941439,12983,2,1.1311,-0.22583,0.00806,-7.496,15.794,-16.748
2026-06-11 16:30:01.183,3078940639,13183,1,0.79224,0.19043,0.55444,-22.786,103.443,-6.237
2026-06-11 16:30:01.183,3078940639,13183,2,0.948,0.09033,0.15576,-50.573,111.191,-40.069
2026-06-11 16:30:01.488,3078940944,13488,1,-0.05811,-0.05835,0.98145,-40.962,141.763,6.092
2026-06-11 16:30:01.488,3078940944,13488,2,0.63623,0.25732,0.7981,19.718,83.313,-23.664
2026-06-11 16:30:02.736,3078942192,13736,1,-0.43018,-0.22681,1.05176,-10.359,55.496,3.076
2026-06-11 16:30:02.736,3078942192,13736,2,0.56787,0.21484,0.92603,-1.046,45.573,-14.542
2026-06-11 16:30:02.175,3078941631,14175,1,-0.59326,-0.2644,0.87134,-9.359,18.802,-0.702
2026-06-11 16:30:02.175,3078941631,14175,2,0.34497,0.27588,1.01831,0.595,8.053,1.26
2026-06-11 16:30:02.375,3078941831,14375,1,-0.54175,-0.26709,0.84106,-11.229,1.458,-3.015
2026-06-11 16:30:02.375,3078941831,14375,2,0.36401,0.28589,1.01709,-0.237,2.305,3.313
2026-06-11 16:30:03.575,3078943031,14575,1,-0.54346,-0.29541,0.86084,7.191,-9.359,-2.198
2026-06-11 16:30:03.575,3078943031,14575,2,0.36865,0.28394,1.01099,2.489,-3.115,2.74
2026-06-11 16:30:03.775,3078943231,14775,1,-0.46973,-0.23242,0.83423,8.977,-4.069,1.412
2026-06-11 16:30:03.775,3078943231,14775,2,0.38721,0.27954,0.99268,0.42,-0.832,-2.489
2026-06-11 16:30:03.975,3078943431,14975,1,-0.49121,-0.23755,0.87354,1.221,0.885,-0.733
2026-06-11 16:30:03.975,3078943431,14975,2,0.39697,0.28809,1.02197,0.977,-3.153,-0.282
2026-06-11 16:30:03.175,3078942631,15175,1,-0.48633,-0.23779,0.89038,2.626,-1.412,0.664
2026-06-11 16:30:03.175,3078942631,15175,2,0.41064,0.2832,0.97729,0.779,-3.878,1.366
2026-06-11 16:30:03.375,3078942831,15375,1,-0.48779,-0.22559,0.90625,4.275,-5.153,3.198
2026-06-11 16:30:03.375,3078942831,15375,2,0.44287,0.27393,0.96997,-2.687,-24.206,11.466
2026-06-11 16:30:04.607,3078944063,15606,1,-0.56909,-0.27441,1.12598,25.214,-65.504,-1.473
2026-06-11 16:30:04.607,3078944063,15606,2,0.62573,0.24316,0.85938,-14.328,-87.763,33.863
2026-06-11 16:30:04.806,3078944262,15806,1,-0.104,-0.11719,0.96729,33.817,-120.061,-10.099
2026-06-11 16:30:04.806,3078944262,15806,2,0.88281,0.06055,0.58643,-8.336,-115.084,33.679
2026-06-11 16:30:04.028,3078943484,16028,1,0.45996,0.0686,0.77197,45.542,-119.557,-6.382
2026-06-11 16:30:04.028,3078943484,16028,2,1.05884,-0.11841,0.20825,17.672,-79.015,25.29
2026-06-11 16:30:04.252,3078943708,16252,1,0.82007,0.11426,0.625,32.115,-67.626,13.573
2026-06-11 16:30:04.252,3078943708,16252,2,1.08008,-0.13354,0.01978,43.267,-56.511,13.145
2026-06-11 16:30:04.452,3078943908,16452,1,0.94312,0.15503,0.5752,26.458,-16.641,9.962
2026-06-11 16:30:04.452,3078943908,16452,2,1.09814,-0.09326,-0.11523,38.42,0.481,-18.092
2026-06-11 16:30:05.686,3078945142,16686,1,0.87207,0.21655,0.59766,43.351,27.198,16.847
2026-06-11 16:30:05.686,3078945142,16686,2,0.98633,-0.07935,-0.14722,28.527,-3.481,-22.29
2026-06-11 16:30:05.886,3078945342,16886,1,0.771,0.34497,0.61597,16.252,-1.855,-0.794
2026-06-11 16:30:05.886,3078945342,16886,2,1.03613,0.01001,-0.13403,11.305,-2.855,-0.176
2026-06-11 16:30:05.086,3078944542,17086,1,0.8269,0.37256,0.5896,-18.26,-16.748,-9.237
2026-06-11 16:30:05.086,3078944542,17086,2,1.06201,-0.01318,-0.10522,-52.267,3.359,20.977
2026-06-11 16:30:05.291,3078944747,17291,1,0.87476,0.30493,0.53979,-28.786,-0.74,-3.214
2026-06-11 16:30:05.291,3078944747,17291,2,1.08423,-0.08667,-0.09058,-20.023,20.634,11.382
2026-06-11 16:30:05.491,3078944947,17491,1,0.84961,0.16064,0.56763,-33.168,19.611,0.634
2026-06-11 16:30:05.491,3078944947,17491,2,1.01563,-0.25293,-0.06665,-58.473,24.015,16.397
2026-06-11 16:30:06.691,3078946147,17691,1,0.94141,-0.03613,0.64868,-47.863,13.298,4.87
2026-06-11 16:30:06.691,3078946147,17691,2,0.89111,-0.2439,-0.00146,-35.519,28.176,25.427
2026-06-11 16:30:06.902,3078946358,17902,1,0.89844,-0.07935,0.57813,-41.275,-11.893,-11.023
2026-06-11 16:30:06.902,3078946358,17902,2,1.01392,-0.31567,-0.04907,-48.298,6.924,5.679
2026-06-11 16:30:06.102,3078945558,18102,1,0.89331,-0.05273,0.57275,-38.664,-2.122,-30.611
2026-06-11 16:30:06.102,3078945558,18102,2,1.00415,-0.34985,0.00952,-45.542,-0.435,-1.359
2026-06-11 16:30:06.302,3078945758,18302,1,0.93335,-0.02588,0.53906,-33.405,0.183,-34.023
2026-06-11 16:30:06.302,3078945758,18302,2,0.97681,-0.34424,-0.04248,-36.832,7.344,-10.397
2026-06-11 16:30:06.502,3078945958,18502,1,0.8689,-0.07544,0.59619,-4.885,-3.679,-23.748
2026-06-11 16:30:06.502,3078945958,18502,2,1.05322,-0.30103,-0.09619,28.71,-12.366,-4.985
2026-06-11 16:30:07.702,3078947158,18702,1,0.94531,0.14673,0.53735,4.725,-1.786,-18.634
2026-06-11 16:30:07.702,3078947158,18702,2,1.06934,-0.07788,-0.05249,-0.832,-4.053,-15.878
2026-06-11 16:30:07.902,3078947358,18902,1,0.88672,0.26147,0.69141,18.634,34.328,3.511
2026-06-11 16:30:07.902,3078947358,18902,2,1.09717,-0.12183,-0.10498,8.412,-1.489,-10.939
2026-06-11 16:30:07.203,3078946659,19203,1,0.77954,0.23755,0.66235,-8.618,10.458,2.221
2026-06-11 16:30:07.203,3078946659,19203,2,0.99243,0.10254,-0.12573,12.71,12.221,-4.916
2026-06-11 16:30:07.425,3078946881,19424,1,0.90161,0.15527,0.66699,-23.817,-5.634,-2.198
2026-06-11 16:30:07.425,3078946881,19424,2,1.0481,-0.00879,-0.01978,10.321,2.191,-12.504
2026-06-11 16:30:08.630,3078948086,19630,1,0.73682,0.073,0.69531,14.168,7.282,7.13
2026-06-11 16:30:08.630,3078948086,19630,2,1.09839,-0.19751,0.09082,41.336,21.855,-10.809
2026-06-11 16:30:08.830,3078948286,19830,1,0.77197,-0.00146,0.72241,25.847,5.26,26.458
2026-06-11 16:30:08.830,3078948286,19830,2,1.0625,-0.15625,0.00659,31.947,0.626,0.443
2026-06-11 16:30:08.030,3078947486,20030,1,0.85498,0.0249,0.70435,37.176,8.603,7.214
2026-06-11 16:30:08.030,3078947486,20030,2,1.03369,-0.16406,0.11914,36.42,4.718,-16.534
2026-06-11 16:30:08.254,3078947710,20254,1,0.91309,0.0874,0.8147,66.084,-13.389,25.069
2026-06-11 16:30:08.254,3078947710,20254,2,1.07031,-0.08984,0.073,36.13,-5.656,-5.656
2026-06-11 16:30:08.495,3078947951,20495,1,0.63916,0.29736,0.69751,62.557,37.13,46.55
2026-06-11 16:30:08.495,3078947951,20495,2,1.08887,0.23584,-0.0957,56.351,10.275,-15.145
2026-06-11 16:30:09.695,3078949151,20695,1,0.60132,0.42139,0.69385,18.321,7.42,24.557
2026-06-11 16:30:09.695,3078949151,20695,2,1.13525,0.16797,-0.00439,15.252,1.214,15.763
2026-06-11 16:30:09.895,3078949351,20895,1,0.79028,0.31641,0.66992,-2.198,7.099,9.374
2026-06-11 16:30:09.895,3078949351,20895,2,1.07104,0.15674,-0.0083,-8.107,17.191,-5.748
2026-06-11 16:30:09.121,3078948577,21121,1,0.62183,0.41284,0.73267,-28.58,3.305,-13.779
2026-06-11 16:30:09.121,3078948577,21121,2,1.12988,-0.06714,0.2793,-58.947,55.168,-5.603
2026-06-11 16:30:09.365,3078948821,21365,1,0.57544,-0.13672,0.71021,-39.076,139.939,24.389
2026-06-11 16:30:09.365,3078948821,21365,2,0.8877,-0.11743,0.35132,7.282,112.13,-24.55
2026-06-11 16:30:10.565,3078950021,21565,1,0.06226,-0.26343,0.95239,-36.183,146.466,6.809
2026-06-11 16:30:10.565,3078950021,21565,2,0.60742,0.23218,0.72534,7.58,91.817,-30.015
2026-06-11 16:30:10.855,3078950311,21855,1,-0.55884,-0.29614,0.99927,-22.969,74.611,3.069
2026-06-11 16:30:10.855,3078950311,21855,2,0.46387,0.27368,0.98315,17.107,63.603,-21.763
2026-06-11 16:30:10.062,3078949518,22062,1,-0.7356,-0.27832,0.88794,-11.176,29.573,-0.802
2026-06-11 16:30:10.062,3078949518,22062,2,0.31079,0.32593,1.06567,-3.504,16.794,-4.878
2026-06-11 16:30:10.262,3078949718,22262,1,-0.60254,-0.30371,0.76807,-1.885,3.183,-2.412
2026-06-11 16:30:10.262,3078949718,22262,2,0.32056,0.31201,1.01782,0.435,-1.168,-5.748
2026-06-11 16:30:10.530,3078949986,22530,1,-0.59106,-0.25952,0.76245,3.053,3.511,-1.069
2026-06-11 16:30:10.530,3078949986,22530,2,0.31348,0.28711,1.02539,2.099,3.328,-1.382
2026-06-11 16:30:11.730,3078951186,22730,1,-0.60718,-0.28125,0.77246,-1.053,1.733,1.412
2026-06-11 16:30:11.730,3078951186,22730,2,0.31763,0.30225,1.02319,1.74,1.885,2.015
2026-06-11 16:30:11.968,3078951424,22968,1,-0.58447,-0.28467,0.7334,-3.748,8.252,1.794
2026-06-11 16:30:11.968,3078951424,22968,2,0.29199,0.28662,1.03076,2.611,4.969,-2.206
2026-06-11 16:30:11.168,3078950624,23168,1,-0.62866,-0.28882,0.76367,-0.221,3.473,1.359
2026-06-11 16:30:11.168,3078950624,23168,2,0.29761,0.30762,1.02271,1.84,-2.443,7.092
2026-06-11 16:30:11.368,3078950824,23368,1,-0.63989,-0.31738,0.79736,-1.855,-11.344,-0.603
2026-06-11 16:30:11.368,3078950824,23368,2,0.31079,0.34521,1.05493,-1.794,-27.496,14.809
2026-06-11 16:30:12.568,3078952024,23568,1,-0.74268,-0.34155,0.97827,20.351,-67.824,-19.214
2026-06-11 16:30:12.568,3078952024,23568,2,0.40771,0.23877,1.02563,-10.183,-70.443,38.58
2026-06-11 16:30:12.768,3078952224,23768,1,-0.29541,-0.22974,0.96411,45.031,-119.58,-0.542
2026-06-11 16:30:12.768,3078952224,23768,2,0.91821,0.03979,0.49634,-7.366,-121.481,38.603
2026-06-11 16:30:12.004,3078951460,24004,1,0.33765,-0.0083,0.75,41.389,-145.931,-10.214
2026-06-11 16:30:12.004,3078951460,24004,2,1.0293,-0.00146,0.20435,8.901,-106.069,36.496
2026-06-11 16:30:12.204,3078951660,24204,1,0.76514,0.19653,0.59106,17.145,-106.183,-5.542
2026-06-11 16:30:12.204,3078951660,24204,2,1.12402,-0.08105,0.05518,-33.565,-59.092,7.962
2026-06-11 16:30:12.429,3078951885,24429,1,0.91089,0.13306,0.54321,-1.794,-25.847,-10.802
2026-06-11 16:30:12.429,3078951885,24429,2,1.08228,-0.20313,-0.03711,6.275,-16.511,4.0
2026-06-11 16:30:13.629,3078953085,24629,1,0.9126,0.05054,0.54297,13.191,-1.817,10.939
2026-06-11 16:30:13.629,3078953085,24629,2,1.01392,-0.25635,-0.07642,-0.015,-9.122,-0.756
2026-06-11 16:30:13.916,3078953372,24916,1,0.9834,0.07788,0.50488,19.908,9.023,14.878
2026-06-11 16:30:13.916,3078953372,24916,2,1.13477,-0.08691,-0.21191,24.649,19.58,-20.809
2026-06-11 16:30:13.116,3078952572,25116,1,0.81909,0.14038,0.49536,13.443,28.092,-5.397
2026-06-11 16:30:13.116,3078952572,25116,2,1.09058,-0.09375,-0.2605,27.13,16.947,-8.878
2026-06-11 16:30:13.335,3078952791,25335,1,0.854,0.18677,0.55713,41.313,19.74,24.359
2026-06-11 16:30:13.335,3078952791,25335,2,0.98511,-0.14355,-0.17407,53.893,-0.435,-22.038
2026-06-11 16:30:14.535,3078953991,25535,1,0.82617,0.29126,0.5752,6.603,-10.58,-1.099
2026-06-11 16:30:14.535,3078953991,25535,2,1.0437,-0.08105,-0.1853,0.214,-8.115,14.427
2026-06-11 16:30:14.735,3078954191,25735,1,0.87476,0.25781,0.58618,11.351,-8.061,9.985
2026-06-11 16:30:14.735,3078954191,25735,2,1.05615,-0.16724,-0.15698,-2.069,-15.397,-0.412
2026-06-11 16:30:14.935,3078954391,25935,1,0.88354,0.09961,0.51074,36.511,5.557,28.954
2026-06-11 16:30:14.935,3078954391,25935,2,1.06445,-0.32568,-0.20898,-3.756,-12.099,-12.458
2026-06-11 16:30:14.135,3078953591,26135,1,0.91992,0.104,0.5127,20.16,14.046,21.244
2026-06-11 16:30:14.135,3078953591,26135,2,1.05029,-0.15649,-0.1416,0.519,8.878,-9.099
2026-06-11 16:30:14.338,3078953794,26338,1,0.92065,0.13403,0.52466,-8.718,10.183,3.282
2026-06-11 16:30:14.338,3078953794,26338,2,1.03296,-0.18921,-0.12134,4.473,-0.962,-1.985
2026-06-11 16:30:15.643,3078955099,26643,1,0.92725,0.10059,0.55811,10.679,9.443,8.611
2026-06-11 16:30:15.643,3078955099,26643,2,1.02734,-0.16992,-0.18091,9.099,4.237,-4.779
2026-06-11 16:30:15.843,3078955299,26843,1,0.89819,0.12451,0.56787,-8.382,-0.542,-8.466
2026-06-11 16:30:15.843,3078955299,26843,2,1.02246,-0.13623,-0.15283,-7.763,9.618,4.183
2026-06-11 16:30:15.043,3078954499,27043,1,0.90552,0.11963,0.55981,-8.206,1.122,-6.504
2026-06-11 16:30:15.043,3078954499,27043,2,1.03052,-0.18677,-0.12476,-1.931,0.519,-0.229
2026-06-11 16:30:15.243,3078954699,27243,1,0.90869,0.1355,0.5708,11.84,4.87,7.702
2026-06-11 16:30:15.243,3078954699,27243,2,1.03809,-0.16748,-0.10498,22.282,-2.534,-4.809
2026-06-11 16:30:15.443,3078954899,27443,1,0.88135,0.12695,0.60278,16.282,11.679,20.618
2026-06-11 16:30:15.443,3078954899,27443,2,1.01416,-0.14648,-0.13989,15.359,2.26,-4.29
2026-06-11 16:30:16.643,3078956099,27643,1,0.88403,0.10913,0.61987,8.588,7.496,12.626
2026-06-11 16:30:16.643,3078956099,27643,2,1.02832,-0.15649,-0.11084,10.74,5.092,-1.115
2026-06-11 16:30:16.843,3078956299,27843,1,0.8877,0.06201,0.61523,3.443,3.672,8.351
2026-06-11 16:30:16.843,3078956299,27843,2,1.01904,-0.16382,-0.11499,0.626,4.168,1.008
2026-06-11 16:30:16.043,3078955499,28043,1,0.87573,0.05103,0.61206,2.023,2.595,0.351
2026-06-11 16:30:16.043,3078955499,28043,2,1.03345,-0.15381,-0.09131,0.015,1.863,-0.595
2026-06-11 16:30:16.243,3078955699,28243,1,0.87646,0.06714,0.61011,-5.496,0.374,-5.695
2026-06-11 16:30:16.243,3078955699,28243,2,1.02588,-0.18164,-0.09863,-6.214,1.084,1.695
2026-06-11 16:30:16.529,3078955985,28528,1,0.88232,0.0752,0.61304,-4.275,1.107,-5.519
2026-06-11 16:30:16.529,3078955985,28528,2,1.03027,-0.18213,-0.10205,-6.878,0.939,3.351
2026-06-11 16:30:17.739,3078957195,28739,1,0.89307,0.06592,0.61768,-5.634,0.626,-6.038
2026-06-11 16:30:17.739,3078957195,28739,2,1.02661,-0.18286,-0.11304,-3.344,1.084,1.099
2026-06-11 16:30:17.957,3078957413,28957,1,0.88184,0.09595,0.60303,-5.221,0.137,-4.794
2026-06-11 16:30:17.957,3078957413,28957,2,1.02954,-0.18018,-0.12305,-5.038,1.855,2.244
2026-06-11 16:30:17.157,3078956613,29157,1,0.88721,0.0896,0.59229,0.557,0.443,-1.863
2026-06-11 16:30:17.157,3078956613,29157,2,1.03149,-0.17603,-0.13208,-4.847,0.771,-0.015
2026-06-11 16:30:17.357,3078956813,29357,1,0.89258,0.104,0.58521,-4.954,0.656,-2.534
2026-06-11 16:30:17.357,3078956813,29357,2,1.02588,-0.17847,-0.11572,-8.573,2.832,3.015
2026-06-11 16:30:18.597,3078958053,29597,1,0.88062,0.09863,0.5918,-9.42,-0.901,-6.702
2026-06-11 16:30:18.597,3078958053,29597,2,1.02197,-0.19409,-0.11426,-8.954,-0.015,5.641
2026-06-11 16:30:18.874,3078958330,29874,1,0.89722,0.09375,0.58057,-6.168,-1.069,-4.588
2026-06-11 16:30:18.874,3078958330,29874,2,1.02466,-0.19458,-0.13037,-5.038,2.183,1.893
2026-06-11 16:30:18.074,3078957530,30074,1,0.90747,0.09302,0.57251,-6.458,2.687,-3.977
2026-06-11 16:30:18.074,3078957530,30074,2,1.02563,-0.20142,-0.11035,-8.779,4.076,1.26
2026-06-11 16:30:18.285,3078957741,30285,1,0.89575,0.09253,0.57495,-7.947,2.878,-4.893
2026-06-11 16:30:18.285,3078957741,30285,2,1.03223,-0.20996,-0.11646,-6.412,4.122,2.664
2026-06-11 16:30:18.495,3078957951,30495,1,0.90088,0.09277,0.57178,-6.168,1.824,-3.893
2026-06-11 16:30:18.495,3078957951,30495,2,1.03442,-0.20752,-0.10815,-12.466,7.466,3.985
2026-06-11 16:30:19.750,3078959206,30750,1,0.86401,0.07495,0.57935,-19.664,-2.832,-14.252
2026-06-11 16:30:19.750,3078959206,30750,2,0.96118,-0.28784,-0.02905,-16.847,3.832,14.336
2026-06-11 16:30:19.967,3078959423,30967,1,0.87256,-0.00415,0.46387,-18.29,24.664,4.969
2026-06-11 16:30:19.967,3078959423,30967,2,0.83618,-0.23804,-0.00757,-13.656,26.542,-7.695
2026-06-11 16:30:19.167,3078958623,31167,1,0.62109,0.01855,0.59082,-13.145,57.557,-7.466
2026-06-11 16:30:19.167,3078958623,31167,2,1.00317,-0.06934,0.27979,-35.595,14.649,-26.115
2026-06-11 16:30:19.470,3078958926,31470,1,0.59058,0.17896,0.88989,5.656,-6.351,-22.832
2026-06-11 16:30:19.470,3078958926,31470,2,1.09692,-0.13086,0.13574,0.046,-32.733,4.145
2026-06-11 16:30:20.690,3078960146,31690,1,0.87231,0.16919,0.93921,2.214,-46.328,-0.183
2026-06-11 16:30:20.690,3078960146,31690,2,1.89404,-0.25366,0.15479,33.664,1.115,7.802
2026-06-11 16:30:20.890,3078960346,31890,1,0.88257,0.13599,0.68994,7.183,50.382,34.458
2026-06-11 16:30:20.890,3078960346,31890,2,0.81689,-0.06323,0.0686,-14.695,-3.275,-2.718
2026-06-11 16:30:20.090,3078959546,32090,1,0.70459,0.08252,0.74805,2.847,-2.275,1.763
2026-06-11 16:30:20.090,3078959546,32090,2,1.21875,-0.16748,0.04785,7.527,6.954,7.481
2026-06-11 16:30:20.339,3078959795,32338,1,0.76758,0.05737,0.70679,0.718,8.374,4.908
2026-06-11 16:30:20.339,3078959795,32338,2,1.66211,-0.25049,0.08179,3.328,6.107,-2.153
2026-06-11 16:30:21.538,3078960994,32538,1,1.24414,0.11621,1.13232,19.817,28.672,22.687
2026-06-11 16:30:21.538,3078960994,32538,2,1.40747,-0.10132,0.06372,22.198,37.824,-9.916
2026-06-11 16:30:21.780,3078961236,32780,1,0.521,0.125,0.65479,20.511,-4.824,7.221
2026-06-11 16:30:21.780,3078961236,32780,2,0.57642,0.06592,0.04053,45.847,-33.313,3.244
2026-06-11 16:30:21.037,3078960493,33037,1,0.37476,0.10156,0.43555,28.672,-16.763,37.45
2026-06-11 16:30:21.037,3078960493,33037,2,1.19019,-0.17725,0.0791,64.924,10.763,-14.977
2026-06-11 16:30:21.277,3078960733,33277,1,0.87329,0.08032,0.67749,4.183,-19.092,-35.725
2026-06-11 16:30:21.277,3078960733,33277,2,0.948,-0.23047,-0.02124,-14.931,-26.794,33.939
2026-06-11 16:30:21.477,3078960933,33477,1,0.98511,0.02441,0.56079,53.687,7.389,53.603
2026-06-11 16:30:21.477,3078960933,33477,2,1.07495,-0.25586,-0.13379,64.061,-9.489,-26.321
2026-06-11 16:30:22.677,3078962133,33677,1,0.90576,0.13525,0.5625,50.573,26.008,54.641
2026-06-11 16:30:22.677,3078962133,33677,2,1.00244,-0.16846,-0.18921,101.366,-2.435,-16.244
2026-06-11 16:30:22.940,3078962396,33940,1,1.07153,0.08887,0.76855,78.84,-14.718,49.763
2026-06-11 16:30:22.940,3078962396,33940,2,1.33374,0.08911,0.00415,24.656,-3.008,-25.282
2026-06-11 16:30:22.140,3078961596,34140,1,0.70264,0.0144,0.74707,17.336,-0.901,7.939
2026-06-11 16:30:22.140,3078961596,34140,2,0.92285,-0.16528,0.12866,73.031,-6.275,-8.443
2026-06-11 16:30:22.366,3078961822,34366,1,0.77417,0.1062,0.68677,27.359,0.595,27.046
2026-06-11 16:30:22.366,3078961822,34366,2,1.04663,-0.06494,-0.0603,-25.947,-10.298,-10.664
2026-06-11 16:30:23.578,3078963034,34578,1,0.83691,0.22241,0.71875,-36.382,-1.122,-37.435
2026-06-11 16:30:23.578,3078963034,34578,2,0.99951,0.01465,-0.12354,-13.656,6.901,9.061
2026-06-11 16:30:23.778,3078963234,34778,1,0.78271,0.22998,0.69678,-29.115,-17.092,-19.672
2026-06-11 16:30:23.778,3078963234,34778,2,1.04541,-0.05176,-0.1853,-62.382,16.832,18.0
2026-06-11 16:30:23.097,3078962553,35097,1,0.91675,0.2356,0.5603,-95.275,-27.939,-67.71
2026-06-11 16:30:23.097,3078962553,35097,2,1.0332,-0.2876,-0.00366,-137.382,14.603,37.252
2026-06-11 16:30:23.330,3078962786,35329,1,1.05981,0.11694,0.67993,-46.351,-19.634,-18.786
2026-06-11 16:30:23.330,3078962786,35329,2,1.30103,-0.57739,0.06152,-62.237,49.038,26.275
2026-06-11 16:30:23.529,3078962985,35529,1,0.76221,0.02222,0.57861,-45.137,-1.779,-20.702
2026-06-11 16:30:23.529,3078962985,35529,2,1.04858,-0.27686,0.03149,-56.168,20.908,0.626
2026-06-11 16:30:24.729,3078964185,35729,1,0.8147,-0.02979,0.63623,-41.397,6.748,-35.298
2026-06-11 16:30:24.729,3078964185,35729,2,1.03198,-0.27905,0.1084,-48.565,-4.473,0.206
2026-06-11 16:30:24.971,3078964427,35971,1,0.84082,-0.0752,0.66284,-11.023,-1.13,-29.954
2026-06-11 16:30:24.971,3078964427,35971,2,1.2478,-0.12573,-0.04614,24.718,-14.252,-31.374
2026-06-11 16:30:24.207,3078963663,36207,1,0.85571,0.15796,0.61255,23.496,7.29,-17.962
2026-06-11 16:30:24.207,3078963663,36207,2,1.03491,-0.12646,0.01587,29.809,4.336,-2.687
2026-06-11 16:30:24.475,3078963931,36475,1,0.81226,0.27002,0.64478,8.069,4.763,2.634
2026-06-11 16:30:24.475,3078963931,36475,2,1.00879,-0.04321,-0.0874,-6.305,-15.305,-14.893
2026-06-11 16:30:25.712,3078965168,36712,1,0.80396,0.28613,0.6189,-5.382,-6.519,-12.656
2026-06-11 16:30:25.712,3078965168,36712,2,1.02393,-0.00732,-0.17798,-18.771,-5.695,-2.664
2026-06-11 16:30:25.912,3078965368,36912,1,0.84937,0.30835,0.59741,-28.756,-17.244,-30.863
2026-06-11 16:30:25.912,3078965368,36912,2,1.01904,-0.05322,-0.14209,-26.809,-7.26,11.489
2026-06-11 16:30:25.164,3078964620,37164,1,0.87524,0.30029,0.59351,-6.634,-4.672,-10.802
2026-06-11 16:30:25.164,3078964620,37164,2,1.05737,-0.04858,-0.13892,-6.496,4.344,0.183
2026-06-11 16:30:25.364,3078964820,37364,1,0.83569,0.30713,0.59668,5.359,19.496,11.695
2026-06-11 16:30:25.364,3078964820,37364,2,1.00635,-0.00073,-0.21851,3.832,14.214,-5.481
2026-06-11 16:30:26.564,3078966020,37564,1,0.82617,0.29224,0.59448,-2.275,5.115,5.038
2026-06-11 16:30:26.564,3078966020,37564,2,1.06787,-0.05884,-0.14502,16.557,3.901,4.29
2026-06-11 16:30:26.821,3078966277,37821,1,0.83398,0.3291,0.63525,19.023,7.695,24.321
2026-06-11 16:30:26.821,3078966277,37821,2,1.05054,-0.05542,-0.2417,-10.588,-3.534,1.038
2026-06-11 16:30:26.021,3078965477,38021,1,0.83643,0.24048,0.63184,-9.672,2.763,3.275
2026-06-11 16:30:26.021,3078965477,38021,2,1.05542,-0.06689,-0.09302,-10.71,4.435,3.885
2026-06-11 16:30:26.221,3078965677,38221,1,0.84229,0.18921,0.63208,-13.634,2.267,3.595
2026-06-11 16:30:26.221,3078965677,38221,2,1.04468,-0.125,-0.05322,-0.656,10.0,10.137
2026-06-11 16:30:26.421,3078965877,38421,1,0.82031,0.11548,0.6626,-14.527,2.641,2.298
2026-06-11 16:30:26.421,3078965877,38421,2,1.05811,-0.22119,-0.00952,-13.985,6.305,7.458
2026-06-11 16:30:27.710,3078967166,38710,1,0.87793,0.03418,0.60254,-0.321,-1.771,8.076
2026-06-11 16:30:27.710,3078967166,38710,2,1.04199,-0.24927,-0.02686,-5.107,6.305,0.786
2026-06-11 16:30:27.910,3078967366,38910,1,0.88477,0.05884,0.62427,-0.71,8.687,2.389
2026-06-11 16:30:27.910,3078967366,38910,2,0.98315,-0.25317,-0.06055,13.031,-1.802,-1.55
2026-06-11 16:30:27.141,3078966597,39141,1,0.87256,0.04395,0.62793,20.634,1.748,5.076
2026-06-11 16:30:27.141,3078966597,39141,2,1.03418,-0.11792,0.00073,13.237,9.328,-12.099
2026-06-11 16:30:28.784,3078968240,39784,1,0.82007,0.25513,0.68896,11.359,11.794,0.427
2026-06-11 16:30:28.784,3078968240,39784,2,1.00024,-0.11035,-0.05615,-10.374,7.282,-0.969
2026-06-11 16:30:28.110,3078967566,40110,1,0.86694,0.23022,0.6084,-13.321,-2.405,-4.679
2026-06-11 16:30:28.110,3078967566,40110,2,0.99902,-0.0791,-0.21143,-43.046,-11.702,15.168
2026-06-11 16:30:28.419,3078967875,40419,1,0.93579,0.1626,0.65918,-29.458,2.115,-9.153
2026-06-11 16:30:28.419,3078967875,40419,2,1.00757,-0.23193,-0.01465,-56.855,2.687,14.954
2026-06-11 16:30:29.735,3078969191,40735,1,0.854,0.01563,0.63965,-30.084,11.031,-11.885
2026-06-11 16:30:29.735,3078969191,40735,2,0.99976,-0.25098,0.10986,7.099,12.435,-4.595
2026-06-11 16:30:29.982,3078969438,40982,1,0.82642,-0.01587,0.63184,13.626,13.183,7.359
2026-06-11 16:30:29.982,3078969438,40982,2,1.16382,-0.31519,-0.03345,25.008,-11.603,-5.725
2026-06-11 16:30:29.189,3078968645,41189,1,0.86963,0.15796,0.74268,26.947,9.13,3.496
2026-06-11 16:30:29.189,3078968645,41189,2,1.03345,0.04907,0.17627,21.527,-5.985,-15.603
2026-06-11 16:30:29.389,3078968845,41389,1,0.68579,0.31445,0.81299,37.015,16.557,25.931
2026-06-11 16:30:29.389,3078968845,41389,2,1.00879,-0.04517,0.02637,-0.359,-1.153,5.45
2026-06-11 16:30:30.628,3078970084,41628,1,0.75708,0.25098,0.7312,2.313,8.763,26.351
2026-06-11 16:30:30.628,3078970084,41628,2,1.01904,-0.04541,-0.01807,5.931,7.267,12.305
2026-06-11 16:30:30.851,3078970307,41851,1,0.96313,0.06299,0.81519,-34.382,-13.725,13.87
2026-06-11 16:30:30.851,3078970307,41851,2,1.13599,-0.09448,0.1521,-42.634,-8.45,22.16
2026-06-11 16:30:30.051,3078969507,42051,1,0.72485,-0.21045,0.82642,9.481,2.687,12.145
2026-06-11 16:30:30.051,3078969507,42051,2,1.04199,-0.26172,0.19751,45.321,-4.885,-13.008
2026-06-11 16:30:30.297,3078969753,42297,1,0.76953,-0.11597,0.73462,58.298,7.649,31.588
2026-06-11 16:30:30.297,3078969753,42297,2,1.03687,-0.26758,0.04517,26.802,-4.336,-34.298
2026-06-11 16:30:30.497,3078969953,42497,1,0.79834,0.05591,0.70459,75.427,33.931,45.527
2026-06-11 16:30:30.497,3078969953,42497,2,1.03223,-0.03467,0.13892,41.947,41.267,-39.611
2026-06-11 16:30:31.697,3078971153,42697,1,0.66699,0.35498,0.85156,95.252,21.473,88.359
2026-06-11 16:30:31.697,3078971153,42697,2,0.95801,0.19141,-0.10254,106.786,-34.611,1.71
2026-06-11 16:30:31.897,3078971353,42897,1,0.70264,0.3042,0.75366,48.359,-17.916,47.695
2026-06-11 16:30:31.897,3078971353,42897,2,1.01367,0.17822,-0.09033,31.672,-14.931,11.786
2026-06-11 16:30:31.132,3078970588,43132,1,0.82593,0.33813,0.68286,-4.344,-19.42,2.809
2026-06-11 16:30:31.132,3078970588,43132,2,1.06934,0.06909,-0.04541,-4.84,7.527,22.115
2026-06-11 16:30:31.332,3078970788,43332,1,0.76587,0.15356,0.70239,-13.443,-0.969,10.87
2026-06-11 16:30:31.332,3078970788,43332,2,0.99707,-0.07031,-0.1001,-30.832,1.298,20.588
2026-06-11 16:30:32.532,3078971988,43532,1,0.92139,-0.09497,0.64673,-13.618,-8.71,4.443
2026-06-11 16:30:32.532,3078971988,43532,2,1.00806,-0.32178,-0.03979,3.015,3.351,18.84
2026-06-11 16:30:32.777,3078972233,43776,1,0.81738,-0.11279,0.63501,29.931,3.664,32.947
2026-06-11 16:30:32.777,3078972233,43776,2,1.02002,-0.24194,-0.10986,23.565,-3.298,-8.466
2026-06-11 16:30:32.976,3078972432,43976,1,0.8855,-0.01489,0.63623,12.206,0.275,11.802
2026-06-11 16:30:32.976,3078972432,43976,2,0.99146,-0.16577,-0.05908,19.733,4.695,-3.473
2026-06-11 16:30:32.176,3078971632,44176,1,0.87158,0.03711,0.59839,23.756,-1.115,-9.099
2026-06-11 16:30:32.176,3078971632,44176,2,1.09863,-0.11719,-0.12207,2.748,-6.435,2.015
2026-06-11 16:30:32.452,3078971908,44452,1,0.91675,0.06323,0.57153,2.473,-8.992,-12.015
2026-06-11 16:30:32.452,3078971908,44452,2,1.04248,-0.15723,-0.1543,60.649,7.244,-4.672
2026-06-11 16:30:33.652,3078973108,44652,1,0.927,0.09399,0.53711,22.221,-3.26,2.328
2026-06-11 16:30:33.652,3078973108,44652,2,1.07471,-0.07813,-0.09082,36.901,17.504,-35.985
2026-06-11 16:30:33.069,3078972525,45069,1,0.80566,0.27759,0.63281,33.573,0.115,1.939
2026-06-11 16:30:33.069,3078972525,45069,2,1.1377,0.16919,-0.02905,55.328,12.672,-24.641
2026-06-11 16:30:33.285,3078972741,45285,1,0.87402,0.33276,0.61499,15.878,-0.855,5.931
2026-06-11 16:30:33.285,3078972741,45285,2,1.01025,-0.03149,-0.11133,15.511,2.427,-11.893
2026-06-11 16:30:33.485,3078972941,45485,1,0.82031,0.29126,0.6665,3.939,0.618,-2.878
2026-06-11 16:30:33.485,3078972941,45485,2,1.09277,0.01733,-0.03564,20.328,8.588,-5.214
2026-06-11 16:30:34.685,3078974141,45685,1,0.78418,0.41846,0.53711,-41.588,11.641,-9.679
2026-06-11 16:30:34.685,3078974141,45685,2,1.29517,-0.11084,-0.00513,-46.885,35.557,32.588
2026-06-11 16:30:34.918,3078974374,45918,1,0.76831,0.14185,0.68774,-59.863,-8.817,-21.168
2026-06-11 16:30:34.918,3078974374,45918,2,1.09644,-0.24707,0.09619,-99.168,-6.702,22.664
2026-06-11 16:30:34.164,3078973620,46164,1,0.87891,-0.19409,0.77051,-31.595,-1.817,-23.473
2026-06-11 16:30:34.164,3078973620,46164,2,1.03735,-0.1626,-0.11963,-17.153,-45.824,0.321
2026-06-11 16:30:34.436,3078973892,46436,1,0.79736,0.08228,0.72803,-4.672,7.282,-11.626
2026-06-11 16:30:34.436,3078973892,46436,2,1.12134,-0.12744,0.00562,18.046,-6.985,6.031
2026-06-11 16:30:35.636,3078975092,46636,1,0.89233,0.04785,0.56104,28.725,-6.931,1.45
2026-06-11 16:30:35.636,3078975092,46636,2,1.07007,-0.18018,0.01831,-1.779,0.901,-11.954
2026-06-11 16:30:35.836,3078975292,46836,1,0.88306,0.14771,0.59155,34.435,4.298,14.443
2026-06-11 16:30:35.836,3078975292,46836,2,1.12354,-0.08325,-0.20923,16.565,11.824,-14.038
2026-06-11 16:30:35.121,3078974577,47121,1,0.82764,0.15771,0.63428,0.992,7.74,-6.023
2026-06-11 16:30:35.121,3078974577,47121,2,1.04712,-0.10107,-0.1167,26.336,0.817,-8.145
2026-06-11 16:30:35.339,3078974795,47339,1,0.88647,0.18262,0.62915,18.191,2.321,1.58
2026-06-11 16:30:35.339,3078974795,47339,2,1.02661,-0.11963,-0.15161,19.183,-0.824,-10.336
2026-06-11 16:30:36.615,3078976071,47614,1,0.87305,0.20142,0.61304,5.618,5.229,9.0
2026-06-11 16:30:36.615,3078976071,47614,2,1.0144,-0.08179,-0.15454,14.252,4.855,-3.221
2026-06-11 16:30:36.845,3078976301,47845,1,0.86182,0.18579,0.61719,3.153,2.977,5.359
2026-06-11 16:30:36.845,3078976301,47845,2,1.01978,-0.08398,-0.13647,3.427,0.679,-0.389
2026-06-11 16:30:36.045,3078975501,48045,1,0.87012,0.15869,0.61084,4.008,1.328,3.015
2026-06-11 16:30:36.045,3078975501,48045,2,1.0249,-0.09106,-0.16309,3.58,2.458,-1.458
2026-06-11 16:30:36.303,3078975759,48302,1,0.86353,0.17139,0.61548,6.687,4.176,4.779
2026-06-11 16:30:36.303,3078975759,48302,2,1.04004,-0.09668,-0.1626,-1.076,-0.008,-0.878
2026-06-11 16:30:36.520,3078975976,48520,1,0.87061,0.15894,0.6145,1.916,4.305,1.427
2026-06-11 16:30:36.520,3078975976,48520,2,1.02612,-0.09692,-0.13989,-0.443,3.954,-1.641
2026-06-11 16:30:37.751,3078977207,48751,1,0.87598,0.1604,0.6189,-1.466,2.313,-0.359
2026-06-11 16:30:37.751,3078977207,48751,2,1.02271,-0.09863,-0.14624,-1.076,1.557,0.878
2026-06-11 16:30:37.981,3078977437,48981,1,0.86646,0.15283,0.61426,-0.328,0.344,-0.336
2026-06-11 16:30:37.981,3078977437,48981,2,1.03589,-0.08691,-0.14209,-6.137,0.504,1.229
2026-06-11 16:30:37.181,3078976637,49181,1,0.87988,0.15747,0.5918,-3.069,0.389,-0.885
2026-06-11 16:30:37.181,3078976637,49181,2,1.03076,-0.10864,-0.11719,-3.969,1.634,2.916
2026-06-11 16:30:37.381,3078976837,49381,1,0.83838,0.12646,0.63013,-0.046,-2.221,-2.282
2026-06-11 16:30:37.381,3078976837,49381,2,1.02075,-0.10522,-0.14624,-11.496,-3.954,4.023
2026-06-11 16:30:38.581,3078978037,49581,1,0.94141,0.20337,0.53223,-10.16,-17.092,-2.481
2026-06-11 16:30:38.581,3078978037,49581,2,1.08081,-0.18896,-0.18872,-31.168,19.931,19.74
2026-06-11 16:30:38.954,3078978410,49954,1,0.8147,-0.07324,0.60815,-39.137,24.29,-5.725
2026-06-11 16:30:38.954,3078978410,49954,2,0.95776,-0.25488,-0.09399,-4.511,16.267,-2.588
2026-06-11 16:30:38.154,3078977610,50154,1,0.86304,0.04175,0.66479,-4.74,1.855,-9.802
2026-06-11 16:30:38.154,3078977610,50154,2,0.99365,-0.17847,-0.08496,-6.763,3.305,5.145
2026-06-11 16:30:38.354,3078977810,50354,1,0.89282,0.05054,0.62256,-5.779,-5.237,-7.443
2026-06-11 16:30:38.354,3078977810,50354,2,1.05225,-0.12891,-0.05225,-7.008,-4.611,3.855
2026-06-11 16:30:39.575,3078979031,50575,1,0.87378,0.10889,0.62939,7.321,-7.038,-5.504
2026-06-11 16:30:39.575,3078979031,50575,2,1.02954,-0.18384,-0.11646,4.687,-7.275,-5.885
2026-06-11 16:30:39.832,3078979288,50832,1,0.86475,0.07227,0.59448,15.0,1.931,-3.107
2026-06-11 16:30:39.832,3078979288,50832,2,1.0249,-0.14893,-0.15063,1.115,-15.084,-15.313
2026-06-11 16:30:39.032,3078978488,51032,1,0.87695,0.20532,0.55493,14.137,-2.611,-5.099
2026-06-11 16:30:39.032,3078978488,51032,2,1.0271,-0.1145,-0.16284,-10.137,3.878,2.008
2026-06-11 16:30:39.286,3078978742,51286,1,0.92822,0.16699,0.51465,14.137,-1.824,1.366
2026-06-11 16:30:39.286,3078978742,51286,2,1.01953,-0.05908,-0.12134,7.702,12.221,-2.092
2026-06-11 16:30:40.531,3078979987,51531,1,0.89722,0.26392,0.53369,1.908,3.053,-1.725
2026-06-11 16:30:40.531,3078979987,51531,2,1.02075,-0.12061,-0.16333,0.931,0.374,1.641
2026-06-11 16:30:40.771,3078980227,51771,1,0.88794,0.22339,0.54126,-13.084,2.809,-1.008
2026-06-11 16:30:40.771,3078980227,51771,2,1.05835,-0.12183,-0.15015,7.076,10.405,-1.924
2026-06-11 16:30:40.032,3078979488,52032,1,0.89307,0.20972,0.55835,-4.542,4.695,4.176
2026-06-11 16:30:40.032,3078979488,52032,2,1.02148,-0.13208,-0.15332,6.496,6.939,-0.511
2026-06-11 16:30:40.232,3078979688,52232,1,0.86963,0.15723,0.56763,-8.687,6.13,1.061
2026-06-11 16:30:40.232,3078979688,52232,2,1.04321,-0.10767,-0.15137,-13.405,-0.969,0.191
2026-06-11 16:30:40.432,3078979888,52432,1,0.92603,0.18677,0.54126,4.298,3.053,-2.397
2026-06-11 16:30:40.432,3078979888,52432,2,1.03418,-0.11157,-0.15112,20.275,4.679,-5.0
2026-06-11 16:30:41.650,3078981106,52650,1,0.90332,0.23291,0.56665,2.489,2.313,5.107
2026-06-11 16:30:41.650,3078981106,52650,2,1.01465,-0.10767,-0.1748,4.221,-0.084,0.763
2026-06-11 16:30:41.856,3078981312,52856,1,0.88794,0.1604,0.57983,0.55,2.542,6.84
2026-06-11 16:30:41.856,3078981312,52856,2,1.02124,-0.12354,-0.19678,4.786,1.115,0.176
2026-06-11 16:30:41.056,3078980512,53056,1,0.89673,0.14233,0.5752,4.244,1.069,5.092
2026-06-11 16:30:41.056,3078980512,53056,2,1.01904,-0.13135,-0.1709,6.58,-0.916,-0.931
2026-06-11 16:30:41.353,3078980809,53352,1,0.9021,0.14502,0.56055,5.977,-0.321,3.916
2026-06-11 16:30:41.353,3078980809,53352,2,1.02173,-0.11841,-0.18311,-4.817,-3.718,-1.962
2026-06-11 16:30:42.563,3078982019,53562,1,0.90625,0.15283,0.55225,-0.466,0.382,-1.282
2026-06-11 16:30:42.563,3078982019,53562,2,1.00757,-0.14844,-0.2063,3.924,-0.42,2.809
2026-06-11 16:30:42.813,3078982269,53812,1,0.92773,0.16138,0.53027,3.107,1.618,1.924
2026-06-11 16:30:42.813,3078982269,53812,2,1.01416,-0.15845,-0.20557,4.725,-0.069,-0.687
2026-06-11 16:30:42.012,3078981468,54012,1,0.92432,0.15698,0.51855,6.084,4.702,6.366
2026-06-11 16:30:42.012,3078981468,54012,2,1.02295,-0.1438,-0.21558,6.87,6.038,-2.878
2026-06-11 16:30:42.212,3078981668,54212,1,0.92822,0.14331,0.52759,7.115,8.817,4.626
2026-06-11 16:30:42.212,3078981668,54212,2,1.03076,-0.14087,-0.18872,-0.565,10.0,-3.053
2026-06-11 16:30:42.454,3078981910,54454,1,0.88647,0.14551,0.57349,-0.359,10.084,0.282
2026-06-11 16:30:42.454,3078981910,54454,2,1.03857,-0.12305,-0.12573,-0.427,7.214,-1.214
2026-06-11 16:30:43.667,3078983123,54667,1,0.88696,0.14014,0.5791,-3.13,6.412,-2.733
2026-06-11 16:30:43.667,3078983123,54667,2,1.02466,-0.12842,-0.11011,-3.366,9.321,-1.328
2026-06-11 16:30:43.867,3078983323,54867,1,0.8667,0.13867,0.61694,-3.656,7.145,-1.794
2026-06-11 16:30:43.867,3078983323,54867,2,1.03735,-0.12134,-0.08545,-0.145,2.809,1.992
2026-06-11 16:30:43.154,3078982610,55154,1,0.86084,0.12451,0.62549,-0.947,1.221,-1.55
2026-06-11 16:30:43.154,3078982610,55154,2,1.03882,-0.125,-0.07739,-2.397,-2.046,-0.023
2026-06-11 16:30:43.471,3078982927,55471,1,0.85596,0.14453,0.62842,0.863,2.496,3.374
2026-06-11 16:30:43.471,3078982927,55471,2,1.04321,-0.12256,-0.10107,-1.405,0.282,3.031
2026-06-11 16:30:44.707,3078984163,55707,1,0.87109,0.12354,0.604,-1.374,-1.519,0.824
2026-06-11 16:30:44.707,3078984163,55707,2,1.03833,-0.12476,-0.10864,-0.885,-2.351,1.015
2026-06-11 16:30:44.947,3078984403,55947,1,0.88037,0.13647,0.60791,0.015,1.649,-1.237
2026-06-11 16:30:44.947,3078984403,55947,2,1.02124,-0.12402,-0.11841,0.038,-0.168,1.313
2026-06-11 16:30:44.147,3078983603,56147,1,0.8877,0.13867,0.60938,-5.229,-0.252,-2.176
2026-06-11 16:30:44.147,3078983603,56147,2,1.0498,-0.1416,-0.1272,2.366,6.893,-0.626
2026-06-11 16:30:44.411,3078983867,56411,1,0.88306,0.12183,0.60742,-3.176,4.985,-5.221
2026-06-11 16:30:44.411,3078983867,56411,2,1.03296,-0.146,-0.08423,-1.969,5.382,0.382
2026-06-11 16:30:45.654,3078985110,56654,1,0.81396,0.15015,0.62109,-2.809,9.023,-2.13
2026-06-11 16:30:45.654,3078985110,56654,2,1.15405,0.14819,-0.21289,13.939,23.511,-8.824
2026-06-11 16:30:45.936,3078985392,56936,1,0.8645,0.17847,0.61523,-5.374,7.626,0.038
2026-06-11 16:30:45.936,3078985392,56936,2,1.03296,-0.05811,-0.19971,-41.351,-0.084,22.878
2026-06-11 16:30:45.171,3078984627,57171,1,0.77051,0.06006,0.43872,9.847,-4.718,5.458
2026-06-11 16:30:45.171,3078984627,57171,2,0.8999,-0.27246,-0.14697,-21.656,19.168,3.107
2026-06-11 16:30:45.371,3078984827,57371,1,0.87939,0.18115,0.55225,-2.412,-0.931,-4.092
2026-06-11 16:30:45.371,3078984827,57371,2,1.04956,0.05786,-0.13867,6.198,45.191,2.489
2026-06-11 16:30:46.571,3078986027,57571,1,0.927,0.22754,0.74512,3.969,3.725,1.756
2026-06-11 16:30:46.571,3078986027,57571,2,1.07886,-0.06519,-0.09839,38.733,24.214,1.618
2026-06-11 16:30:46.772,3078986228,57772,1,0.90479,0.17896,0.55518,4.55,-6.824,9.557
2026-06-11 16:30:46.772,3078986228,57772,2,1.03882,-0.08765,0.01953,9.458,4.634,8.786
2026-06-11 16:30:46.972,3078986428,57972,1,1.15039,0.04004,0.6936,27.885,25.137,23.305
2026-06-11 16:30:46.972,3078986428,57972,2,1.00171,-0.18286,-0.21851,35.183,-5.061,-4.695
2026-06-11 16:30:46.223,3078985679,58223,1,0.84595,0.15405,0.6167,1.618,5.763,3.046
2026-06-11 16:30:46.223,3078985679,58223,2,1.05078,-0.15771,-0.03613,1.366,1.641,-1.115
2026-06-11 16:30:46.423,3078985879,58423,1,0.81323,0.57642,1.17773,-20.191,13.267,-1.771
2026-06-11 16:30:46.423,3078985879,58423,2,1.24268,0.12329,0.33618,48.069,-3.252,26.84
2026-06-11 16:30:47.653,3078987109,58653,1,0.96729,0.58105,0.34009,111.977,-20.275,25.626
2026-06-11 16:30:47.653,3078987109,58653,2,1.05322,-0.19189,0.05347,48.634,18.809,-12.069
2026-06-11 16:30:47.927,3078987383,58927,1,0.74878,0.31079,-0.69214,83.13,-77.679,18.55
2026-06-11 16:30:47.927,3078987383,58927,2,1.00488,-0.13159,0.04932,7.901,1.084,-1.458
2026-06-11 16:30:47.127,3078986583,59127,1,1.02051,0.17163,-0.7627,-250.137,16.87,52.992
2026-06-11 16:30:47.127,3078986583,59127,2,1.22974,-0.10767,-0.02417,-78.603,-23.336,24.267
2026-06-11 16:30:47.327,3078986783,59327,1,1.01831,0.03857,0.36108,-174.702,69.504,78.916
2026-06-11 16:30:47.327,3078986783,59327,2,1.0957,-0.10815,-0.00073,-24.573,-14.626,7.534
2026-06-11 16:30:48.577,3078988033,59577,1,0.90991,-0.0835,0.52295,1.824,11.656,-18.641
2026-06-11 16:30:48.577,3078988033,59577,2,1.05103,-0.13135,0.00513,-4.351,2.191,6.603
2026-06-11 16:30:48.840,3078988296,59840,1,0.91187,-0.05786,0.56763,7.687,13.366,0.802
2026-06-11 16:30:48.840,3078988296,59840,2,1.06445,-0.13818,-0.00488,5.504,3.084,-2.611
2026-06-11 16:30:48.040,3078987496,60040,1,0.84399,0.04614,0.6438,37.878,-0.802,-17.168
2026-06-11 16:30:48.040,3078987496,60040,2,1.08228,0.00122,-0.05835,-10.618,7.489,7.221
2026-06-11 16:30:48.279,3078987735,60279,1,0.83398,0.04224,0.67627,66.672,19.282,15.198
2026-06-11 16:30:48.279,3078987735,60279,2,1.0249,-0.15479,-0.09106,14.183,7.534,-2.985
2026-06-11 16:30:48.502,3078987958,60502,1,0.93555,0.02271,0.59155,40.679,-0.008,13.519
2026-06-11 16:30:48.502,3078987958,60502,2,0.97852,-0.10815,-0.11694,11.962,22.221,-2.725
2026-06-11 16:30:49.702,3078989158,60702,1,0.85107,0.03247,0.59424,41.328,-12.092,-4.802
2026-06-11 16:30:49.702,3078989158,60702,2,1.00806,-0.2085,-0.00903,17.573,3.962,-0.145
2026-06-11 16:30:49.935,3078989391,60935,1,0.81372,0.15552,0.71436,26.107,-4.405,10.779
2026-06-11 16:30:49.935,3078989391,60935,2,1.01636,-0.1001,0.07397,12.252,-1.084,-3.656
2026-06-11 16:30:49.135,3078988591,61135,1,0.84619,0.08936,0.64307,-0.382,-2.878,-0.176
2026-06-11 16:30:49.135,3078988591,61135,2,1.04688,-0.13647,-0.01147,1.511,-3.153,1.45
2026-06-11 16:30:49.413,3078988869,61412,1,0.88892,0.09229,0.60327,2.412,-0.412,1.542
2026-06-11 16:30:49.413,3078988869,61412,2,0.9895,-0.12476,-0.19019,-58.0,-17.87,-5.954
2026-06-11 16:30:50.676,3078990132,61676,1,0.9209,0.12744,0.66284,9.573,14.13,7.099
2026-06-11 16:30:50.676,3078990132,61676,2,1.07813,-0.15625,-0.03198,-92.977,-13.885,38.969
2026-06-11 16:30:50.876,3078990332,61876,1,0.87744,0.09277,0.59521,-7.916,-15.565,-3.489
2026-06-11 16:30:50.876,3078990332,61876,2,0.91479,-0.16382,-0.50073,-20.87,-44.015,30.611
2026-06-11 16:30:50.076,3078989532,62076,1,0.94873,0.11426,0.52026,-1.046,-3.74,-0.13
2026-06-11 16:30:50.076,3078989532,62076,2,0.94214,-0.29419,-0.16162,53.527,6.145,-18.87
2026-06-11 16:30:50.304,3078989760,62304,1,0.91943,0.13184,0.52173,22.053,35.702,27.053
2026-06-11 16:30:50.304,3078989760,62304,2,1.01196,-0.3811,-0.09668,-8.756,-6.237,1.863
2026-06-11 16:30:51.571,3078991027,62571,1,0.91772,0.1106,0.55054,-1.557,2.542,0.275
2026-06-11 16:30:51.571,3078991027,62571,2,0.26489,-1.57813,-1.40845,-250.137,-141.237,155.145
2026-06-11 16:30:51.898,3078991354,62898,1,0.9165,0.11084,0.53564,0.107,-1.435,0.221
2026-06-11 16:30:51.898,3078991354,62898,2,0.99512,-0.23486,-0.15137,6.145,-1.023,
2026-06-11 16:30:51.149,3078990605,63149,1,0.9353,0.10425,0.48071,-4.481,-25.13,-1.389
2026-06-11 16:30:51.149,3078990605,63149,2,0.91943,-0.10596,-0.21167,-32.229,-28.519,18.603
2026-06-11 16:30:51.349,3078990805,63349,1,0.88843,0.13599,0.46606,-1.282,-13.504,-9.076
2026-06-11 16:30:51.349,3078990805,63349,2,0.99658,-0.09473,-0.08057,-11.809,-1.939,4.053
2026-06-11 16:30:52.611,3078992067,63611,1,1.02783,0.11792,0.37329,4.443,-4.626,4.817
2026-06-11 16:30:52.611,3078992067,63611,2,1.04102,-0.14844,-0.0647,0.603,7.809,-4.366
2026-06-11 16:30:52.811,3078992267,63811,1,1.04688,0.11499,0.31934,0.863,8.298,3.42
2026-06-11 16:30:52.811,3078992267,63811,2,1.01636,-0.021,0.31006,59.977,-4.0,-7.618
2026-06-11 16:30:52.054,3078991510,64054,1,0.9856,0.10376,0.42407,-9.496,-1.725,-8.145
2026-06-11 16:30:52.054,3078991510,64054,2,1.01099,-0.21191,-0.09717,8.534,3.221,-9.733
2026-06-11 16:30:52.256,3078991712,64256,1,0.96045,0.12598,0.45288,0.695,6.656,-2.687
2026-06-11 16:30:52.256,3078991712,64256,2,1.02832,-0.14014,-0.08423,18.42,6.504,-9.275
2026-06-11 16:30:52.456,3078991912,64456,1,0.98364,0.06396,0.40308,99.397,-76.023,57.885
2026-06-11 16:30:52.456,3078991912,64456,2,1.51318,-0.30469,0.07788,-25.366,-12.763,27.626
2026-06-11 16:30:53.683,3078993139,64683,1,0.95654,0.08618,0.33154,12.634,47.847,3.0
2026-06-11 16:30:53.683,3078993139,64683,2,1.06543,-0.15625,0.01099,-43.878,-39.84,5.916
2026-06-11 16:30:53.930,3078993386,64930,1,0.96997,0.09131,0.38208,-6.053,18.344,0.221
2026-06-11 16:30:53.930,3078993386,64930,2,1.04883,-0.16626,-0.11938,8.939,9.779,-9.305
2026-06-11 16:30:53.130,3078992586,65130,1,0.94678,0.0752,0.48022,-1.817,12.763,-0.366
2026-06-11 16:30:53.130,3078992586,65130,2,1.04102,-0.17236,-0.03613,-2.046,5.802,-3.954
2026-06-11 16:30:53.366,3078992822,65366,1,0.93701,0.07178,0.49854,-4.389,8.511,-4.84
2026-06-11 16:30:53.366,3078992822,65366,2,1.03857,-0.18066,-0.00586,-14.626,1.397,-2.092
2026-06-11 16:30:54.566,3078994022,65566,1,0.93799,0.07202,0.52026,-1.321,8.634,-0.107
2026-06-11 16:30:54.566,3078994022,65566,2,1.0686,-0.15137,0.01538,-7.015,9.504,2.397
2026-06-11 16:30:54.900,3078994356,65900,1,0.93506,0.10669,0.55078,8.458,20.092,-2.45
2026-06-11 16:30:54.900,3078994356,65900,2,1.03418,-0.13086,0.07104,-5.321,1.649,-9.618
2026-06-11 16:30:54.146,3078993602,66146,1,0.90112,0.07886,0.6106,7.107,-5.656,11.611
2026-06-11 16:30:54.146,3078993602,66146,2,1.03638,-0.06909,0.04883,5.076,-11.527,8.122
2026-06-11 16:30:54.346,3078993802,66346,1,0.89038,0.14087,0.57666,-5.0,-1.305,-1.55
2026-06-11 16:30:54.346,3078993802,66346,2,1.04907,-0.10278,-0.01172,-33.679,-4.977,-5.336
2026-06-11 16:30:55.546,3078995002,66546,1,0.96265,0.06128,0.57544,-37.26,0.58,-10.092
2026-06-11 16:30:55.546,3078995002,66546,2,1.09619,-0.27368,0.02393,-23.053,19.802,18.947
2026-06-11 16:30:55.746,3078995202,66746,1,0.85156,-0.07324,0.58521,-10.962,2.672,7.313
2026-06-11 16:30:55.746,3078995202,66746,2,1.03223,-0.31519,0.03174,-1.802,-4.298,10.397
2026-06-11 16:30:55.954,3078995410,66954,1,0.9043,-0.15405,0.50464,12.649,-14.725,5.382
2026-06-11 16:30:55.954,3078995410,66954,2,1.0813,-0.24023,-0.03125,-20.71,-13.191,-6.198
2026-06-11 16:30:55.154,3078994610,67154,1,0.93115,0.00049,0.48853,2.893,-1.84,-29.802
2026-06-11 16:30:55.154,3078994610,67154,2,0.97534,-0.24902,0.02588,43.405,3.153,11.244
2026-06-11 16:30:55.401,3078994857,67401,1,0.95215,0.10352,0.4624,50.183,16.435,14.786
2026-06-11 16:30:55.401,3078994857,67401,2,0.97314,-0.01807,-0.14575,23.542,-13.13,-18.176
2026-06-11 16:30:56.734,3078996190,67734,1,0.91138,0.28296,0.49658,20.511,-5.458,-0.573
2026-06-11 16:30:56.734,3078996190,67734,2,1.03564,-0.09644,-0.15234,-16.145,-12.519,5.618
2026-06-11 16:30:56.022,3078995478,68022,1,0.91602,0.25293,0.50049,-3.244,1.885,-0.382
2026-06-11 16:30:56.022,3078995478,68022,2,1.03247,-0.06641,-0.11035,4.122,4.893,-0.191
2026-06-11 16:30:56.222,3078995678,68222,1,0.96289,0.22437,0.46924,-5.389,4.275,-0.664
2026-06-11 16:30:56.222,3078995678,68222,2,1.0542,-0.125,-0.13428,-1.229,8.305,-0.656
2026-06-11 16:30:56.422,3078995878,68422,1,0.88525,0.27124,0.48853,-8.221,12.702,4.221
2026-06-11 16:30:56.422,3078995878,68422,2,1.02466,-0.13354,-0.09448,-28.878,4.427,20.405
2026-06-11 16:30:57.738,3078997194,68738,1,0.94019,0.15503,0.49854,-16.947,-3.13,-9.313
2026-06-11 16:30:57.738,3078997194,68738,2,1.07202,-0.12378,-0.14233,9.649,11.595,10.008
2026-06-11 16:30:57.967,3078997423,68967,1,0.96875,0.1311,0.49463,-6.137,-1.099,-11.443
2026-06-11 16:30:57.967,3078997423,68967,2,0.9751,-0.14893,-0.01611,-15.489,3.786,0.405
2026-06-11 16:30:57.290,3078996746,69290,1,0.91821,0.10913,0.39502,-11.115,6.656,2.527
2026-06-11 16:30:57.290,3078996746,69290,2,1.08447,-0.08667,-0.06396,5.13,4.122,-3.702
2026-06-11 16:30:57.519,3078996975,69519,1,0.90283,0.16772,0.52026,-0.992,7.466,4.069
2026-06-11 16:30:57.519,3078996975,69519,2,1.01929,-0.14551,-0.13721,7.725,3.427,2.153
2026-06-11 16:30:58.719,3078998175,69719,1,0.92383,0.15918,0.51733,4.511,3.634,5.412
2026-06-11 16:30:58.719,3078998175,69719,2,1.03394,-0.14038,-0.13135,2.321,-0.473,-1.626
2026-06-11 16:30:58.919,3078998375,69919,1,0.91846,0.16577,0.52148,1.0,3.74,2.305
2026-06-11 16:30:58.919,3078998375,69919,2,1.03223,-0.14038,-0.09277,1.931,2.298,-0.702
2026-06-11 16:30:58.218,3078997674,70218,1,0.9126,0.15039,0.51587,-0.565,2.282,-0.29
2026-06-11 16:30:58.218,3078997674,70218,2,1.03418,-0.1438,-0.09155,0.084,1.557,0.122
2026-06-11 16:30:58.418,3078997874,70418,1,0.93433,0.14429,0.52612,0.679,0.229,2.046
2026-06-11 16:30:58.418,3078997874,70418,2,1.03882,-0.13599,-0.08179,-0.557,2.168,0.42
2026-06-11 16:30:59.649,3078999105,70649,1,0.90698,0.17188,0.54443,-2.046,3.771,1.206
2026-06-11 16:30:59.649,3078999105,70649,2,1.0415,-0.13452,-0.09497,-1.557,4.13,2.168
2026-06-11 16:30:59.865,3078999321,70865,1,0.93604,0.12134,0.50879,-12.29,7.641,-0.687
2026-06-11 16:30:59.865,3078999321,70865,2,1.04883,-0.1416,-0.00342,-9.046,4.809,-0.779
2026-06-11 16:30:59.065,3078998521,71065,1,0.89038,0.16797,0.5437,-0.366,2.275,5.588
2026-06-11 16:30:59.065,3078998521,71065,2,1.06714,-0.14966,-0.04346,-8.473,4.389,3.26
2026-06-11 16:30:59.316,3078998772,71316,1,0.93872,0.10059,0.53052,-16.015,6.611,-3.443
2026-06-11 16:30:59.316,3078998772,71316,2,1.04663,-0.22583,-0.03833,-8.122,10.092,1.603
2026-06-11 16:31:00.544,3079000000,71544,1,0.91895,0.04419,0.53345,-5.359,-1.427,-2.687
2026-06-11 16:31:00.544,3079000000,71544,2,1.00952,-0.2207,-0.021,-0.542,-0.664,0.191
2026-06-11 16:31:00.744,3079000200,71744,1,0.93677,0.07593,0.54346,10.641,-0.214,3.137
2026-06-11 16:31:00.744,3079000200,71744,2,1.05713,-0.15918,-0.06519,5.336,-0.122,-2.382
2026-06-11 16:31:00.116,3078999572,72116,1,0.94653,0.16479,0.51074,0.168,0.916,5.069
2026-06-11 16:31:00.116,3078999572,72116,2,1.02686,-0.17139,-0.09302,-7.611,0.908,3.443
2026-06-11 16:31:00.316,3078999772,72316,1,0.91138,0.06982,0.54956,-2.985,-1.145,-2.282
2026-06-11 16:31:00.316,3078999772,72316,2,1.03735,-0.15723,-0.04419,1.473,3.107,-3.191
2026-06-11 16:31:00.516,3078999972,72516,1,0.91968,0.14795,0.52222,-9.878,-0.878,-7.687
2026-06-11 16:31:00.516,3078999972,72516,2,1.06006,-0.15625,-0.02539,-6.649,9.969,1.847
2026-06-11 16:31:01.746,3079001202,72746,1,0.88208,0.10156,0.56787,-4.84,12.534,-0.076
2026-06-11 16:31:01.746,3079001202,72746,2,1.03271,-0.16406,-0.07593,-1.542,1.824,-1.863
2026-06-11 16:31:01.078,3079000534,73078,1,0.91113,0.0686,0.56128,1.947,0.916,-0.74
2026-06-11 16:31:01.078,3079000534,73078,2,1.04639,-0.1897,-0.01636,1.183,-4.206,-0.588
2026-06-11 16:31:01.312,3079000768,73312,1,0.91724,0.08643,0.54077,14.878,2.107,7.954
2026-06-11 16:31:01.312,3079000768,73312,2,1.06226,-0.15356,-0.04248,20.573,-3.641,-4.939
2026-06-11 16:31:01.512,3079000968,73512,1,0.8855,0.06714,0.56616,8.267,2.725,3.42
2026-06-11 16:31:01.512,3079000968,73512,2,1.04443,-0.15405,-0.10303,3.107,2.496,2.496
2026-06-11 16:31:02.865,3079002321,73865,1,0.91528,0.1106,0.52856,-0.786,0.427,-1.046
2026-06-11 16:31:02.865,3079002321,73865,2,1.04102,-0.20142,-0.04346,1.893,-2.595,-7.237
2026-06-11 16:31:02.135,3079001591,74135,1,0.93628,0.05957,0.52417,8.611,-0.969,1.252
2026-06-11 16:31:02.135,3079001591,74135,2,1.06104,-0.18921,-0.06689,4.305,-1.763,0.221
2026-06-11 16:31:02.335,3079001791,74335,1,0.94141,0.1145,0.48047,12.328,12.885,1.519
2026-06-11 16:31:02.335,3079001791,74335,2,1.03003,-0.16748,-0.03979,21.0,15.679,8.061
2026-06-11 16:31:03.535,3079002991,74535,1,0.90308,0.14136,0.51904,10.366,8.977,3.924
2026-06-11 16:31:03.535,3079002991,74535,2,1.03491,-0.16968,-0.06934,6.725,-2.076,-5.756
2026-06-11 16:31:03.748,3079003204,74747,1,0.93237,0.14648,0.50757,15.756,7.122,3.908
2026-06-11 16:31:03.748,3079003204,74747,2,1.06396,-0.11816,-0.04639,16.725,6.206,-8.435
2026-06-11 16:31:03.947,3079003403,74947,1,0.89722,0.24976,0.54126,20.733,9.725,3.992
2026-06-11 16:31:03.947,3079003403,74947,2,0.99146,-0.09521,-0.07031,17.29,-6.443,-5.679
2026-06-11 16:31:03.165,3079002621,75165,1,0.9231,0.24121,0.52734,20.122,-4.038,10.389
2026-06-11 16:31:03.165,3079002621,75165,2,1.07373,-0.10913,-0.10645,9.954,1.832,2.366
2026-06-11 16:31:03.365,3079002821,75365,1,0.92065,0.20557,0.50781,4.863,6.718,4.282
2026-06-11 16:31:03.365,3079002821,75365,2,1.03955,-0.12524,-0.0835,4.969,-1.183,-4.511
2026-06-11 16:31:04.565,3079004021,75565,1,0.91235,0.17261,0.521,16.832,6.931,9.031
2026-06-11 16:31:04.565,3079004021,75565,2,1.02881,-0.06958,-0.10718,12.901,4.992,-4.641
2026-06-11 16:31:04.827,3079004283,75827,1,0.89795,0.23975,0.54028,-5.748,4.145,-2.725
2026-06-11 16:31:04.827,3079004283,75827,2,1.02905,-0.09399,-0.06592,-6.725,7.595,2.756
2026-06-11 16:31:04.027,3079003483,76027,1,0.85962,0.19458,0.54956,-6.427,1.26,3.527
2026-06-11 16:31:04.027,3079003483,76027,2,1.02783,-0.07837,-0.11084,-4.84,4.679,7.74
2026-06-11 16:31:04.227,3079003683,76227,1,0.95776,0.18872,0.48853,-19.527,-12.939,-4.321
2026-06-11 16:31:04.227,3079003683,76227,2,1.10474,-0.14551,-0.04199,-12.198,5.435,5.55
2026-06-11 16:31:04.448,3079003904,76448,1,0.91699,0.11792,0.48291,-40.137,28.756,-1.511
2026-06-11 16:31:04.448,3079003904,76448,2,1.08545,-0.20508,0.00586,-46.221,27.733,5.504
2026-06-11 16:31:05.648,3079005104,76648,1,0.80615,-0.07544,0.5957,-33.664,33.351,-15.015
2026-06-11 16:31:05.648,3079005104,76648,2,1.03564,-0.25879,0.11401,-15.954,35.733,-0.252
2026-06-11 16:31:05.848,3079005304,76848,1,0.80933,-0.12305,0.7041,13.038,12.855,1.511
2026-06-11 16:31:05.848,3079005304,76848,2,1.04712,-0.26709,0.17163,8.466,5.55,-11.252
2026-06-11 16:31:05.051,3079004507,77050,1,0.77295,0.04395,0.73315,34.366,13.031,14.779
2026-06-11 16:31:05.051,3079004507,77050,2,1.05005,0.01587,0.14307,37.0,5.252,-13.16
2026-06-11 16:31:05.278,3079004734,77278,1,0.72949,0.18042,0.76611,29.015,7.779,9.832
2026-06-11 16:31:05.278,3079004734,77278,2,1.04785,0.02954,0.02441,21.863,-11.206,-12.473
2026-06-11 16:31:05.521,3079004977,77521,1,0.74194,0.25635,0.68262,38.275,-14.557,11.87
2026-06-11 16:31:05.521,3079004977,77521,2,1.05737,0.05444,0.05469,19.802,-22.244,0.397
2026-06-11 16:31:06.721,3079006177,77721,1,0.86377,0.20825,0.62134,19.092,-0.595,7.565
2026-06-11 16:31:06.721,3079006177,77721,2,1.06738,0.06494,0.03076,6.099,-2.763,-5.351
2026-06-11 16:31:06.928,3079006384,77928,1,0.79932,0.21997,0.63892,6.702,2.305,1.031
2026-06-11 16:31:06.928,3079006384,77928,2,1.06396,0.04834,-0.00586,8.214,3.038,-2.031
2026-06-11 16:31:06.136,3079005592,78136,1,0.84619,0.2854,0.62256,4.206,-3.496,-3.809
2026-06-11 16:31:06.136,3079005592,78136,2,1.09985,0.10815,-0.00586,34.656,9.695,5.679
2026-06-11 16:31:06.336,3079005792,78336,1,0.82007,0.32031,0.60522,-18.031,4.603,-10.725
2026-06-11 16:31:06.336,3079005792,78336,2,1.08984,0.11938,-0.0188,-37.053,15.473,8.618
2026-06-11 16:31:07.569,3079007025,78569,1,0.82129,0.34155,0.58691,-56.076,32.244,-15.031
2026-06-11 16:31:07.569,3079007025,78569,2,1.073,0.02246,0.1604,-40.779,54.229,11.221
2026-06-11 16:31:07.782,3079007238,78782,1,0.60596,-0.0481,0.94312,-35.137,40.924,-2.542
2026-06-11 16:31:07.782,3079007238,78782,2,1.02441,-0.06152,0.38989,-35.641,31.168,-4.435
2026-06-11 16:31:07.064,3079006520,79064,1,0.45288,-0.16748,0.91602,-28.985,58.992,-10.382
2026-06-11 16:31:07.064,3079006520,79064,2,0.93091,-0.2146,0.47119,-8.351,47.435,-1.664
2026-06-11 16:31:07.264,3079006720,79264,1,0.29004,-0.22388,0.9353,-1.718,25.221,4.359
2026-06-11 16:31:07.264,3079006720,79264,2,0.54785,-0.02051,0.34497,32.046,9.053,-1.901
2026-06-11 16:31:07.488,3079006944,79488,1,0.34644,0.09814,0.89648,3.58,-14.679,-22.443
2026-06-11 16:31:07.488,3079006944,79488,2,0.82031,0.02441,0.46606,-14.977,-11.084,9.977
2026-06-11 16:31:08.688,3079008144,79688,1,0.36792,-0.03394,1.15063,22.802,-31.786,7.366
2026-06-11 16:31:08.688,3079008144,79688,2,1.19385,-0.00488,0.50073,-10.099,-46.344,5.305
2026-06-11 16:31:08.888,3079008344,79888,1,0.58716,-0.00122,1.02783,13.244,-60.313,-2.321
2026-06-11 16:31:08.888,3079008344,79888,2,1.24561,-0.02832,0.23242,16.542,-39.412,2.382
2026-06-11 16:31:08.135,3079007591,80135,1,0.88794,0.11768,0.96631,11.779,-15.313,1.603
2026-06-11 16:31:08.135,3079007591,80135,2,1.05859,-0.04614,0.08643,6.29,-6.389,-0.038
2026-06-11 16:31:08.335,3079007791,80335,1,0.69043,0.14795,0.71704,0.58,-6.55,-5.282
2026-06-11 16:31:08.335,3079007791,80335,2,1.0813,-0.03979,0.10156,2.542,-0.763,0.603
2026-06-11 16:31:09.535,3079008991,80535,1,0.7644,0.15576,0.77393,3.84,-0.229,2.336
2026-06-11 16:31:09.535,3079008991,80535,2,1.06128,-0.06445,0.06787,4.42,0.046,-0.878
2026-06-11 16:31:09.735,3079009191,80735,1,0.70923,0.13599,0.79761,-2.542,1.595,-1.573
2026-06-11 16:31:09.735,3079009191,80735,2,1.05054,-0.09448,0.09155,-8.595,-0.542,1.733
2026-06-11 16:31:09.935,3079009391,80935,1,0.74023,0.09399,0.77588,0.794,0.405,0.038
2026-06-11 16:31:09.935,3079009391,80935,2,1.09473,-0.12598,0.073,-11.099,4.885,-2.229
2026-06-11 16:31:09.135,3079008591,81135,1,0.82471,0.14331,0.79297,4.832,13.046,0.427
2026-06-11 16:31:09.135,3079008591,81135,2,1.23877,-0.08228,0.12549,-0.42,23.725,-8.656
2026-06-11 16:31:09.335,3079008791,81335,1,0.81738,0.14941,0.92749,7.794,43.832,0.84
2026-06-11 16:31:09.335,3079008791,81335,2,1.09814,0.01489,0.26514,6.397,29.069,-13.031
2026-06-11 16:31:10.562,3079010018,81562,1,0.59912,0.12671,0.99512,2.885,22.183,-1.84
2026-06-11 16:31:10.562,3079010018,81562,2,1.1709,0.09863,0.38428,-0.641,20.0,-13.595
2026-06-11 16:31:10.766,3079010222,81766,1,0.49341,0.22388,1.07373,-3.885,28.282,-1.603
2026-06-11 16:31:10.766,3079010222,81766,2,0.97388,0.04395,0.3999,-7.618,12.45,-14.573
2026-06-11 16:31:10.966,3079010422,81966,1,0.09155,0.18384,0.87305,-7.176,-3.038,0.412
2026-06-11 16:31:10.966,3079010422,81966,2,0.40845,0.08545,0.25366,-139.573,-60.748,-17.641
2026-06-11 16:31:10.166,3079009622,82166,1,0.55591,0.11914,0.6499,3.168,-84.145,-3.924
2026-06-11 16:31:10.166,3079009622,82166,2,1.11133,-0.00562,0.10986,7.939,-35.443,10.748
2026-06-11 16:31:10.415,3079009871,82415,1,0.88696,0.12915,0.5979,4.45,-26.725,-0.443
2026-06-11 16:31:10.415,3079009871,82415,2,1.09766,0.02148,-0.0415,-8.359,-15.366,3.229
2026-06-11 16:31:11.615,3079011071,82615,1,0.84814,0.19629,0.66382,-3.443,-4.176,8.267
2026-06-11 16:31:11.615,3079011071,82615,2,1.03711,0.02319,0.00659,1.092,6.748,6.756
2026-06-11 16:31:11.815,3079011271,82815,1,0.84888,0.13794,0.65479,-13.939,8.366,-2.427
2026-06-11 16:31:11.815,3079011271,82815,2,1.06299,-0.04834,0.03955,-16.328,32.092,7.885
2026-06-11 16:31:11.057,3079010513,83057,1,0.78955,-0.04346,0.70337,2.198,42.573,-1.038
2026-06-11 16:31:11.057,3079010513,83057,2,0.89697,-0.04126,0.30908,-19.374,35.298,-13.718
2026-06-11 16:31:11.360,3079010816,83360,1,0.31128,0.12573,0.7041,-11.427,49.038,0.374
2026-06-11 16:31:11.360,3079010816,83360,2,0.85278,0.08545,0.33765,3.672,38.458,0.183
2026-06-11 16:31:12.560,3079012016,83560,1,0.31714,0.15112,0.84253,11.74,-0.618,13.641
2026-06-11 16:31:12.560,3079012016,83560,2,0.88965,0.16553,0.3103,20.298,2.672,7.656
2026-06-11 16:31:12.760,3079012216,83760,1,0.50171,0.11719,1.13257,2.061,-31.29,-2.328
2026-06-11 16:31:12.760,3079012216,83760,2,1.2207,0.00635,0.33618,3.58,-44.13,16.466
2026-06-11 16:31:12.980,3079012436,83979,1,0.72754,0.14746,1.0271,2.878,-23.603,8.229
2026-06-11 16:31:12.980,3079012436,83979,2,1.26392,-0.02881,0.19727,20.977,-19.458,11.176
2026-06-11 16:31:12.179,3079011635,84179,1,0.81421,0.14966,0.81641,-7.046,-0.145,4.519
2026-06-11 16:31:12.179,3079011635,84179,2,0.93994,-0.12109,0.15259,-7.198,-3.038,4.328
2026-06-11 16:31:12.379,3079011835,84379,1,0.70435,0.06299,0.854,-6.176,-2.115,1.718
2026-06-11 16:31:12.379,3079011835,84379,2,1.10254,-0.02026,0.14136,6.29,10.015,-6.481
2026-06-11 16:31:13.629,3079013085,84629,1,0.6189,0.1311,0.85645,1.29,15.275,1.008
2026-06-11 16:31:13.629,3079013085,84629,2,1.07642,0.00903,0.2356,-5.786,12.527,-4.664
2026-06-11 16:31:13.963,3079013419,84962,1,0.67871,0.07446,1.15479,0.969,11.55,3.206
2026-06-11 16:31:13.963,3079013419,84962,2,1.51709,0.01343,0.45361,10.473,16.328,-6.634
2026-06-11 16:31:13.162,3079012618,85162,1,0.57764,0.10693,1.09399,12.275,19.313,5.458
2026-06-11 16:31:13.162,3079012618,85162,2,0.91064,0.03857,0.36353,-15.313,-6.893,1.26
2026-06-11 16:31:14.548,3079014004,85548,1,0.32275,0.04639,0.78687,-9.519,-30.718,-13.473
2026-06-11 16:31:14.548,3079014004,85548,2,0.71338,-0.00977,0.26025,-9.046,-34.977,16.275
2026-06-11 16:31:14.748,3079014204,85748,1,0.51782,0.02148,0.65698,4.405,-51.069,2.366
2026-06-11 16:31:14.748,3079014204,85748,2,1.02051,-0.03955,0.1333,9.321,-43.977,17.374
2026-06-11 16:31:14.077,3079013533,86077,1,0.85864,0.18921,0.60205,21.725,-27.168,-1.718
2026-06-11 16:31:14.077,3079013533,86077,2,1.03394,-0.05737,-0.07935,14.542,-21.282,-1.977
2026-06-11 16:31:14.302,3079013758,86302,1,0.89526,0.25781,0.5061,5.954,-26.702,1.321
2026-06-11 16:31:14.302,3079013758,86302,2,0.98804,-0.02124,-0.15942,2.847,-24.443,6.206
2026-06-11 16:31:14.502,3079013958,86502,1,0.9895,0.22437,0.42017,9.634,-0.45,5.855
2026-06-11 16:31:14.502,3079013958,86502,2,1.02686,-0.05542,-0.21753,-4.817,-9.969,-8.183
2026-06-11 16:31:15.702,3079015158,86702,1,0.927,0.25317,0.47437,3.42,-3.069,4.565
2026-06-11 16:31:15.702,3079015158,86702,2,1.01147,-0.04614,-0.22461,-3.359,-3.053,0.519
2026-06-11 16:31:15.018,3079014474,87018,1,0.96802,0.19946,0.44067,0.282,0.244,-1.206
2026-06-11 16:31:15.018,3079014474,87018,2,1.01929,-0.08154,-0.2312,2.168,2.496,-5.221
2026-06-11 16:31:15.218,3079014674,87218,1,0.93652,0.19897,0.45557,-0.145,11.679,3.031
2026-06-11 16:31:15.218,3079014674,87218,2,1.0144,-0.09985,-0.22241,11.427,10.588,-1.725
2026-06-11 16:31:15.418,3079014874,87418,1,0.92798,0.20313,0.49512,5.489,5.336,3.366
2026-06-11 16:31:15.418,3079014874,87418,2,1.02002,-0.09302,-0.17822,6.351,6.092,-1.26
2026-06-11 16:31:16.656,3079016112,87656,1,0.94849,0.19849,0.47876,-8.198,7.26,1.366
2026-06-11 16:31:16.656,3079016112,87656,2,1.05762,-0.08496,-0.15479,8.351,20.573,-7.221
2026-06-11 16:31:16.856,3079016312,87856,1,0.92188,0.17969,0.51978,-18.0,25.725,-3.664
2026-06-11 16:31:16.856,3079016312,87856,2,1.05908,-0.11206,0.00024,-19.916,45.275,-0.58
2026-06-11 16:31:16.100,3079015556,88100,1,0.84668,0.03589,0.61646,-20.855,43.847,-2.794
2026-06-11 16:31:16.100,3079015556,88100,2,1.17383,-0.0481,0.11597,-31.198,54.176,-31.496
2026-06-11 16:31:16.310,3079015766,88310,1,0.71045,-0.06299,0.61523,-0.183,85.878,1.557
2026-06-11 16:31:16.310,3079015766,88310,2,1.03882,0.10205,0.20947,38.405,81.359,-42.29
2026-06-11 16:31:16.510,3079015966,88510,1,0.24121,0.17603,0.66895,-26.092,142.13,8.779
2026-06-11 16:31:16.510,3079015966,88510,2,0.82886,0.32202,0.54761,-22.16,118.824,-34.282
2026-06-11 16:31:17.715,3079017171,88714,1,-0.28613,-0.12573,1.146,-31.885,156.183,6.664
2026-06-11 16:31:17.715,3079017171,88714,2,0.45898,0.2168,0.875,0.771,90.985,-22.954
2026-06-11 16:31:17.914,3079017370,88914,1,-0.70728,-0.08423,1.0769,-5.519,50.038,-2.038
2026-06-11 16:31:17.914,3079017370,88914,2,0.32617,0.2666,1.04639,-2.313,13.115,4.023
2026-06-11 16:31:17.114,3079016570,89114,1,-0.58398,-0.15356,0.9248,-5.687,-11.069,0.702
2026-06-11 16:31:17.114,3079016570,89114,2,0.48608,0.24268,0.98999,-1.115,4.008,-1.275
2026-06-11 16:31:17.400,3079016856,89400,1,-0.58545,-0.12061,0.89478,0.099,6.763,-3.046
2026-06-11 16:31:17.400,3079016856,89400,2,0.41455,0.25342,1.0022,-3.641,5.656,-1.656
2026-06-11 16:31:18.600,3079018056,89600,1,-0.62329,-0.16992,1.02344,6.947,-19.153,-3.076
2026-06-11 16:31:18.600,3079018056,89600,2,0.46533,0.2583,1.03149,-0.832,-39.328,12.847
2026-06-11 16:31:18.830,3079018286,89829,1,-0.40967,-0.09863,1.10815,14.71,-86.252,-2.634
2026-06-11 16:31:18.830,3079018286,89829,2,0.7373,0.21973,0.76245,-24.626,-83.313,24.931
2026-06-11 16:31:18.029,3079017485,90029,1,0.00049,0.0249,1.01074,20.725,-130.55,1.969
2026-06-11 16:31:18.029,3079017485,90029,2,0.96729,0.05542,0.46021,-34.908,-106.229,27.626
2026-06-11 16:31:18.229,3079017685,90229,1,0.41504,0.11255,0.73828,28.443,-117.076,0.237
2026-06-11 16:31:18.229,3079017685,90229,2,1.09473,-0.08398,0.18896,-36.519,-93.931,-5.336
2026-06-11 16:31:18.524,3079017980,90524,1,0.9397,0.11206,0.5332,6.008,-51.473,-20.878
2026-06-11 16:31:18.524,3079017980,90524,2,1.02124,-0.11621,-0.06494,-53.267,-42.366,-22.817
2026-06-11 16:31:19.724,3079019180,90724,1,0.98462,0.17529,0.45728,-11.832,-22.985,-6.901
2026-06-11 16:31:19.724,3079019180,90724,2,1.09473,0.00732,-0.10571,-30.534,-7.954,-5.336
2026-06-11 16:31:19.924,3079019380,90924,1,0.95557,0.15918,0.49146,-9.023,16.672,0.527
2026-06-11 16:31:19.924,3079019380,90924,2,1.09424,-0.04834,-0.04102,23.832,26.458,1.557
2026-06-11 16:31:19.124,3079018580,91124,1,1.06885,0.11426,0.38599,-14.542,63.656,2.962
2026-06-11 16:31:19.124,3079018580,91124,2,0.99438,-0.12842,0.02686,76.252,99.29,-9.405
2026-06-11 16:31:19.324,3079018780,91324,1,0.50488,0.12842,0.86255,1.26,133.405,22.832
2026-06-11 16:31:19.324,3079018780,91324,2,0.9187,-0.05835,0.28027,4.481,100.435,-20.412
2026-06-11 16:31:19.524,3079018980,91524,1,-0.05005,-0.0083,1.10547,-21.176,131.58,3.374
2026-06-11 16:31:19.524,3079018980,91524,2,0.70557,0.13452,0.81152,19.824,92.153,-13.679
2026-06-11 16:31:20.724,3079020180,91724,1,-0.42212,-0.13379,1.18921,-20.832,75.092,1.649
2026-06-11 16:31:20.724,3079020180,91724,2,0.65161,0.15576,0.84961,25.611,64.191,-12.053
2026-06-11 16:31:20.043,3079019499,92043,1,-0.4209,-0.12305,0.97778,1.237,19.183,6.122
2026-06-11 16:31:20.043,3079019499,92043,2,0.58472,0.17407,0.93823,7.015,17.771,-0.992
2026-06-11 16:31:20.243,3079019699,92243,1,-0.40234,-0.146,0.86987,-4.153,21.489,-2.733
2026-06-11 16:31:20.243,3079019699,92243,2,0.31689,0.23535,1.08301,1.939,6.221,0.031
2026-06-11 16:31:20.443,3079019899,92443,1,-0.51563,-0.19019,0.95068,12.824,-19.878,1.427
2026-06-11 16:31:20.443,3079019899,92443,2,0.52393,0.24097,0.95288,-3.588,-24.221,9.588
2026-06-11 16:31:21.643,3079021099,92643,1,-0.43066,-0.05542,1.02222,2.908,-38.145,-6.84
2026-06-11 16:31:21.643,3079021099,92643,2,0.6377,0.14966,0.93335,-5.763,-54.969,12.45
2026-06-11 16:31:21.843,3079021299,92843,1,-0.32593,-0.00586,1.13159,23.954,-98.198,4.023
2026-06-11 16:31:21.843,3079021299,92843,2,0.84814,0.06128,0.58057,-11.672,-104.031,30.351
2026-06-11 16:31:21.055,3079020511,93054,1,0.25977,0.04468,0.87622,-1.794,-137.748,4.802
2026-06-11 16:31:21.055,3079020511,93054,2,1.04004,-0.18506,-0.02075,4.405,-26.328,-1.115
2026-06-11 16:31:22.011,3079021467,94011,1,0.9873,0.0498,0.47974,-4.267,-5.947,0.832
2026-06-11 16:31:22.011,3079021467,94011,2,1.02783,-0.21509,-0.14429,11.214,12.336,-4.061
2026-06-11 16:31:22.413,3079021869,94413,1,0.90967,0.05957,0.56934,2.603,16.756,3.443
2026-06-11 16:31:22.413,3079021869,94413,2,0.98853,-0.20898,-0.09033,4.771,9.74,-2.198
2026-06-11 16:31:23.613,3079023069,94613,1,0.89526,0.02417,0.58569,7.718,-2.214,0.115
2026-06-11 16:31:23.613,3079023069,94613,2,1.00171,-0.18237,-0.11084,-9.214,4.847,-4.031
2026-06-11 16:31:23.975,3079023431,94975,1,0.95166,0.12817,0.48511,-2.695,4.924,-1.069
2026-06-11 16:31:23.975,3079023431,94975,2,1.02588,-0.1438,-0.13867,-3.664,6.427,-9.0
2026-06-11 16:31:24.533,3079023989,95533,1,0.93774,0.15161,0.52612,2.985,5.603,-0.771
2026-06-11 16:31:24.533,3079023989,95533,2,1.04663,-0.07593,-0.09814,9.305,6.901,-5.55
2026-06-11 16:31:24.758,3079024214,95758,1,0.8999,0.14526,0.54761,6.771,5.168,3.031
2026-06-11 16:31:24.758,3079024214,95758,2,1.02686,-0.11353,-0.09424,-4.84,-1.305,-3.359
2026-06-11 16:31:24.958,3079024414,95958,1,0.94141,0.16626,0.5481,4.023,0.473,8.588
2026-06-11 16:31:24.958,3079024414,95958,2,1.0376,-0.14282,-0.08472,-5.908,2.947,4.519
2026-06-11 16:31:24.345,3079023801,96344,1,0.91382,0.07788,0.56885,-4.977,4.588,2.855
2026-06-11 16:31:24.345,3079023801,96344,2,1.04492,-0.15039,-0.06885,6.26,11.42,0.084
2026-06-11 16:31:25.686,3079025142,96686,1,0.87158,0.0564,0.60913,-2.26,7.023,-2.015
2026-06-11 16:31:25.686,3079025142,96686,2,1.03979,-0.15942,-0.04321,5.069,5.84,-1.855
2026-06-11 16:31:25.000,3079024456,97000,1,0.8833,0.0708,0.6001,2.458,0.244,-0.015
2026-06-11 16:31:25.000,3079024456,97000,2,1.01978,-0.16602,-0.07129,-2.893,-10.023,4.687
2026-06-11 16:31:25.364,3079024820,97364,1,0.94238,0.09375,0.52051,-0.069,-17.718,-1.069
2026-06-11 16:31:25.364,3079024820,97364,2,1.04736,-0.18384,-0.15527,-0.305,-4.206,3.618
2026-06-11 16:31:26.666,3079026122,97666,1,0.94507,0.08765,0.48511,5.305,0.634,4.053
2026-06-11 16:31:26.666,3079026122,97666,2,1.01416,-0.17798,-0.17798,10.504,-1.824,-6.145
2026-06-11 16:31:26.931,3079026387,97931,1,0.96606,0.08032,0.47217,18.634,7.16,13.115
2026-06-11 16:31:26.931,3079026387,97931,2,1.00195,-0.18237,-0.20117,16.641,7.641,-10.382
2026-06-11 16:31:26.295,3079025751,98295,1,0.94385,0.00562,0.49658,-0.74,2.321,13.664
2026-06-11 16:31:26.295,3079025751,98295,2,0.99805,-0.27832,-0.14746,-5.107,4.389,8.641
2026-06-11 16:31:27.889,3079027345,98889,1,0.94775,-0.08423,0.46802,-12.695,0.397,1.969
2026-06-11 16:31:27.889,3079027345,98889,2,0.98755,-0.33154,-0.12549,-12.145,0.924,7.099
2026-06-11 16:31:27.128,3079026584,99128,1,0.9751,-0.10913,0.46631,-3.939,-0.237,-0.282
2026-06-11 16:31:27.128,3079026584,99128,2,0.99731,-0.32031,-0.13989,1.328,0.26,-0.092
2026-06-11 16:31:28.721,3079028177,99721,1,0.96899,-0.10303,0.43628,0.725,3.893,1.969
2026-06-11 16:31:28.721,3079028177,99721,2,0.98779,-0.33032,-0.14722,-7.771,2.71,-1.824
2026-06-11 16:31:28.106,3079027562,100106,1,0.95166,-0.09277,0.4624,-2.794,5.458,-1.664
2026-06-11 16:31:28.106,3079027562,100106,2,0.99048,-0.31689,-0.12378,-0.71,1.855,-3.321
2026-06-11 16:31:28.491,3079027947,100491,1,0.94946,-0.07227,0.4873,2.107,1.031,-3.962
2026-06-11 16:31:28.491,3079027947,100491,2,0.99561,-0.29199,-0.13086,0.802,-0.237,-3.107
2026-06-11 16:31:29.823,3079029279,100823,1,0.95117,-0.04907,0.47681,2.466,1.756,1.611
2026-06-11 16:31:29.823,3079029279,100823,2,1.00195,-0.28906,-0.1438,2.718,0.992,0.802
2026-06-11 16:31:29.185,3079028641,101185,1,0.95386,-0.06689,0.47192,2.603,3.573,4.29
2026-06-11 16:31:29.185,3079028641,101185,2,1.00391,-0.28101,-0.14893,3.321,5.71,-1.924
2026-06-11 16:31:30.580,3079030036,101580,1,0.9856,-0.04614,0.49268,0.405,10.176,2.481
2026-06-11 16:31:30.580,3079030036,101580,2,1.04883,-0.21216,-0.04028,-1.84,39.305,-3.038
2026-06-11 16:31:30.885,3079030341,101885,1,0.84277,-0.15894,0.59668,-29.504,29.71,-8.863
2026-06-11 16:31:30.885,3079030341,101885,2,1.01001,-0.29565,0.06201,-19.168,20.351,-1.038
2026-06-11 16:31:30.379,3079029835,102379,1,0.85498,-0.16553,0.61255,21.382,-22.473,-16.626
2026-06-11 16:31:30.379,3079029835,102379,2,1.00952,-0.27563,0.00879,-0.107,-33.115,-14.397
2026-06-11 16:31:31.579,3079031035,102579,1,0.95898,0.01904,0.48145,22.031,-18.336,-13.16
2026-06-11 16:31:31.579,3079031035,102579,2,1.04224,-0.25244,-0.09326,5.931,-14.733,5.817
2026-06-11 16:31:31.896,3079031352,102896,1,1.00171,0.0769,0.45166,9.229,4.511,7.13
2026-06-11 16:31:31.896,3079031352,102896,2,1.05835,-0.18335,-0.13843,31.092,11.771,-6.656
2026-06-11 16:31:31.228,3079030684,103228,1,0.94604,0.10254,0.50049,30.229,27.038,9.847
2026-06-11 16:31:31.228,3079030684,103228,2,0.99805,-0.14038,-0.17139,28.252,3.122,-28.664
2026-06-11 16:31:31.428,3079030884,103428,1,0.87451,0.1814,0.56299,25.534,4.924,-0.71
2026-06-11 16:31:31.428,3079030884,103428,2,1.03125,-0.03906,-0.15942,1.84,-6.985,-7.565
2026-06-11 16:31:32.704,3079032160,103703,1,0.91382,0.23096,0.50269,-4.756,-8.092,-7.206
2026-06-11 16:31:32.704,3079032160,103703,2,1.02051,-0.05249,-0.17969,-13.084,-13.481,5.206
2026-06-11 16:31:32.985,3079032441,103985,1,0.92163,0.22876,0.51416,-11.198,-2.847,1.565
2026-06-11 16:31:32.985,3079032441,103985,2,1.04468,-0.08789,-0.21411,-12.588,-7.443,6.824
2026-06-11 16:31:32.199,3079031655,104199,1,0.90088,0.13574,0.52124,6.313,25.45,16.42
2026-06-11 16:31:32.199,3079031655,104199,2,1.04248,-0.12378,-0.0376,-17.473,15.893,-8.29
2026-06-11 16:31:33.538,3079032994,104538,1,0.85376,0.04419,0.62524,-12.0,9.115,-1.595
2026-06-11 16:31:33.538,3079032994,104538,2,1.0603,-0.16309,0.02979,-6.275,6.053,1.458
2026-06-11 16:31:33.830,3079033286,104830,1,0.94946,0.04028,0.60156,-15.031,16.069,-4.718
2026-06-11 16:31:33.830,3079033286,104830,2,1.03613,-0.26294,0.11206,-0.076,36.55,-17.466
2026-06-11 16:31:33.040,3079032496,105040,1,0.73315,,0.76953,24.107,41.641,19.389
2026-06-11 16:31:33.040,3079032496,105040,2,1.07202,0.06836,0.22363,25.878,13.557,-11.252
2026-06-11 16:31:33.491,3079032947,105491,1,0.61816,0.16895,0.8877,20.664,10.244,7.466
2026-06-11 16:31:33.491,3079032947,105491,2,1.05225,0.14697,0.18677,11.733,-1.107,-3.397
2026-06-11 16:31:33.491,3079032947,105491,2,1.05225,0.14697,0.18677,11.733,-1.107,-3.397
2026-06-11 16:31:39.847,3079039303,110847,1,0.85571,0.31714,0.87817,7.206,-20.71,10.031
2026-06-11 16:31:39.847,3079039303,110847,2,0.94019,-0.18506,0.01367,-7.802,17.832,-0.137
2026-06-11 16:31:44.188,3079043644,116188,1,-0.11108,0.00513,1.06299,-0.351,1.031,1.74
2026-06-11 16:31:44.188,3079043644,116188,2,0.78491,0.31738,0.91675,-0.504,-4.084,7.099
2026-06-11 16:31:46.384,3079045840,118384,1,0.07446,-0.12988,1.07495,-4.649,-93.13,-13.748
2026-06-11 16:31:46.384,3079045840,118384,2,0.9624,-0.01245,0.2312,-30.626,-81.84,34.527
2026-06-11 16:31:47.786,3079047242,118785,1,0.80786,0.05713,0.57275,-11.26,-72.42,-37.229
2026-06-11 16:31:47.786,3079047242,118785,2,1.13184,-0.39673,0.09229,-22.191,10.069,14.29
2026-06-11 16:31:53.897,3079053353,124897,1,0.9856,0.11523,0.3938,-40.145,0.008,-12.046
2026-06-11 16:31:53.897,3079053353,124897,2,0.88892,-0.19702,-0.2937,-159.244,-3.504,77.351
2026-06-11 16:31:56.703,3079056159,127703,1,0.84424,0.16284,0.38867,-87.183,49.885,-22.16
2026-06-11 16:31:56.703,3079056159,127703,2,0.77368,-0.45679,0.00098,-96.427,34.176,40.511
2026-06-11 16:31:56.055,3079055511,128055,1,0.94897,-0.41992,0.57129,-44.42,8.069,-10.74
2026-06-11 16:31:56.055,3079055511,128055,2,0.93921,-0.48462,0.00562,6.137,-1.458,-22.473
2026-06-11 16:31:56.420,3079055876,128419,1,0.94092,-0.16992,0.46997,8.74,20.908,-24.534
2026-06-11 16:31:56.420,3079055876,128419,2,1.32373,-0.30396,0.18823,32.092,24.26,-29.649
2026-06-11 16:31:57.815,3079057271,128815,1,0.59253,0.2793,0.60962,29.603,32.275,-7.168
2026-06-11 16:31:57.815,3079057271,128815,2,1.12842,0.09814,0.02417,-5.588,34.198,10.809
2026-06-11 16:31:57.037,3079056493,129037,1,0.70703,0.19507,0.73975,-31.847,0.458,-19.481
2026-06-11 16:31:57.037,3079056493,129037,2,0.77271,-0.1499,0.06372,-66.511,-0.351,42.695
2026-06-11 16:31:58.664,3079058120,129664,1,0.76758,-0.20654,0.60889,-14.42,20.573,39.687
2026-06-11 16:31:58.664,3079058120,129664,2,1.06738,-0.28979,0.21851,47.573,31.305,-9.443
