datetime,epoch_ms,ts_millis,mpu_id,ax,ay,az,gx,gy,gz
2026-06-26T15:44:54.874230,,,,,,,,,
2026-06-26T15:46:57.493276,,,,,,,,,
2026-06-26 15:46:57.674,77389834,5674,1,0.9397,0.12671,0.51367,-3.71,-7.351,-1.527
2026-06-26 15:46:57.674,77389834,5674,2,0.8606,-0.14282,-0.47241,13.061,-0.626,-1.947
2026-06-26 15:46:57.920,77390080,5919,1,0.948,0.12207,0.48218,5.137,-0.023,9.382
2026-06-26 15:46:57.920,77390080,5919,2,0.88086,-0.0874,-0.49097,1.595,6.947,-2.511
2026-06-26 15:46:58.250,77390410,6250,1,0.93066,0.10229,0.5144,4.45,5.565,2.328
2026-06-26 15:46:58.250,77390410,6250,2,0.88721,-0.12231,-0.46655,2.641,3.244,-2.603
2026-06-26 15:46:58.621,77390781,6621,1,0.91553,0.10547,0.53613,4.038,4.282,0.656
2026-06-26 15:46:58.621,77390781,6621,2,0.89697,-0.10693,-0.46387,-3.092,-1.634,0.298
2026-06-26 15:46:58.821,77390981,6821,1,0.91382,0.11719,0.53076,-0.214,2.931,-2.305
2026-06-26 15:46:58.821,77390981,6821,2,0.88647,-0.11719,-0.46802,-5.427,0.679,1.71
2026-06-26 15:46:59.065,77391225,7065,1,0.91943,0.14941,0.51953,-5.573,-0.863,-6.244
2026-06-26 15:46:59.065,77391225,7065,2,0.88403,-0.10767,-0.4856,-10.779,0.267,6.817
2026-06-26 15:46:59.265,77391425,7265,1,0.93018,0.12988,0.50659,-5.183,-0.023,-4.893
2026-06-26 15:46:59.265,77391425,7265,2,0.88452,-0.1145,-0.479,-8.42,3.023,2.557
2026-06-26 15:46:59.465,77391625,7465,1,0.91699,0.14453,0.51514,-1.374,1.573,-1.847
2026-06-26 15:46:59.465,77391625,7465,2,0.87866,-0.11011,-0.49658,1.008,1.336,-0.069
2026-06-26 15:46:59.772,77391932,7772,1,0.92163,0.14941,0.50488,0.901,2.672,1.908
2026-06-26 15:46:59.772,77391932,7772,2,0.8689,-0.11743,-0.4856,3.733,-0.771,-0.038
2026-06-26 15:47:00.004,77392164,8004,1,0.93408,0.13281,0.50537,3.092,2.176,3.038
2026-06-26 15:47:00.004,77392164,8004,2,0.87744,-0.13281,-0.48413,3.42,1.74,-2.489
2026-06-26 15:47:00.252,77392412,8252,1,0.92896,0.13623,0.5144,5.901,3.832,5.954
2026-06-26 15:47:00.252,77392412,8252,2,0.88159,-0.12842,-0.48486,7.954,3.702,-2.756
2026-06-26 15:47:00.452,77392612,8452,1,0.91553,0.11475,0.52197,3.824,2.122,2.679
2026-06-26 15:47:00.452,77392612,8452,2,0.87524,-0.12476,-0.48608,0.84,0.534,-2.076
2026-06-26 15:47:00.652,77392812,8652,1,0.93628,0.11841,0.51245,5.962,1.824,1.695
2026-06-26 15:47:00.652,77392812,8652,2,0.88013,-0.12891,-0.48804,2.763,-0.267,-2.45
2026-06-26 15:47:00.912,77393072,8912,1,0.93408,0.12354,0.50562,3.939,2.328,2.611
2026-06-26 15:47:00.912,77393072,8912,2,0.87329,-0.12695,-0.47412,6.87,6.076,-3.221
2026-06-26 15:47:01.112,77393272,9112,1,0.92432,0.1189,0.50146,0.198,6.115,2.58
2026-06-26 15:47:01.112,77393272,9112,2,0.87524,-0.1189,-0.47168,4.481,6.458,-0.878
2026-06-26 15:47:01.312,77393472,9312,1,0.9292,0.10815,0.51636,-2.443,5.214,-1.122
2026-06-26 15:47:01.312,77393472,9312,2,0.88477,-0.12915,-0.46973,0.939,1.748,0.298
2026-06-26 15:47:01.512,77393672,9512,1,0.91821,0.12573,0.52588,0.511,3.267,-0.977
2026-06-26 15:47:01.512,77393672,9512,2,0.88818,-0.14355,-0.46777,-1.351,2.168,-0.275
2026-06-26 15:47:01.712,77393872,9712,1,0.91284,0.12158,0.52637,0.504,4.16,-0.084
2026-06-26 15:47:01.712,77393872,9712,2,0.88086,-0.13135,-0.47656,1.511,2.168,-2.244
2026-06-26 15:47:01.912,77394072,9912,1,0.91699,0.12573,0.52148,0.435,1.496,-0.565
2026-06-26 15:47:01.912,77394072,9912,2,0.8894,-0.12549,-0.4751,1.466,2.359,-1.878
2026-06-26 15:47:02.192,77394352,10191,1,0.90039,0.12842,0.54834,0.359,2.725,-0.885
2026-06-26 15:47:02.192,77394352,10191,2,0.88965,-0.10791,-0.47949,-0.756,-4.344,4.16
2026-06-26 15:47:02.425,77394585,10425,1,0.927,0.11694,0.51855,-7.74,2.74,-2.603
2026-06-26 15:47:02.425,77394585,10425,2,0.8606,-0.14819,-0.48242,-3.29,-0.191,4.542
2026-06-26 15:47:02.917,77395077,10917,1,0.92993,0.11255,0.50781,3.893,0.977,2.985
2026-06-26 15:47:02.917,77395077,10917,2,0.8645,-0.14941,-0.49829,7.137,3.809,-2.74
2026-06-26 15:47:03.201,77395361,11201,1,0.91919,0.09766,0.53247,1.252,1.061,0.664
2026-06-26 15:47:03.201,77395361,11201,2,0.87134,-0.16431,-0.49097,0.893,2.046,-1.313
2026-06-26 15:47:03.418,77395578,11418,1,0.92285,0.10669,0.51904,2.176,3.397,1.328
2026-06-26 15:47:03.418,77395578,11418,2,0.87695,-0.15625,-0.49219,2.916,3.809,-1.672
2026-06-26 15:47:03.618,77395778,11618,1,0.9231,0.11426,0.50952,0.145,3.504,-0.466
2026-06-26 15:47:03.618,77395778,11618,2,0.87036,-0.15649,-0.49487,1.718,2.145,-1.397
2026-06-26 15:47:03.838,77395998,11838,1,0.91626,0.12939,0.51611,1.473,1.84,-1.359
2026-06-26 15:47:03.838,77395998,11838,2,0.85791,-0.11719,-0.47876,-1.282,0.84,-0.893
2026-06-26 15:47:04.154,77396314,12154,1,0.92554,0.11987,0.50488,1.176,0.733,-0.832
2026-06-26 15:47:04.154,77396314,12154,2,0.88086,-0.13208,-0.49097,3.511,2.84,-2.221
2026-06-26 15:47:04.434,77396594,12434,1,0.93506,0.10889,0.51489,4.061,4.519,1.473
2026-06-26 15:47:04.434,77396594,12434,2,0.87427,-0.14307,-0.47534,2.908,3.794,-3.924
2026-06-26 15:47:04.634,77396794,12634,1,0.90942,0.12988,0.52539,5.206,6.374,2.26
2026-06-26 15:47:04.634,77396794,12634,2,0.875,-0.14087,-0.47314,9.595,5.153,-5.992
2026-06-26 15:47:05.000,77397160,13000,1,0.90161,0.11548,0.54956,7.473,2.427,3.863
2026-06-26 15:47:05.000,77397160,13000,2,0.89136,-0.13232,-0.46924,2.802,0.641,-2.397
2026-06-26 15:47:05.204,77397364,13203,1,0.91113,0.13135,0.53076,3.023,3.611,2.305
2026-06-26 15:47:05.204,77397364,13203,2,0.87866,-0.12939,-0.47583,2.244,1.458,-0.71
2026-06-26 15:47:05.403,77397563,13403,1,0.91846,0.11401,0.53369,-2.45,1.29,-1.023
2026-06-26 15:47:05.403,77397563,13403,2,0.8833,-0.1377,-0.47168,-0.336,1.084,0.832
2026-06-26 15:47:05.611,77397771,13611,1,0.91113,0.12012,0.5293,1.031,1.626,0.176
2026-06-26 15:47:05.611,77397771,13611,2,0.87622,-0.13062,-0.47339,-2.84,-0.168,-0.053
2026-06-26 15:47:05.811,77397971,13811,1,0.91284,0.12476,0.52832,-0.038,1.397,-0.504
2026-06-26 15:47:05.811,77397971,13811,2,0.87549,-0.13062,-0.48315,-2.496,-1.168,1.359
2026-06-26 15:47:06.011,77398171,14011,1,0.91895,0.12134,0.51831,1.0,0.786,0.45
2026-06-26 15:47:06.011,77398171,14011,2,0.88135,-0.14746,-0.48096,-2.374,0.076,0.595
2026-06-26 15:47:06.211,77398371,14211,1,0.92261,0.12329,0.52075,0.786,1.053,1.336
2026-06-26 15:47:06.211,77398371,14211,2,0.86768,-0.13428,-0.48218,-2.053,-0.214,1.733
2026-06-26 15:47:06.411,77398571,14411,1,0.92554,0.12329,0.51001,-1.771,0.756,-1.824
2026-06-26 15:47:06.411,77398571,14411,2,0.86694,-0.15039,-0.49438,-1.954,1.145,1.511
2026-06-26 15:47:06.611,77398771,14611,1,0.92603,0.11084,0.50562,-0.046,1.649,-1.107
2026-06-26 15:47:06.611,77398771,14611,2,0.86841,-0.14282,-0.48755,-0.298,1.221,-0.855
2026-06-26 15:47:06.811,77398971,14811,1,0.927,0.1228,0.51001,2.031,1.679,0.55
2026-06-26 15:47:06.811,77398971,14811,2,0.87231,-0.14307,-0.48755,1.947,2.427,-1.832
2026-06-26 15:47:07.011,77399171,15011,1,0.92969,0.12354,0.50537,1.824,2.71,0.863
2026-06-26 15:47:07.011,77399171,15011,2,0.86768,-0.13354,-0.48682,2.977,2.695,-1.443
2026-06-26 15:47:07.244,77399404,15244,1,0.92603,0.12524,0.51367,1.084,2.748,0.626
2026-06-26 15:47:07.244,77399404,15244,2,0.87158,-0.13525,-0.49878,0.511,1.244,-0.489
2026-06-26 15:47:07.444,77399604,15444,1,0.92358,0.12354,0.50781,0.649,1.908,0.031
2026-06-26 15:47:07.444,77399604,15444,2,0.87036,-0.13647,-0.49463,-0.511,1.053,-0.244
2026-06-26 15:47:07.644,77399804,15644,1,0.9314,0.12451,0.50879,0.794,1.802,0.534
2026-06-26 15:47:07.644,77399804,15644,2,0.87524,-0.14722,-0.49292,0.481,1.481,-0.649
2026-06-26 15:47:07.881,77400041,15880,1,0.927,0.12256,0.5061,1.344,2.221,0.695
2026-06-26 15:47:07.881,77400041,15880,2,0.8689,-0.13672,-0.50757,1.458,1.214,-0.885
2026-06-26 15:47:08.080,77400240,16080,1,0.92773,0.11694,0.50269,1.107,2.374,0.679
2026-06-26 15:47:08.080,77400240,16080,2,0.87134,-0.12939,-0.5,1.191,2.344,-0.672
2026-06-26 15:47:08.288,77400448,16288,1,0.92822,0.12671,0.50464,-0.359,1.969,-0.672
2026-06-26 15:47:08.288,77400448,16288,2,0.86719,-0.14526,-0.49072,-0.664,1.206,0.771
2026-06-26 15:47:08.488,77400648,16488,1,0.93628,0.13062,0.5022,-0.336,2.16,-0.74
2026-06-26 15:47:08.488,77400648,16488,2,0.87207,-0.13013,-0.48535,1.29,3.069,-0.947
2026-06-26 15:47:08.688,77400848,16688,1,0.92212,0.12793,0.50244,-0.939,1.71,-1.29
2026-06-26 15:47:08.688,77400848,16688,2,0.87207,-0.13721,-0.49097,-1.878,0.504,1.374
2026-06-26 15:47:08.888,77401048,16888,1,0.93188,0.13135,0.51538,0.176,1.679,-0.282
2026-06-26 15:47:08.888,77401048,16888,2,0.87842,-0.14063,-0.49561,1.672,2.55,-1.466
2026-06-26 15:47:09.088,77401248,17088,1,0.92065,0.13696,0.49976,-0.031,3.328,-0.382
2026-06-26 15:47:09.088,77401248,17088,2,0.86475,-0.13672,-0.49561,0.916,1.733,1.74
2026-06-26 15:47:09.288,77401448,17288,1,0.91528,0.12988,0.50977,-2.198,2.71,-1.664
2026-06-26 15:47:09.288,77401448,17288,2,0.86938,-0.15161,-0.48804,-2.687,-1.0,2.603
2026-06-26 15:47:09.558,77401718,17558,1,0.91724,0.12476,0.50659,2.374,3.267,3.336
2026-06-26 15:47:09.558,77401718,17558,2,0.86719,-0.13599,-0.48682,4.076,1.931,-1.053
2026-06-26 15:47:09.802,77401962,17802,1,0.92285,0.11743,0.51221,1.489,2.489,1.0
2026-06-26 15:47:09.802,77401962,17802,2,0.86792,-0.14478,-0.50146,-0.702,1.015,-0.916
2026-06-26 15:47:10.002,77402162,18002,1,0.92627,0.11938,0.50781,1.595,1.405,0.008
2026-06-26 15:47:10.002,77402162,18002,2,0.86353,-0.14746,-0.49194,-2.763,0.656,-0.046
2026-06-26 15:47:10.257,77402417,18257,1,0.92871,0.125,0.49731,-0.763,0.206,-1.992
2026-06-26 15:47:10.257,77402417,18257,2,0.86572,-0.14136,-0.49536,-2.0,0.718,0.809
2026-06-26 15:47:10.488,77402648,18488,1,0.92969,0.12329,0.49487,-1.153,1.366,-0.733
2026-06-26 15:47:10.488,77402648,18488,2,0.86597,-0.13721,-0.51245,0.542,0.565,0.618
2026-06-26 15:47:10.688,77402848,18688,1,0.92603,0.14502,0.50171,-0.832,2.595,-0.496
2026-06-26 15:47:10.688,77402848,18688,2,0.854,-0.12085,-0.51587,1.282,1.397,0.504
2026-06-26 15:47:10.888,77403048,18888,1,0.92627,0.12134,0.49805,2.145,3.076,1.275
2026-06-26 15:47:10.888,77403048,18888,2,0.86255,-0.14893,-0.49219,1.443,1.336,-1.573
2026-06-26 15:47:11.088,77403248,19088,1,0.92798,0.1272,0.4895,1.084,3.176,1.832
2026-06-26 15:47:11.088,77403248,19088,2,0.85132,-0.14355,-0.49731,3.748,2.374,-0.206
2026-06-26 15:47:11.288,77403448,19288,1,0.92334,0.1228,0.49438,0.756,2.099,1.031
2026-06-26 15:47:11.288,77403448,19288,2,0.86157,-0.14771,-0.50854,-0.336,-0.015,-0.191
2026-06-26 15:47:11.488,77403648,19488,1,0.93359,0.11938,0.49414,1.672,1.885,0.924
2026-06-26 15:47:11.488,77403648,19488,2,0.85889,-0.15454,-0.50098,1.458,1.702,-0.427
2026-06-26 15:47:11.689,77403849,19689,1,0.93408,0.12354,0.49512,0.58,2.489,0.817
2026-06-26 15:47:11.689,77403849,19689,2,0.85571,-0.14087,-0.50781,0.794,2.901,-0.931
2026-06-26 15:47:11.889,77404049,19889,1,0.93433,0.12671,0.5,-0.435,3.038,-0.275
2026-06-26 15:47:11.889,77404049,19889,2,0.86426,-0.14722,-0.50366,-1.985,1.557,0.58
2026-06-26 15:47:12.089,77404249,20089,1,0.92749,0.11768,0.5,1.496,3.069,0.412
2026-06-26 15:47:12.089,77404249,20089,2,0.86157,-0.14624,-0.49683,-0.947,0.214,-0.214
2026-06-26 15:47:12.373,77404533,20373,1,0.92896,0.12329,0.50024,0.504,2.603,0.527
2026-06-26 15:47:12.373,77404533,20373,2,0.85571,-0.1394,-0.49829,-0.748,2.183,-0.573
2026-06-26 15:47:12.573,77404733,20573,1,0.93164,0.12549,0.51245,-0.221,2.176,0.313
2026-06-26 15:47:12.573,77404733,20573,2,0.86206,-0.15796,-0.49756,-1.496,0.87,0.359
2026-06-26 15:47:12.773,77404933,20773,1,0.92407,0.11572,0.50391,0.092,2.565,0.282
2026-06-26 15:47:12.773,77404933,20773,2,0.8623,-0.14844,-0.49927,0.969,2.076,-0.969
2026-06-26 15:47:13.973,77406133,20973,1,0.92603,0.12622,0.49829,0.336,2.206,0.145
2026-06-26 15:47:13.973,77406133,20973,2,0.86011,-0.14478,-0.48901,1.031,1.382,-0.45
2026-06-26 15:47:13.202,77405362,21202,1,0.92749,0.11938,0.49121,0.313,2.29,0.542
2026-06-26 15:47:13.202,77405362,21202,2,0.86621,-0.14185,-0.49731,-0.031,0.733,-0.252
2026-06-26 15:47:13.402,77405562,21402,1,0.92871,0.12256,0.49658,1.489,1.847,-0.099
2026-06-26 15:47:13.402,77405562,21402,2,0.86084,-0.14331,-0.50781,-2.794,0.916,-0.206
2026-06-26 15:47:13.602,77405762,21602,1,0.93311,0.125,0.49634,0.84,1.947,-0.565
2026-06-26 15:47:13.602,77405762,21602,2,0.86157,-0.1377,-0.50635,-0.389,0.557,0.115
2026-06-26 15:47:13.802,77405962,21802,1,0.93628,0.12695,0.49219,1.076,1.916,0.16
2026-06-26 15:47:13.802,77405962,21802,2,0.85864,-0.13965,-0.50781,-0.351,2.305,-0.328
2026-06-26 15:47:14.044,77406204,22044,1,0.93872,0.1167,0.49341,-1.191,3.481,0.656
2026-06-26 15:47:14.044,77406204,22044,2,0.85962,-0.13574,-0.5105,1.458,1.931,-0.573
2026-06-26 15:47:14.253,77406413,22253,1,0.92578,0.11841,0.50073,1.443,2.687,1.702
2026-06-26 15:47:14.253,77406413,22253,2,0.86255,-0.15283,-0.49951,0.634,1.74,-0.733
2026-06-26 15:47:14.453,77406613,22453,1,0.93701,0.11328,0.50122,0.817,2.26,1.237
2026-06-26 15:47:14.453,77406613,22453,2,0.8584,-0.1499,-0.50024,1.817,3.069,-0.985
2026-06-26 15:47:14.699,77406859,22699,1,0.93091,0.11743,0.4939,0.359,3.802,0.756
2026-06-26 15:47:14.699,77406859,22699,2,0.86328,-0.14355,-0.50293,2.786,3.748,-0.466
2026-06-26 15:47:14.899,77407059,22899,1,0.92993,0.11841,0.49902,-0.191,2.611,-1.046
2026-06-26 15:47:14.899,77407059,22899,2,0.86035,-0.14697,-0.50122,-0.412,0.153,-0.511
2026-06-26 15:47:15.099,77407259,23099,1,0.92578,0.12524,0.49292,3.321,2.137,0.74
2026-06-26 15:47:15.099,77407259,23099,2,0.87085,-0.14136,-0.51196,0.115,0.649,-0.969
2026-06-26 15:47:15.299,77407459,23299,1,0.92749,0.11841,0.49829,1.122,2.405,0.55
2026-06-26 15:47:15.299,77407459,23299,2,0.86011,-0.14063,-0.49829,1.756,2.771,-1.87
2026-06-26 15:47:15.499,77407659,23499,1,0.93555,0.13159,0.49585,1.038,1.939,0.023
2026-06-26 15:47:15.499,77407659,23499,2,0.86792,-0.14355,-0.50366,-1.084,1.13,1.771
2026-06-26 15:47:15.699,77407859,23699,1,0.92871,0.11353,0.49487,-0.443,3.153,0.649
2026-06-26 15:47:15.699,77407859,23699,2,0.86279,-0.1438,-0.49292,2.847,2.366,-1.16
2026-06-26 15:47:15.899,77408059,23899,1,0.92603,0.11084,0.50146,1.099,2.863,1.389
2026-06-26 15:47:15.899,77408059,23899,2,0.86548,-0.15259,-0.48804,0.947,2.16,-0.634
2026-06-26 15:47:16.099,77408259,24099,1,0.92993,0.12134,0.51099,1.298,2.924,0.74
2026-06-26 15:47:16.099,77408259,24099,2,0.87183,-0.14233,-0.48608,-0.336,1.863,-0.099
2026-06-26 15:47:16.299,77408459,24299,1,0.92065,0.11206,0.50317,0.092,2.71,0.206
2026-06-26 15:47:16.299,77408459,24299,2,0.8667,-0.14893,-0.50635,-1.931,0.008,-0.26
2026-06-26 15:47:16.499,77408659,24499,1,0.93896,0.11768,0.50146,1.275,2.099,0.206
2026-06-26 15:47:16.499,77408659,24499,2,0.86255,-0.14185,-0.49658,-0.634,1.183,-0.695
2026-06-26 15:47:16.699,77408859,24699,1,0.92676,0.11865,0.5083,1.092,2.191,0.122
2026-06-26 15:47:16.699,77408859,24699,2,0.86816,-0.14575,-0.49707,0.672,1.443,-0.519
2026-06-26 15:47:16.899,77409059,24899,1,0.93726,0.1123,0.49268,1.313,2.656,0.473
2026-06-26 15:47:16.899,77409059,24899,2,0.86987,-0.14014,-0.48853,1.382,2.618,-0.336
2026-06-26 15:47:17.130,77409290,25130,1,0.92749,0.12183,0.49609,-0.221,2.603,0.176
2026-06-26 15:47:17.130,77409290,25130,2,0.87085,-0.14453,-0.49805,-0.504,1.351,0.496
2026-06-26 15:47:17.330,77409490,25330,1,0.92725,0.11841,0.5061,0.824,2.397,0.718
2026-06-26 15:47:17.330,77409490,25330,2,0.86694,-0.14502,-0.48706,2.382,1.954,-1.382
2026-06-26 15:47:17.530,77409690,25530,1,0.92896,0.12378,0.4939,1.107,2.176,0.718
2026-06-26 15:47:17.530,77409690,25530,2,0.86572,-0.14941,-0.49023,0.603,2.069,-0.237
2026-06-26 15:47:17.800,77409960,25800,1,0.92871,0.11255,0.50146,0.084,1.969,0.061
2026-06-26 15:47:17.800,77409960,25800,2,0.86792,-0.14014,-0.49512,-1.13,0.45,0.344
2026-06-26 15:47:18.000,77410160,26000,1,0.93237,0.11475,0.50171,0.573,2.046,0.382
2026-06-26 15:47:18.000,77410160,26000,2,0.86792,-0.14966,-0.49536,0.237,0.504,-0.069
2026-06-26 15:47:18.200,77410360,26200,1,0.92798,0.11035,0.49512,1.542,2.435,1.336
2026-06-26 15:47:18.200,77410360,26200,2,0.85645,-0.14087,-0.49878,3.855,1.672,-1.237
2026-06-26 15:47:18.400,77410560,26400,1,0.93628,0.10889,0.50049,1.824,3.008,1.542
2026-06-26 15:47:18.400,77410560,26400,2,0.86597,-0.1521,-0.49023,3.832,2.374,-0.756
2026-06-26 15:47:18.600,77410760,26600,1,0.93579,0.10547,0.50439,0.595,3.664,1.649
2026-06-26 15:47:18.600,77410760,26600,2,0.85645,-0.15283,-0.48975,3.344,4.656,-0.618
2026-06-26 15:47:18.800,77410960,26800,1,0.93311,0.11548,0.50122,0.015,3.344,0.863
2026-06-26 15:47:18.800,77410960,26800,2,0.86841,-0.1543,-0.47339,-0.198,1.687,0.542
2026-06-26 15:47:19.000,77411160,27000,1,0.92896,0.10498,0.5127,-0.107,3.099,-0.099
2026-06-26 15:47:19.000,77411160,27000,2,0.86768,-0.15625,-0.48657,-1.282,1.718,-0.115
2026-06-26 15:47:19.223,77411383,27222,1,0.92383,0.10815,0.50977,-0.221,1.939,-0.298
2026-06-26 15:47:19.223,77411383,27222,2,0.87451,-0.16016,-0.4834,0.519,0.565,-0.748
2026-06-26 15:47:19.437,77411597,27436,1,0.92871,0.10767,0.51025,1.611,1.702,0.87
2026-06-26 15:47:19.437,77411597,27436,2,0.86792,-0.15771,-0.48047,-0.977,0.534,0.13
2026-06-26 15:47:19.636,77411796,27636,1,0.93359,0.09863,0.49902,-0.031,1.634,0.489
2026-06-26 15:47:19.636,77411796,27636,2,0.87866,-0.15649,-0.4812,-0.573,1.992,-0.122
2026-06-26 15:47:19.836,77411996,27836,1,0.93164,0.09937,0.49902,1.0,1.725,0.504
2026-06-26 15:47:19.836,77411996,27836,2,0.87354,-0.15552,-0.48779,-0.649,0.84,-0.176
2026-06-26 15:47:20.036,77412196,28036,1,0.92456,0.09863,0.50977,1.389,2.534,0.237
2026-06-26 15:47:20.036,77412196,28036,2,0.86768,-0.16406,-0.47949,1.351,1.87,-1.336
2026-06-26 15:47:20.236,77412396,28236,1,0.93091,0.09717,0.49536,1.397,2.168,0.244
2026-06-26 15:47:20.236,77412396,28236,2,0.87256,-0.16504,-0.49658,-0.198,1.527,-0.427
2026-06-26 15:47:20.444,77412604,28443,1,0.9375,0.10303,0.50171,1.015,2.115,0.16
2026-06-26 15:47:20.444,77412604,28443,2,0.87378,-0.14795,-0.49438,-3.015,-0.634,-1.275
2026-06-26 15:47:20.711,77412871,28711,1,0.92798,0.07861,0.50488,-1.214,-6.191,1.672
2026-06-26 15:47:20.711,77412871,28711,2,0.87524,-0.09766,-0.50757,-12.244,4.092,4.687
2026-06-26 15:47:21.991,77414151,28991,1,0.96509,0.09033,0.41919,-32.763,-20.779,-23.496
2026-06-26 15:47:21.991,77414151,28991,2,0.81201,-0.14722,-0.5564,-29.275,-4.405,7.473
2026-06-26 15:47:21.206,77413366,29206,1,0.99707,0.11572,0.3606,2.931,-8.733,-9.45
2026-06-26 15:47:21.206,77413366,29206,2,0.83301,-0.18945,-0.53662,6.191,3.908,-8.794
2026-06-26 15:47:21.422,77413582,29422,1,0.99512,0.20483,0.34741,23.87,6.137,2.137
2026-06-26 15:47:21.422,77413582,29422,2,0.81982,-0.15918,-0.53711,8.893,6.534,-10.13
2026-06-26 15:47:21.622,77413782,29622,1,0.99561,0.26001,0.31152,26.053,3.718,10.076
2026-06-26 15:47:21.622,77413782,29622,2,0.83789,-0.13623,-0.52905,14.214,-8.015,-5.985
2026-06-26 15:47:21.866,77414026,29866,1,1.04004,0.2063,0.30713,9.748,-1.466,4.099
2026-06-26 15:47:21.866,77414026,29866,2,0.86792,-0.21777,-0.47998,19.924,13.336,-17.298
2026-06-26 15:47:22.077,77414237,30077,1,0.98022,0.18408,0.3313,19.229,0.656,15.031
2026-06-26 15:47:22.077,77414237,30077,2,0.88135,-0.15698,-0.44531,29.015,3.809,-15.038
2026-06-26 15:47:22.277,77414437,30277,1,0.8562,0.13281,0.35205,-27.145,33.656,9.893
2026-06-26 15:47:22.277,77414437,30277,2,0.85645,-0.08398,-0.45361,-26.305,0.634,17.076
2026-06-26 15:47:22.477,77414637,30477,1,0.9624,0.33325,0.55176,-21.122,0.733,8.527
2026-06-26 15:47:22.477,77414637,30477,2,0.8689,-0.11597,-0.48047,-40.901,-14.718,18.305
2026-06-26 15:47:22.677,77414837,30677,1,1.15747,0.00049,0.77637,87.435,86.878,83.038
2026-06-26 15:47:22.677,77414837,30677,2,0.8064,-0.12573,-0.46191,93.198,-13.55,-61.084
2026-06-26 15:47:22.877,77415037,30877,1,1.06201,0.09302,0.35718,34.084,-8.29,11.878
2026-06-26 15:47:22.877,77415037,30877,2,0.76709,-0.24756,-0.52441,-12.771,-15.069,13.435
2026-06-26 15:47:23.151,77415311,31151,1,1.05713,0.19824,0.3147,-53.916,-10.725,10.282
2026-06-26 15:47:23.151,77415311,31151,2,0.77954,-0.27295,-0.61743,-9.611,-13.779,9.74
2026-06-26 15:47:23.401,77415561,31401,1,1.10132,-0.1333,0.1438,-65.145,45.779,-18.313
2026-06-26 15:47:23.401,77415561,31401,2,0.79688,-0.27344,-0.56079,38.321,-2.305,-20.038
2026-06-26 15:47:23.601,77415761,31601,1,0.98877,0.12256,0.36499,7.649,-1.519,-7.084
2026-06-26 15:47:23.601,77415761,31601,2,0.78931,-0.27417,-0.5769,-4.924,-6.374,4.771
2026-06-26 15:47:23.801,77415961,31801,1,0.99414,0.20605,0.37842,0.26,4.786,-1.237
2026-06-26 15:47:23.801,77415961,31801,2,0.77002,-0.22559,-0.57275,3.595,6.061,-1.092
2026-06-26 15:47:24.046,77416206,32046,1,0.96338,0.17236,0.40894,-5.748,8.58,0.382
2026-06-26 15:47:24.046,77416206,32046,2,0.76489,-0.21924,-0.59424,-3.412,3.344,-0.87
2026-06-26 15:47:24.284,77416444,32284,1,0.95361,0.1875,0.44189,1.397,6.282,-4.168
2026-06-26 15:47:24.284,77416444,32284,2,0.78076,-0.22754,-0.57642,-2.084,3.718,-0.863
2026-06-26 15:47:24.484,77416644,32484,1,0.93213,0.19531,0.4519,-7.076,5.26,-1.817
2026-06-26 15:47:24.484,77416644,32484,2,0.78467,-0.21973,-0.58423,-2.519,1.87,0.511
2026-06-26 15:47:24.684,77416844,32684,1,0.95166,0.18408,0.47754,-19.901,-7.382,3.015
2026-06-26 15:47:24.684,77416844,32684,2,0.7998,-0.23022,-0.58691,-10.183,-1.45,3.489
2026-06-26 15:47:24.884,77417044,32884,1,0.95972,0.11938,0.40039,-13.443,-0.702,2.267
2026-06-26 15:47:24.884,77417044,32884,2,0.78418,-0.21875,-0.57178,-0.595,0.244,0.626
2026-06-26 15:47:25.084,77417244,33084,1,1.07739,0.25879,0.0188,5.405,-13.931,8.687
2026-06-26 15:47:25.084,77417244,33084,2,0.8269,-0.23071,-0.57446,-1.214,-2.863,-14.13
2026-06-26 15:47:25.284,77417444,33284,1,0.94043,0.21655,0.375,38.382,0.771,8.985
2026-06-26 15:47:25.284,77417444,33284,2,0.81396,-0.11523,-0.58032,-20.924,-0.863,-2.298
2026-06-26 15:47:25.484,77417644,33484,1,0.94458,0.104,0.44775,-16.015,10.687,0.458
2026-06-26 15:47:25.484,77417644,33484,2,0.71021,-0.15869,-0.49512,12.13,16.969,-1.641
2026-06-26 15:47:25.689,77417849,33689,1,0.99683,0.16431,0.37183,-13.847,8.695,-1.275
2026-06-26 15:47:25.689,77417849,33689,2,0.78442,-0.14722,-0.57251,-7.412,3.718,7.84
2026-06-26 15:47:25.889,77418049,33889,1,0.95117,0.13257,0.44482,2.206,7.718,1.511
2026-06-26 15:47:25.889,77418049,33889,2,0.80078,-0.14087,-0.51587,2.458,8.214,-4.084
2026-06-26 15:47:26.131,77418291,34131,1,0.98535,0.12769,0.40454,-15.565,-3.992,-6.763
2026-06-26 15:47:26.131,77418291,34131,2,0.8208,-0.14575,-0.59082,-11.092,3.473,11.847
2026-06-26 15:47:26.402,77418562,34402,1,0.95776,0.10474,0.43726,-17.328,2.786,-5.069
2026-06-26 15:47:26.402,77418562,34402,2,0.79736,-0.14551,-0.56152,-0.321,1.328,5.702
2026-06-26 15:47:26.602,77418762,34602,1,0.96704,0.10059,0.44775,-5.519,4.191,-0.344
2026-06-26 15:47:26.602,77418762,34602,2,0.8147,-0.1853,-0.57324,13.282,5.824,-8.725
2026-06-26 15:47:26.802,77418962,34802,1,0.96826,0.11353,0.44312,5.298,4.397,2.183
2026-06-26 15:47:26.802,77418962,34802,2,0.83447,-0.18945,-0.53174,3.115,4.031,-6.076
2026-06-26 15:47:27.002,77419162,35002,1,0.93848,0.1272,0.44824,2.687,7.405,5.099
2026-06-26 15:47:27.002,77419162,35002,2,0.85278,-0.16455,-0.51123,3.076,5.466,-3.824
2026-06-26 15:47:27.202,77419362,35202,1,0.9082,0.19873,0.48071,20.221,28.55,9.573
2026-06-26 15:47:27.202,77419362,35202,2,0.78662,-0.15161,-0.50659,-41.824,-38.168,18.076
2026-06-26 15:47:27.402,77419562,35402,1,1.09937,-0.22949,0.39941,-119.282,-34.634,45.542
2026-06-26 15:47:27.402,77419562,35402,2,0.77881,-0.14819,-0.44653,-13.786,-6.504,19.87
2026-06-26 15:47:27.644,77419804,35644,1,0.94238,-0.11133,0.32397,60.252,30.786,17.55
2026-06-26 15:47:27.644,77419804,35644,2,0.86353,-0.22241,-0.48486,5.893,-7.389,-8.908
2026-06-26 15:47:27.844,77420004,35844,1,0.90552,-0.06689,0.35864,63.573,-17.214,-44.87
2026-06-26 15:47:27.844,77420004,35844,2,0.84521,-0.2019,-0.53442,-14.466,-2.695,9.16
2026-06-26 15:47:28.044,77420204,36044,1,1.03955,0.12622,0.41504,12.733,30.664,20.183
2026-06-26 15:47:28.044,77420204,36044,2,0.82568,-0.17554,-0.54541,16.122,4.053,-7.008
2026-06-26 15:47:28.289,77420449,36289,1,0.96094,0.12012,0.41016,7.13,5.626,4.229
2026-06-26 15:47:28.289,77420449,36289,2,0.8208,-0.18213,-0.5481,-0.176,0.023,1.519
2026-06-26 15:47:28.489,77420649,36489,1,0.97583,0.08813,0.45068,2.0,8.053,4.29
2026-06-26 15:47:28.489,77420649,36489,2,0.8208,-0.17358,-0.54419,5.893,3.16,-4.496
2026-06-26 15:47:28.711,77420871,36711,1,0.9624,0.08936,0.46533,-2.153,-0.496,-1.053
2026-06-26 15:47:28.711,77420871,36711,2,0.83081,-0.18433,-0.54028,3.443,1.817,-3.053
2026-06-26 15:47:28.911,77421071,36911,1,0.94971,0.0896,0.45068,2.626,-1.534,-0.481
2026-06-26 15:47:28.911,77421071,36911,2,0.81665,-0.1731,-0.5498,2.305,-0.809,-1.649
2026-06-26 15:47:29.114,77421274,37114,1,0.94629,0.08545,0.44971,1.519,1.435,0.252
2026-06-26 15:47:29.114,77421274,37114,2,0.82324,-0.1792,-0.54761,-2.87,-0.519,0.641
2026-06-26 15:47:29.314,77421474,37314,1,0.9563,0.09521,0.45776,-0.153,2.832,1.565
2026-06-26 15:47:29.314,77421474,37314,2,0.81616,-0.17578,-0.55957,0.649,0.771,-1.053
2026-06-26 15:47:29.514,77421674,37514,1,0.99731,0.1665,0.49658,23.023,-31.679,-23.786
2026-06-26 15:47:29.514,77421674,37514,2,0.78491,-0.16406,-0.55518,-1.687,2.588,1.176
2026-06-26 15:47:29.714,77421874,37714,1,0.87183,-0.00415,0.96265,-29.786,5.183,2.214
2026-06-26 15:47:29.714,77421874,37714,2,0.80859,-0.13867,-0.55591,-18.885,-8.481,2.634
2026-06-26 15:47:29.914,77422074,37914,1,0.96021,0.10327,0.38232,9.969,5.29,0.969
2026-06-26 15:47:29.914,77422074,37914,2,0.79053,-0.16138,-0.53369,6.244,-0.794,-3.198
2026-06-26 15:47:30.114,77422274,38114,1,0.97559,0.12305,0.39941,17.153,-1.824,2.832
2026-06-26 15:47:30.114,77422274,38114,2,0.81079,-0.15454,-0.52612,-3.42,1.664,1.595
2026-06-26 15:47:30.374,77422534,38374,1,0.95117,0.146,0.39087,18.267,-3.87,9.924
2026-06-26 15:47:30.374,77422534,38374,2,0.7937,-0.10913,-0.57031,3.229,-0.176,-0.588
2026-06-26 15:47:30.574,77422734,38574,1,0.97485,0.12451,0.39624,-2.435,4.031,-1.748
2026-06-26 15:47:30.574,77422734,38574,2,0.81104,-0.15625,-0.57129,0.901,3.473,-1.183
2026-06-26 15:47:30.774,77422934,38774,1,0.96118,0.1167,0.41968,2.336,3.893,1.626
2026-06-26 15:47:30.774,77422934,38774,2,0.81055,-0.14209,-0.58154,4.611,3.565,-2.16
2026-06-26 15:47:31.974,77424134,38974,1,0.96362,0.12573,0.42114,1.397,0.885,0.305
2026-06-26 15:47:31.974,77424134,38974,2,0.80933,-0.1416,-0.56519,0.595,-0.45,-0.947
2026-06-26 15:47:31.174,77423334,39174,1,0.98267,0.11792,0.4209,-1.153,0.168,-0.672
2026-06-26 15:47:31.174,77423334,39174,2,0.79834,-0.14844,-0.53467,6.687,-0.977,-3.824
2026-06-26 15:47:31.374,77423534,39374,1,0.99878,0.19629,0.3877,4.542,-2.0,1.214
2026-06-26 15:47:31.374,77423534,39374,2,0.79614,-0.17065,-0.56104,-0.137,8.023,-3.229
2026-06-26 15:47:31.601,77423761,39601,1,0.97803,0.1521,0.39746,-1.908,5.374,0.656
2026-06-26 15:47:31.601,77423761,39601,2,0.80933,-0.15186,-0.57495,-1.344,7.26,-4.145
2026-06-26 15:47:31.801,77423961,39801,1,0.97437,0.12769,0.4104,-3.664,4.496,-0.244
2026-06-26 15:47:31.801,77423961,39801,2,0.81348,-0.15723,-0.5752,4.992,4.916,-3.084
2026-06-26 15:47:32.001,77424161,40001,1,0.94531,0.12939,0.41748,-0.206,0.824,-0.817
2026-06-26 15:47:32.001,77424161,40001,2,0.79761,-0.12769,-0.59253,-5.626,-2.0,2.756
2026-06-26 15:47:32.342,77424502,40342,1,0.97144,0.15332,0.41162,0.374,-0.588,-2.298
2026-06-26 15:47:32.342,77424502,40342,2,0.78125,-0.11621,-0.59106,-1.504,-1.618,1.511
2026-06-26 15:47:32.542,77424702,40542,1,1.01807,0.16553,0.38086,-1.198,-1.084,3.695
2026-06-26 15:47:32.542,77424702,40542,2,0.80786,-0.12988,-0.56152,3.679,3.962,-3.595
2026-06-26 15:47:32.742,77424902,40742,1,0.95581,0.11865,0.36719,-20.954,9.282,-2.74
2026-06-26 15:47:32.742,77424902,40742,2,0.81519,-0.1106,-0.60034,-33.626,0.977,19.443
2026-06-26 15:47:33.961,77426121,40961,1,0.99854,0.08325,0.41528,-45.649,2.008,-13.466
2026-06-26 15:47:33.961,77426121,40961,2,0.83765,-0.13843,-0.58472,-5.29,10.649,6.145
2026-06-26 15:47:33.161,77425321,41161,1,0.98608,0.08228,0.43213,-12.405,6.534,-7.305
2026-06-26 15:47:33.161,77425321,41161,2,0.84839,-0.11133,-0.53955,3.565,13.061,2.992
2026-06-26 15:47:33.366,77425526,41365,1,0.92773,0.07666,0.47607,-9.74,2.076,-5.458
2026-06-26 15:47:33.366,77425526,41365,2,0.8916,-0.16064,-0.50708,12.374,5.893,-8.985
2026-06-26 15:47:33.570,77425730,41570,1,0.91382,0.104,0.44873,16.229,1.725,4.863
2026-06-26 15:47:33.570,77425730,41570,2,0.81616,-0.0813,-0.57471,9.008,0.832,5.58
2026-06-26 15:47:33.770,77425930,41770,1,0.98804,0.07544,0.38354,-51.229,-8.351,-28.237
2026-06-26 15:47:33.770,77425930,41770,2,0.86035,-0.21265,-0.48242,-7.885,6.282,11.389
2026-06-26 15:47:34.970,77427130,41970,1,0.95483,0.06836,0.44946,5.733,1.565,-1.069
2026-06-26 15:47:34.970,77427130,41970,2,0.85547,-0.17676,-0.49829,16.702,-0.977,-9.191
2026-06-26 15:47:34.178,77426338,42178,1,0.92847,0.07422,0.45532,18.611,-4.084,4.565
2026-06-26 15:47:34.178,77426338,42178,2,0.8938,-0.16992,-0.50659,32.885,0.42,-10.824
2026-06-26 15:47:34.381,77426541,42381,1,0.98169,0.14526,0.38306,6.092,-4.069,3.878
2026-06-26 15:47:34.381,77426541,42381,2,0.88354,-0.17139,-0.48828,12.802,2.725,-5.328
2026-06-26 15:47:34.581,77426741,42581,1,0.83667,0.07471,0.21094,14.908,16.046,-0.176
2026-06-26 15:47:34.581,77426741,42581,2,0.84058,-0.20947,-0.50952,-8.786,-10.405,4.542
2026-06-26 15:47:34.781,77426941,42781,1,0.99634,0.07104,0.35303,6.588,38.069,-8.351
2026-06-26 15:47:34.781,77426941,42781,2,0.87573,-0.20947,-0.47729,9.557,8.336,-9.336
2026-06-26 15:47:35.981,77428141,42981,1,1.07983,0.16211,0.15503,-12.382,-6.511,-7.87
2026-06-26 15:47:35.981,77428141,42981,2,0.83057,-0.22485,-0.45117,-1.282,-1.595,-3.664
2026-06-26 15:47:35.181,77427341,43181,1,1.01978,0.0542,0.3374,5.969,1.237,-2.58
2026-06-26 15:47:35.181,77427341,43181,2,0.81787,-0.18213,-0.53247,-9.023,-1.29,-1.206
2026-06-26 15:47:35.400,77427560,43399,1,1.00586,0.10962,0.34302,13.603,-6.321,-5.779
2026-06-26 15:47:35.400,77427560,43399,2,0.83789,-0.17041,-0.63159,-8.969,-4.603,-1.015
2026-06-26 15:47:35.599,77427759,43599,1,0.96191,0.15674,0.41333,6.214,16.183,7.26
2026-06-26 15:47:35.599,77427759,43599,2,0.77832,-0.15234,-0.6499,-11.916,0.252,-3.176
2026-06-26 15:47:35.799,77427959,43799,1,0.99756,0.16455,0.36377,13.023,10.0,9.031
2026-06-26 15:47:35.799,77427959,43799,2,0.83813,-0.20386,-0.4812,6.198,13.924,-2.924
2026-06-26 15:47:36.036,77428196,44036,1,0.95898,0.13794,0.39746,6.366,1.053,1.145
2026-06-26 15:47:36.036,77428196,44036,2,0.81812,-0.16211,-0.56934,-7.321,-6.252,2.756
2026-06-26 15:47:36.287,77428447,44287,1,0.99438,0.15796,0.36499,3.687,-0.878,-2.458
2026-06-26 15:47:36.287,77428447,44287,2,0.80566,-0.14355,-0.58643,-2.611,-2.733,-0.084
2026-06-26 15:47:36.487,77428647,44487,1,1.00415,0.16309,0.35449,2.076,4.382,2.427
2026-06-26 15:47:36.487,77428647,44487,2,0.85547,-0.19678,-0.57129,32.237,16.076,-14.244
2026-06-26 15:47:36.687,77428847,44687,1,0.94897,0.09985,0.43359,3.481,36.053,18.427
2026-06-26 15:47:36.687,77428847,44687,2,0.82129,-0.11841,-0.51904,4.519,5.985,-1.939
2026-06-26 15:47:36.887,77429047,44887,1,0.98071,0.10791,0.41626,-16.023,3.206,0.084
2026-06-26 15:47:36.887,77429047,44887,1,0.98071,0.10791,0.41626,-16.023,3.206,0.084
2026-06-26 15:47:36.887,77429047,44887,2,0.90161,-0.50537,-0.35449,-250.137,-27.695,47.725
2026-06-26 15:47:42.223,77434383,50223,1,1.02734,0.05762,0.4978,1.206,3.481,-1.969
2026-06-26 15:47:42.223,77434383,50223,2,1.11035,-0.44897,-0.25342,-31.878,-16.267,-11.992
2026-06-26 15:47:42.643,77434803,50643,1,0.97412,0.05737,0.45361,4.511,2.489,7.107
2026-06-26 15:47:42.643,77434803,50643,2,1.02734,-0.41235,-0.39551,51.489,43.939,-24.565
2026-06-26 15:47:44.503,77436663,52503,1,0.11938,-0.41968,1.02002,-1.328,2.878,2.206
2026-06-26 15:47:44.503,77436663,52503,2,0.79004,-0.41675,0.70142,-5.107,-14.656,0.061
2026-06-26 15:47:44.894,77437054,52894,1,0.14917,-0.43335,1.10669,26.809,-69.374,-34.359
2026-06-26 15:47:44.894,77437054,52894,2,0.89087,-0.37744,0.12988,-60.725,-112.16,-27.298
2026-06-26 15:47:45.191,77437351,53191,1,0.68628,0.04199,0.61938,40.107,-78.092,-29.443
2026-06-26 15:47:45.191,77437351,53191,2,0.58154,-0.48096,-0.53125,81.153,25.527,-21.55
2026-06-26 15:47:45.691,77437851,53691,1,1.01245,0.19189,0.39038,-35.397,-22.679,-32.473
2026-06-26 15:47:45.691,77437851,53691,2,0.88428,-0.38159,-0.53125,16.481,-28.527,-30.794
2026-06-26 15:47:46.034,77438194,54034,1,0.96411,0.19067,0.42871,-27.641,-21.473,-18.55
2026-06-26 15:47:46.034,77438194,54034,2,0.8103,-0.29272,-0.48389,-57.023,-25.573,57.672
2026-06-26 15:47:46.395,77438555,54395,1,1.02612,0.05908,0.82593,-26.397,211.733,10.366
2026-06-26 15:47:46.395,77438555,54395,2,0.05054,-0.49487,0.21753,-32.557,176.389,64.763
2026-06-26 15:47:46.720,77438880,54720,1,0.9458,0.22461,0.15894,-12.443,83.74,47.809
2026-06-26 15:47:46.720,77438880,54720,2,0.88721,-0.26514,-0.51343,-27.969,-36.153,10.176
2026-06-26 15:47:50.579,77442739,58579,1,1.11279,0.25464,0.43188,-36.718,46.069,8.504
2026-06-26 15:47:50.579,77442739,58579,2,0.91675,-0.29907,-0.17969,-7.634,0.924,-10.916
2026-06-26 15:47:51.025,77443185,59025,1,1.14917,-0.52881,0.31201,-90.733,108.939,14.458
2026-06-26 15:47:51.025,77443185,59025,2,0.8623,-0.22778,-0.47803,10.305,-10.466,-5.053
2026-06-26 15:47:51.325,77443485,59325,1,1.01611,0.01636,0.30981,-16.695,17.962,11.931
2026-06-26 15:47:51.325,77443485,59325,2,0.92212,-0.19727,-0.34888,-53.16,39.344,-18.992
2026-06-26 15:47:51.740,77443900,59740,1,1.02222,-0.01392,0.59888,40.565,6.015,10.656
2026-06-26 15:47:51.740,77443900,59740,2,0.94214,-0.03003,-0.33496,-8.542,9.374,-17.397
2026-06-26 15:47:52.143,77444303,60143,1,0.94995,0.02734,0.46216,-40.611,62.16,-7.389
2026-06-26 15:47:52.143,77444303,60143,2,0.91846,-0.1355,-0.375,54.603,-44.687,-7.534
2026-06-26 15:47:52.343,77444503,60343,1,0.94946,-0.05054,0.36841,43.779,-33.595,6.313
2026-06-26 15:47:52.343,77444503,60343,2,1.07471,-0.16943,-0.15991,-49.206,55.069,18.046
2026-06-26 15:47:52.758,77444918,60757,1,0.87061,0.21362,-2.0,250.13,-250.137,-111.145
2026-06-26 15:47:52.758,77444918,60757,2,0.85474,-0.2522,-0.6792,-28.382,-2.832,52.046
2026-06-26 15:47:53.092,77445252,61092,1,1.03394,0.04492,0.18188,-37.252,-12.695,-7.221
2026-06-26 15:47:53.092,77445252,61092,2,1.17505,-0.54346,-0.31885,49.679,42.74,5.71
2026-06-26 15:47:53.652,77445812,61652,1,1.24854,-0.00977,0.14063,135.366,-7.618,34.176
2026-06-26 15:47:53.652,77445812,61652,2,0.76758,-0.24146,-0.63574,18.267,-10.626,-69.084
2026-06-26 15:47:54.965,77447125,61965,1,0.96411,0.09546,0.30347,189.458,57.908,83.244
2026-06-26 15:47:54.965,77447125,61965,2,1.13989,0.01392,-0.23511,96.344,-17.504,-109.634
2026-06-26 15:47:54.265,77446425,62265,1,1.0498,0.24976,0.46582,69.122,18.626,15.771
2026-06-26 15:47:54.265,77446425,62265,2,0.88086,-0.0332,-0.3728,110.092,8.198,-83.366
2026-06-26 15:47:54.545,77446705,62544,1,0.93384,0.25293,0.49976,30.298,-10.458,13.817
2026-06-26 15:47:54.545,77446705,62544,2,0.87354,-0.27734,-0.19067,10.634,-46.489,-30.992
2026-06-26 15:47:54.917,77447077,62917,1,0.90527,0.01758,0.45532,62.214,16.351,29.214
2026-06-26 15:47:54.917,77447077,62917,2,0.87402,-0.22729,-0.40112,42.084,-9.13,-42.687
2026-06-26 15:47:55.221,77447381,63221,1,0.97559,0.06006,0.48022,59.679,2.176,35.924
2026-06-26 15:47:55.221,77447381,63221,2,0.85596,-0.06323,-0.44775,31.656,-2.183,-1.237
2026-06-26 15:47:55.496,77447656,63496,1,0.91943,-0.04419,0.50342,9.573,0.573,9.611
2026-06-26 15:47:55.496,77447656,63496,2,0.93042,-0.15894,-0.40771,31.298,-2.74,-18.504
2026-06-26 15:47:55.830,77447990,63830,1,0.98413,0.00537,0.48657,25.137,1.779,-0.061
2026-06-26 15:47:55.830,77447990,63830,2,0.91309,-0.17236,-0.4043,-5.374,10.664,-8.878
2026-06-26 15:47:56.078,77448238,64078,1,0.96973,0.01587,0.47607,-14.771,2.947,-12.115
2026-06-26 15:47:56.078,77448238,64078,2,0.85864,-0.2251,-0.4397,-19.038,3.252,12.786
2026-06-26 15:47:56.278,77448438,64278,1,0.95435,-0.0481,0.44482,-21.809,8.427,-7.191
2026-06-26 15:47:56.278,77448438,64278,2,0.89502,-0.20605,-0.43872,9.153,-1.527,-3.802
2026-06-26 15:47:56.734,77448894,64734,1,0.875,0.03662,0.604,-1.611,17.649,-2.794
2026-06-26 15:47:56.734,77448894,64734,2,0.948,-0.31348,-0.3064,-13.313,-16.344,32.489
2026-06-26 15:47:57.030,77449190,65030,1,0.86084,-0.06616,0.58057,-13.389,-1.557,-4.901
2026-06-26 15:47:57.030,77449190,65030,2,0.95044,-0.37183,-0.21753,31.092,15.557,-12.557
2026-06-26 15:47:57.365,77449525,65365,1,0.96021,-0.04761,0.61987,32.137,23.595,32.84
2026-06-26 15:47:57.365,77449525,65365,2,0.76855,-0.23828,-0.4292,-21.473,-12.122,0.794
2026-06-26 15:47:57.697,77449857,65697,1,0.92871,-0.1062,0.49561,12.947,-4.885,4.954
2026-06-26 15:47:57.697,77449857,65697,2,1.05298,-0.16382,-0.17798,-1.374,31.221,1.168
2026-06-26 15:47:58.951,77451111,65951,1,0.83081,-0.00635,0.59644,-36.664,17.382,-23.405
2026-06-26 15:47:58.951,77451111,65951,2,0.95215,-0.0415,-0.18628,-28.656,-19.641,5.565
2026-06-26 15:47:58.312,77450472,66312,1,0.85693,0.11548,0.48706,-16.641,-25.351,-18.359
2026-06-26 15:47:58.312,77450472,66312,2,0.89233,-0.11646,-0.46362,2.702,1.557,-5.305
2026-06-26 15:48:00.082,77452242,68082,1,0.97437,0.04761,0.42285,1.45,6.885,2.802
2026-06-26 15:48:00.082,77452242,68082,2,0.90405,-0.13086,-0.44702,2.061,5.176,1.069
2026-06-26 15:48:00.282,77452442,68282,1,0.9646,0.0332,0.44116,-6.13,6.71,-0.481
2026-06-26 15:48:00.282,77452442,68282,2,0.89307,-0.13135,-0.45117,-4.351,4.389,4.954
2026-06-26 15:48:00.482,77452642,68482,1,0.94385,0.01685,0.45483,-7.55,5.695,-1.779
2026-06-26 15:48:00.482,77452642,68482,2,0.90039,-0.15308,-0.44507,-1.458,3.443,1.359
2026-06-26 15:48:00.859,77453019,68859,1,0.94971,0.01636,0.48071,-12.29,1.626,-3.641
2026-06-26 15:48:00.859,77453019,68859,2,0.90527,-0.16675,-0.45239,-15.496,0.55,10.435
2026-06-26 15:48:01.059,77453219,69059,1,0.95093,-0.00244,0.46289,-10.916,1.13,-4.985
2026-06-26 15:48:01.059,77453219,69059,2,0.88965,-0.15308,-0.4563,-8.939,-0.137,5.221
2026-06-26 15:48:01.531,77453691,69531,1,0.96167,0.01099,0.45386,-6.435,1.496,-2.931
2026-06-26 15:48:01.531,77453691,69531,1,0.96167,0.01099,0.45386,-6.435,1.496,-2.931
2026-06-26 15:48:01.531,77453691,69531,2,0.80225,-0.14014,-0.57861,4.328,5.924,1.931
2026-06-26 15:48:07.023,77459183,75022,1,1.02026,0.09399,0.28491,4.672,-1.008,1.107
2026-06-26 15:48:07.023,77459183,75022,2,0.76685,-0.0957,-0.62305,11.198,6.626,-10.534
2026-06-26 15:48:07.499,77459659,75498,1,0.99414,0.07935,0.323,-1.0,3.58,-3.794
2026-06-26 15:48:07.499,77459659,75498,1,0.99414,0.07935,0.323,-1.0,3.58,-3.794
2026-06-26 15:48:07.499,77459659,75498,2,0.99146,-0.01831,-0.47876,-51.58,-1.664,5.115
2026-06-26 15:48:07.499,77459659,75498,2,0.99146,-0.01831,-0.47876,-51.58,-1.664,5.115
2026-06-26 15:48:17.756,77469916,85755,1,0.93701,0.146,0.29956,-12.366,10.366,-2.985
2026-06-26 15:48:17.756,77469916,85755,2,0.50269,-0.12427,-0.30957,14.0,36.191,10.695
2026-06-26 15:48:18.152,77470312,86152,1,1.18188,0.12695,0.52344,-11.969,29.55,5.29
2026-06-26 15:48:18.152,77470312,86152,1,1.18188,0.12695,0.52344,-11.969,29.55,5.29
2026-06-26 15:48:18.152,77470312,86152,2,0.85083,-0.12939,-0.50342,7.168,0.473,0.527
2026-06-26 15:48:23.347,77475507,91347,1,0.98218,0.11304,0.37842,2.565,8.42,0.427
2026-06-26 15:48:23.347,77475507,91347,2,0.86499,-0.1377,-0.52026,6.733,5.695,-3.031
2026-06-26 15:48:23.547,77475707,91547,1,0.97852,0.10742,0.38501,4.962,10.267,-3.015
2026-06-26 15:48:23.547,77475707,91547,2,0.83081,-0.09277,-0.54102,-3.58,-1.832,1.275
2026-06-26 15:48:29.976,77482136,96976,1,0.97998,0.16113,0.37988,1.679,2.847,0.084
2026-06-26 15:48:29.976,77482136,96976,2,0.86279,-0.09473,-0.5127,3.061,3.198,-1.687
2026-06-26 15:48:29.206,77481366,97206,1,0.97217,0.16187,0.38452,1.786,3.916,0.092
2026-06-26 15:48:29.206,77481366,97206,2,0.87598,-0.10278,-0.51001,-0.664,1.664,0.405
2026-06-26 15:48:29.723,77481883,97723,1,0.97266,0.146,0.37646,-1.069,1.863,-1.313
2026-06-26 15:48:29.723,77481883,97723,2,0.86035,-0.10303,-0.5,2.947,3.244,-1.718
2026-06-26 15:48:30.031,77482191,98030,1,0.96436,0.18262,0.38989,2.557,4.275,-1.481
2026-06-26 15:48:30.031,77482191,98030,2,0.87085,-0.11353,-0.49902,2.405,1.405,-1.573
2026-06-26 15:48:30.382,77482542,98382,1,0.96704,0.18506,0.39258,1.466,4.214,2.351
2026-06-26 15:48:30.382,77482542,98382,2,0.90747,-0.12842,-0.50098,11.832,11.122,1.122
2026-06-26 15:48:30.661,77482821,98661,1,1.052,0.22949,0.36646,-9.45,22.023,10.344
2026-06-26 15:48:30.661,77482821,98661,2,0.96387,-0.2854,-0.2688,24.901,100.061,45.756
2026-06-26 15:48:31.962,77484122,98962,1,0.5752,-0.07251,0.6084,-63.84,95.305,30.13
2026-06-26 15:48:31.962,77484122,98962,2,0.6416,-0.49951,0.7998,16.573,35.382,3.382
2026-06-26 15:48:32.230,77484390,100230,1,-0.07056,-0.59375,1.17261,6.359,-1.588,-9.969
2026-06-26 15:48:32.230,77484390,100230,2,0.67456,-0.46997,0.76611,-48.885,-71.832,-24.328
2026-06-26 15:48:32.230,77484390,100230,2,0.67456,-0.46997,0.76611,-48.885,-71.832,-24.328
2026-06-26 15:48:37.541,77489701,105540,1,0.89673,0.30249,0.09009,-219.473,-59.672,-83.87
2026-06-26 15:48:37.541,77489701,105540,2,0.56055,-0.02881,-0.58569,-162.534,3.733,139.206
2026-06-26 15:48:38.018,77490178,106017,1,1.44263,-0.53516,0.72241,-134.42,-250.137,-202.763
2026-06-26 15:48:38.018,77490178,106017,2,0.83228,-0.15796,-0.29565,-250.137,-153.359,122.664
2026-06-26 15:48:38.571,77490731,106571,1,1.03027,0.04907,-0.0332,-250.137,-85.794,-198.557
2026-06-26 15:48:38.571,77490731,106571,2,0.85791,0.12402,-0.89014,-27.595,66.305,68.527
2026-06-26 15:48:38.865,77491025,106865,1,1.01563,0.04419,0.3833,-182.664,-10.008,-103.344
2026-06-26 15:48:38.865,77491025,106865,2,0.74683,-0.30322,-0.53369,-85.924,16.481,48.244
2026-06-26 15:48:39.265,77491425,107265,1,0.94189,-0.00854,0.41382,-37.023,-34.748,-27.489
2026-06-26 15:48:39.265,77491425,107265,2,0.81323,-0.22632,-0.41577,-57.679,-10.504,13.267
2026-06-26 15:48:39.656,77491816,107656,1,1.02563,0.19458,0.35767,-2.634,-5.55,-11.046
2026-06-26 15:48:39.656,77491816,107656,2,0.86182,-0.13232,-0.35815,39.115,33.458,-33.313
2026-06-26 15:48:39.918,77492078,107918,1,0.88013,0.17871,0.48633,21.427,10.679,12.176
2026-06-26 15:48:39.918,77492078,107918,2,0.95068,-0.09326,-0.3103,15.214,-2.031,-21.328
2026-06-26 15:48:40.228,77492388,108227,1,0.98218,0.19897,0.42847,27.023,-7.305,8.42
2026-06-26 15:48:40.228,77492388,108227,2,0.88281,-0.07031,-0.3623,29.954,2.023,-25.702
2026-06-26 15:48:40.507,77492667,108507,1,0.94141,0.18457,0.38989,23.641,5.099,20.13
2026-06-26 15:48:40.507,77492667,108507,2,1.0083,-0.18311,-0.39233,-2.13,27.985,-14.733
2026-06-26 15:48:40.758,77492918,108757,1,1.0415,0.07422,0.37695,37.198,16.649,31.802
2026-06-26 15:48:40.758,77492918,108757,2,0.91846,-0.12646,-0.3645,46.542,14.473,-20.366
2026-06-26 15:48:41.192,77493352,109192,1,1.02563,0.09619,0.33301,-6.344,-19.748,-19.168
2026-06-26 15:48:41.192,77493352,109192,2,0.76563,-0.01172,-0.22656,-13.023,-15.939,-20.26
2026-06-26 15:48:41.513,77493673,109513,1,0.99097,0.02734,0.37109,-21.038,-3.771,-7.504
2026-06-26 15:48:41.513,77493673,109513,2,0.9082,-0.23071,-0.4082,-7.344,9.725,-2.374
2026-06-26 15:48:42.023,77494183,110023,1,1.01709,0.03979,0.46338,8.275,16.733,14.588
2026-06-26 15:48:42.023,77494183,110023,2,0.95044,-0.21826,-0.43774,-56.542,-42.954,23.71
2026-06-26 15:48:46.176,77498336,114176,1,0.96948,-0.01001,0.48511,53.817,6.397,11.115
2026-06-26 15:48:46.176,77498336,114176,2,0.88306,-0.16577,-0.37622,46.985,-2.649,-8.13
2026-06-26 15:48:46.426,77498586,114426,1,0.96777,0.03882,0.42505,63.412,-0.832,19.496
2026-06-26 15:48:46.426,77498586,114426,2,0.91846,-0.20313,-0.40942,52.725,-13.557,-30.336
2026-06-26 15:48:46.626,77498786,114626,1,0.99805,0.16479,0.51758,42.153,9.336,21.664
2026-06-26 15:48:46.626,77498786,114626,2,0.94019,-0.22217,-0.36572,33.969,19.702,-29.076
2026-06-26 15:48:47.132,77499292,115131,1,0.94751,0.20313,0.46948,54.802,17.137,20.878
2026-06-26 15:48:47.132,77499292,115131,2,0.92114,-0.10352,-0.41284,71.473,-16.26,-24.595
2026-06-26 15:48:49.224,77501384,117224,1,0.79834,-0.11377,0.67944,-15.496,19.328,-3.031
2026-06-26 15:48:49.224,77501384,117224,2,1.0188,-0.32837,-0.15405,-24.74,9.13,5.763
2026-06-26 15:48:49.598,77501758,117598,1,0.75952,-0.15234,0.69019,-6.634,-6.229,-15.603
2026-06-26 15:48:49.598,77501758,117598,2,0.99219,-0.30078,-0.19385,-17.939,-13.443,-5.252
2026-06-26 15:48:50.024,77502184,118024,1,0.86646,-0.0686,0.61426,10.053,-17.038,-17.008
2026-06-26 15:48:50.024,77502184,118024,2,0.94165,-0.20923,-0.27124,-0.443,-21.809,-9.939
2026-06-26 15:48:50.224,77502384,118224,1,0.90723,0.05371,0.52905,20.557,-23.45,-15.74
2026-06-26 15:48:50.224,77502384,118224,2,0.93921,-0.15869,-0.37427,5.794,-12.908,-11.847
2026-06-26 15:48:50.612,77502772,118612,1,0.96484,0.11743,0.40088,6.634,-18.702,-8.954
2026-06-26 15:48:50.612,77502772,118612,2,0.89307,-0.12451,-0.52344,21.885,-11.412,-9.115
2026-06-26 15:48:50.817,77502977,118817,1,0.97681,0.18726,0.37231,15.069,-13.954,-3.763
2026-06-26 15:48:50.817,77502977,118817,2,0.88525,-0.14014,-0.50806,14.481,-4.901,-1.931
2026-06-26 15:48:51.017,77503177,119017,1,1.00391,0.18701,0.29077,0.069,-6.519,-5.214
2026-06-26 15:48:51.017,77503177,119017,2,0.91895,-0.16113,-0.51416,-6.847,8.176,4.702
2026-06-26 15:48:51.298,77503458,119298,1,0.9895,0.20361,0.31787,-2.252,9.557,0.458
2026-06-26 15:48:51.298,77503458,119298,2,0.85913,-0.16602,-0.50513,-24.267,-2.267,-8.282
2026-06-26 15:48:51.737,77503897,119737,1,0.97437,0.16455,0.3562,2.74,3.061,3.321
2026-06-26 15:48:51.737,77503897,119737,2,0.84595,-0.15308,-0.50879,14.443,3.13,0.695
2026-06-26 15:48:52.164,77504324,120164,1,0.98853,0.15796,0.34839,4.679,4.397,3.534
2026-06-26 15:48:52.164,77504324,120164,2,0.84961,-0.15552,-0.50317,1.427,3.366,-1.641
2026-06-26 15:48:55.375,77507535,123375,1,0.98535,0.16895,0.37061,2.412,3.565,0.733
2026-06-26 15:48:55.375,77507535,123375,2,0.93726,-0.22827,-0.58032,13.221,11.313,-17.359
2026-06-26 15:48:58.702,77510862,126702,1,1.00537,0.17261,0.35498,-5.321,-26.809,-23.588
2026-06-26 15:48:58.702,77510862,126702,2,0.84717,-0.18823,-0.49902,11.374,-9.611,-3.611
2026-06-26 15:48:58.906,77511066,126905,1,0.99219,0.18066,0.34766,21.962,7.336,10.763
2026-06-26 15:48:58.906,77511066,126905,2,0.85938,-0.11792,-0.5,-3.885,-7.527,-3.198
2026-06-26 15:48:59.317,77511477,127317,1,0.96045,0.17847,0.38892,-5.008,6.954,-0.038
2026-06-26 15:48:59.317,77511477,127317,2,0.87598,-0.1543,-0.47144,6.145,3.397,-1.916
2026-06-26 15:48:59.624,77511784,127623,1,0.96509,0.16602,0.39844,0.244,1.802,0.969
2026-06-26 15:48:59.624,77511784,127623,2,0.86792,-0.1438,-0.4856,1.748,0.771,0.198
2026-06-26 15:48:59.931,77512091,127931,1,0.97852,0.16992,0.3855,-2.969,2.595,1.122
2026-06-26 15:48:59.931,77512091,127931,2,0.86743,-0.15137,-0.48755,-1.542,0.206,1.672
2026-06-26 15:49:00.394,77512554,128394,1,0.98608,0.14819,0.38013,3.771,1.237,-0.519
2026-06-26 15:49:00.394,77512554,128394,2,0.85571,-0.17993,-0.49829,2.336,0.863,-4.099
2026-06-26 15:49:04.474,77516634,132474,1,0.98657,0.1665,0.37646,-3.702,-0.252,-1.71
2026-06-26 15:49:04.474,77516634,132474,2,0.87622,-0.1355,-0.48853,-6.061,0.099,2.649
2026-06-26 15:49:04.686,77516846,132686,1,0.9834,0.16479,0.36792,-1.519,4.122,0.344
2026-06-26 15:49:04.686,77516846,132686,2,0.86841,-0.14136,-0.48462,9.26,3.282,-3.435
2026-06-26 15:49:04.886,77517046,132886,1,0.97583,0.15869,0.40308,1.916,6.344,2.275
2026-06-26 15:49:04.886,77517046,132886,2,0.87402,-0.15796,-0.47266,6.794,3.26,-2.702
2026-06-26 15:49:05.139,77517299,133139,1,0.97607,0.16724,0.41211,1.321,4.893,1.519
2026-06-26 15:49:05.139,77517299,133139,2,0.89355,-0.16064,-0.46802,-2.534,1.656,0.718
2026-06-26 15:49:05.139,77517299,133139,2,0.89355,-0.16064,-0.46802,-2.534,1.656,0.718
2026-06-26 15:49:10.638,77522798,138638,1,0.42749,-0.30493,0.87915,-64.366,111.687,42.198
2026-06-26 15:49:10.638,77522798,138638,2,0.95459,-0.54077,0.48706,70.412,128.725,35.069
2026-06-26 15:49:10.838,77522998,138838,1,-0.01758,-0.5144,1.03711,-36.573,90.191,32.183
2026-06-26 15:49:10.838,77522998,138838,2,0.4624,-0.36694,0.9292,53.542,66.229,5.939
2026-06-26 15:49:11.097,77523257,139097,1,-0.27734,-0.57568,0.97046,-7.84,43.29,21.351
2026-06-26 15:49:11.097,77523257,139097,1,-0.27734,-0.57568,0.97046,-7.84,43.29,21.351
2026-06-26 15:49:11.097,77523257,139097,2,0.93579,-0.33496,-0.31543,0.649,3.336,-0.939
2026-06-26 15:49:16.421,77528581,144421,1,0.93945,0.00415,0.51855,2.916,7.076,2.74
2026-06-26 15:49:16.421,77528581,144421,2,0.93628,-0.33521,-0.302,4.511,7.664,0.252
2026-06-26 15:49:16.621,77528781,144621,1,0.95337,0.08398,0.46729,-3.511,36.573,20.076
2026-06-26 15:49:16.621,77528781,144621,2,0.72363,-0.38379,0.69922,-48.802,-103.847,-1.107
2026-06-26 15:49:19.169,77531329,147169,1,0.23804,-0.2998,0.88672,21.336,-87.229,-32.015
2026-06-26 15:49:19.169,77531329,147169,2,0.91235,-0.45264,0.33765,-55.893,-111.26,-6.229
2026-06-26 15:49:19.369,77531529,147369,1,0.4519,-0.16821,0.62964,13.802,-96.206,-43.962
2026-06-26 15:49:19.369,77531529,147369,2,0.92285,-0.37158,-0.0459,-68.916,-84.153,-19.618
2026-06-26 15:49:19.569,77531729,147569,1,0.79248,-0.00317,0.45557,17.176,-85.603,-46.336
2026-06-26 15:49:19.569,77531729,147569,2,0.87793,-0.32275,-0.47192,-27.931,-29.107,-6.863
2026-06-26 15:49:19.870,77532030,147870,1,0.99219,0.11035,0.40479,8.176,-16.618,-7.519
2026-06-26 15:49:19.870,77532030,147870,2,0.83984,-0.27417,-0.52661,-4.336,-16.031,-5.55
2026-06-26 15:49:20.070,77532230,148070,1,0.97583,0.11987,0.37939,3.145,-10.496,-0.328
2026-06-26 15:49:20.070,77532230,148070,2,0.77832,-0.26831,-0.58301,-11.115,10.29,4.924
2026-06-26 15:49:20.529,77532689,148529,1,0.98779,0.08228,0.37354,-1.344,3.794,-0.916
2026-06-26 15:49:20.529,77532689,148529,2,0.80957,-0.26538,-0.53467,0.702,2.351,-1.344
2026-06-26 15:49:20.729,77532889,148729,1,0.98853,0.09302,0.37793,-0.435,4.183,-0.924
2026-06-26 15:49:20.729,77532889,148729,2,0.80908,-0.27051,-0.53735,0.137,2.939,0.26
2026-06-26 15:49:20.929,77533089,148929,1,0.98413,0.09473,0.38672,1.29,5.313,1.275
2026-06-26 15:49:20.929,77533089,148929,2,0.82031,-0.26025,-0.53833,-2.397,2.748,0.015
2026-06-26 15:49:21.232,77533392,149232,1,0.98633,0.07446,0.40894,-1.565,5.908,-3.595
2026-06-26 15:49:21.232,77533392,149232,2,0.8457,-0.24658,-0.50513,-1.618,6.718,-4.038
2026-06-26 15:49:21.529,77533689,149528,1,0.96167,0.09595,0.41748,6.244,2.901,0.992
2026-06-26 15:49:21.529,77533689,149528,2,0.86401,-0.2356,-0.47974,2.802,2.893,-4.351
2026-06-26 15:49:22.196,77534356,150196,1,0.93994,0.15601,0.4939,28.282,3.298,19.595
2026-06-26 15:49:22.196,77534356,150196,2,0.86206,-0.08984,-0.40479,-14.702,-18.969,-2.183
2026-06-26 15:49:22.402,77534562,150402,1,0.95996,0.13452,0.45801,3.481,-2.504,-4.802
2026-06-26 15:49:22.402,77534562,150402,2,1.02344,-0.13599,-0.4375,-6.328,-2.786,-8.389
2026-06-26 15:49:22.602,77534762,150602,1,1.02075,0.03467,0.47412,-4.42,3.023,-6.802
2026-06-26 15:49:22.602,77534762,150602,2,0.84009,-0.30371,-0.39307,-3.534,-6.702,9.695
2026-06-26 15:49:22.806,77534966,150806,1,0.93457,-0.00122,0.4397,-7.336,3.725,-7.893
2026-06-26 15:49:22.806,77534966,150806,2,0.84717,-0.28394,-0.45801,-3.031,-2.198,2.221
2026-06-26 15:49:23.006,77535166,151006,1,0.97534,0.03955,0.43384,-11.817,0.115,-4.718
2026-06-26 15:49:23.006,77535166,151006,2,0.83667,-0.28491,-0.4895,-3.031,3.099,7.221
2026-06-26 15:49:23.206,77535366,151206,1,0.96704,0.03931,0.42969,-8.832,2.389,0.71
2026-06-26 15:49:23.206,77535366,151206,2,0.84741,-0.2749,-0.49243,-5.573,1.511,5.626
2026-06-26 15:49:23.631,77535791,151631,1,0.96436,0.02222,0.44116,-2.466,-0.672,0.55
2026-06-26 15:49:23.631,77535791,151631,2,0.83496,-0.27979,-0.47998,-2.771,-0.198,2.504
2026-06-26 15:49:23.831,77535991,151831,1,0.97046,0.02466,0.42358,-0.817,-0.198,-0.282
2026-06-26 15:49:23.831,77535991,151831,2,0.83325,-0.27319,-0.50537,-2.824,-1.046,-0.481
2026-06-26 15:49:24.086,77536246,152086,1,0.97021,0.03003,0.4248,0.985,1.664,2.42
2026-06-26 15:49:24.086,77536246,152086,2,0.82935,-0.25928,-0.49512,0.237,0.656,-0.42
2026-06-26 15:49:24.311,77536471,152311,1,0.96729,0.01636,0.42847,1.16,1.87,-0.237
2026-06-26 15:49:24.311,77536471,152311,2,0.81641,-0.25781,-0.51001,-6.176,-2.786,2.435
2026-06-26 15:49:24.608,77536768,152608,1,0.97925,0.03955,0.40576,-1.527,2.954,-3.702
2026-06-26 15:49:24.608,77536768,152608,2,0.81323,-0.25073,-0.51099,-3.328,5.115,4.382
2026-06-26 15:49:25.007,77537167,153007,1,0.96558,0.02856,0.43774,2.511,5.321,-0.405
2026-06-26 15:49:25.007,77537167,153007,2,0.82544,-0.26392,-0.53345,-1.672,3.634,-0.779
2026-06-26 15:49:25.212,77537372,153212,1,0.96094,0.03638,0.43262,0.87,3.443,-0.916
2026-06-26 15:49:25.212,77537372,153212,2,0.82617,-0.26318,-0.51978,-1.015,4.641,-0.763
2026-06-26 15:49:25.530,77537690,153530,1,0.99634,-0.02417,0.40186,-14.924,7.137,3.985
2026-06-26 15:49:25.530,77537690,153530,2,0.80054,-0.30933,-0.47168,-0.191,23.427,6.405
2026-06-26 15:49:25.752,77537912,153751,1,0.89551,-0.07886,0.46655,-0.802,-7.061,5.13
2026-06-26 15:49:25.752,77537912,153751,2,0.83179,-0.28735,-0.40552,-2.893,12.115,-4.328
2026-06-26 15:49:26.951,77539111,153951,1,1.03491,-0.05591,0.39233,-50.183,-13.198,-23.931
2026-06-26 15:49:26.951,77539111,153951,2,0.83862,-0.38257,-0.48169,29.359,-1.267,3.244
2026-06-26 15:49:26.201,77538361,154201,1,0.99878,-0.05518,0.52148,26.427,15.145,20.359
2026-06-26 15:49:26.201,77538361,154201,2,0.927,-0.14673,-0.3186,32.771,24.832,-40.214
2026-06-26 15:49:26.432,77538592,154432,1,0.86035,0.11914,0.49341,26.794,3.763,-15.481
2026-06-26 15:49:26.432,77538592,154432,2,0.82104,-0.22168,-0.43921,-35.13,-30.183,6.695
2026-06-26 15:49:26.669,77538829,154669,1,0.9436,0.11768,0.43408,12.786,-2.885,-10.565
2026-06-26 15:49:26.669,77538829,154669,2,0.88062,-0.22559,-0.47729,-33.702,-17.656,3.71
2026-06-26 15:49:28.397,77540557,156397,1,0.04395,-0.45947,0.98682,-3.763,11.855,4.328
2026-06-26 15:49:28.397,77540557,156397,2,0.51807,-0.35107,0.95508,8.687,9.924,1.382
2026-06-26 15:49:28.597,77540757,156597,1,-0.0105,-0.44873,0.96948,0.328,8.565,4.061
2026-06-26 15:49:28.597,77540757,156597,1,-0.0105,-0.44873,0.96948,0.328,8.565,4.061
2026-06-26 15:49:28.597,77540757,156597,2,0.86646,-0.20703,-0.49878,9.511,-0.58,-7.985
2026-06-26 15:49:34.198,77546358,162198,1,0.98926,0.146,0.39575,8.176,5.282,4.618
2026-06-26 15:49:34.198,77546358,162198,2,0.87427,-0.21387,-0.46997,7.87,2.366,-4.924
2026-06-26 15:49:34.398,77546558,162398,1,0.97607,0.14551,0.39966,3.695,5.435,2.534
2026-06-26 15:49:34.398,77546558,162398,2,0.86499,-0.21436,-0.46045,1.153,1.16,0.221
2026-06-26 15:49:34.598,77546758,162598,1,0.96948,0.14917,0.40503,-0.924,2.031,0.969
2026-06-26 15:49:34.598,77546758,162598,2,0.8645,-0.21582,-0.4585,-2.115,1.664,1.267
2026-06-26 15:49:34.798,77546958,162798,1,0.96313,0.13281,0.39624,-0.718,-0.275,-0.947
2026-06-26 15:49:34.798,77546958,162798,2,0.83325,-0.22021,-0.50537,6.351,2.626,-4.679
2026-06-26 15:49:36.527,77548687,164527,1,0.98877,0.16943,0.34424,7.0,3.878,1.954
2026-06-26 15:49:36.527,77548687,164527,2,0.84131,-0.20752,-0.49707,3.916,2.229,-3.603
2026-06-26 15:49:36.727,77548887,164727,1,0.98853,0.16382,0.34155,4.87,2.84,0.985
2026-06-26 15:49:36.727,77548887,164727,2,0.84619,-0.21533,-0.50513,3.305,-2.473,-2.0
2026-06-26 15:49:36.927,77549087,164927,1,0.98804,0.15576,0.34961,3.351,2.305,0.931
2026-06-26 15:49:36.927,77549087,164927,2,0.84277,-0.20923,-0.51099,2.198,0.802,-3.092
2026-06-26 15:49:37.306,77549466,165306,1,0.98755,0.15845,0.34692,-0.412,3.176,-0.481
2026-06-26 15:49:37.306,77549466,165306,2,0.83984,-0.22046,-0.51782,2.099,1.733,-1.55
2026-06-26 15:49:37.577,77549737,165577,1,0.97754,0.15869,0.35107,1.74,3.893,-0.053
2026-06-26 15:49:37.577,77549737,165577,2,0.84326,-0.21289,-0.51294,2.275,2.137,-2.267
2026-06-26 15:49:37.792,77549952,165792,1,0.98999,0.16699,0.35596,2.008,3.275,0.069
2026-06-26 15:49:37.792,77549952,165792,2,0.84375,-0.20605,-0.5061,0.802,1.725,-1.191
2026-06-26 15:49:38.023,77550183,166022,1,0.98169,0.16675,0.35767,-0.008,2.573,-0.45
2026-06-26 15:49:38.023,77550183,166022,2,0.83423,-0.20386,-0.52222,1.794,1.954,-1.565
2026-06-26 15:49:41.034,77553194,169034,1,0.97852,0.17651,0.34863,2.053,2.916,0.748
2026-06-26 15:49:41.034,77553194,169034,2,0.83545,-0.20483,-0.50757,-0.42,1.443,-0.565
2026-06-26 15:49:42.595,77554755,170595,1,0.98584,0.17529,0.34595,-2.29,0.519,-1.015
2026-06-26 15:49:42.595,77554755,170595,2,0.80542,-0.21436,-0.55225,-2.557,0.855,2.092
2026-06-26 15:49:42.938,77555098,170938,1,0.98682,0.16382,0.34424,3.015,3.893,1.908
2026-06-26 15:49:42.938,77555098,170938,2,0.81738,-0.20605,-0.5376,0.802,5.267,-1.748
2026-06-26 15:49:43.245,77555405,171245,1,0.98218,0.18433,0.354,1.107,2.191,-1.954
2026-06-26 15:49:43.245,77555405,171245,2,0.86548,-0.23047,-0.52686,5.504,4.481,-0.122
2026-06-26 15:49:43.656,77555816,171656,1,0.9707,0.14746,0.39429,4.206,14.588,8.725
2026-06-26 15:49:43.656,77555816,171656,2,0.83984,-0.2312,-0.49609,14.74,10.16,-6.878
2026-06-26 15:49:43.888,77556048,171888,1,0.97754,0.11353,0.4209,22.481,15.771,15.122
2026-06-26 15:49:43.888,77556048,171888,2,0.94043,-0.27466,-0.44287,31.366,27.122,-15.802
2026-06-26 15:49:44.091,77556251,172091,1,0.9375,0.15112,0.45532,10.115,43.084,30.992
2026-06-26 15:49:44.091,77556251,172091,2,0.94873,-0.2334,-0.29346,77.191,40.168,-11.282
2026-06-26 15:49:44.371,77556531,172371,1,0.82935,0.05347,0.66089,-2.847,24.977,14.244
2026-06-26 15:49:44.371,77556531,172371,2,0.81396,-0.29614,-0.06152,16.855,27.282,22.809
2026-06-26 15:49:44.679,77556839,172679,1,0.71191,-0.07031,0.58911,-22.939,-19.779,-24.855
2026-06-26 15:49:44.679,77556839,172679,2,1.00708,-0.39429,-0.09741,-25.405,-0.763,2.687
2026-06-26 15:49:44.891,77557051,172891,1,0.90015,0.02246,0.61328,-3.924,-1.901,-5.931
2026-06-26 15:49:44.891,77557051,172891,2,1.04321,-0.46606,-0.11987,17.901,20.664,10.954
2026-06-26 15:49:45.293,77557453,173293,1,0.82617,-0.09814,0.81592,-12.031,9.542,1.511
2026-06-26 15:49:45.293,77557453,173293,2,0.99365,-0.4873,-0.04175,-4.901,-8.954,-3.031
2026-06-26 15:49:45.806,77557966,173806,1,0.84814,-0.05029,0.67969,6.351,-1.496,-1.336
2026-06-26 15:49:45.806,77557966,173806,2,1.00415,-0.44019,-0.05054,6.206,15.55,-6.58
2026-06-26 15:49:46.006,77558166,174006,1,0.80249,-0.07031,0.69873,-11.809,10.893,-11.672
2026-06-26 15:49:46.006,77558166,174006,2,1.1123,-0.40527,0.01929,-5.282,20.947,3.405
2026-06-26 15:49:46.006,77558166,174006,2,1.1123,-0.40527,0.01929,-5.282,20.947,3.405
2026-06-26 15:49:51.305,77563465,179305,1,0.91602,-0.10742,0.78174,-3.908,4.779,11.947
2026-06-26 15:49:51.305,77563465,179305,2,1.02539,-0.50293,-0.02173,11.595,4.16,9.267
2026-06-26 15:49:51.505,77563665,179505,1,0.80811,-0.16699,0.76465,-0.794,-7.305,-4.084
2026-06-26 15:49:51.505,77563665,179505,2,0.99121,-0.46118,-0.05298,-17.313,-7.466,-3.42
2026-06-26 15:49:51.705,77563865,179705,1,0.89087,-0.06616,0.67773,1.565,-26.779,-21.153
2026-06-26 15:49:51.705,77563865,179705,2,0.82861,-0.18994,-0.51929,1.305,2.618,-0.366
2026-06-26 15:49:54.347,77566507,182347,1,0.98633,0.15796,0.34204,1.008,3.366,1.061
2026-06-26 15:49:54.347,77566507,182347,2,0.84424,-0.18506,-0.51953,1.672,4.405,-0.718
2026-06-26 15:49:54.547,77566707,182547,1,0.97559,0.16626,0.34668,0.351,2.664,0.45
2026-06-26 15:49:54.547,77566707,182547,2,0.83765,-0.20215,-0.50708,-0.58,1.985,-0.29
2026-06-26 15:49:54.747,77566907,182747,1,0.98267,0.16528,0.3562,1.802,2.389,1.527
2026-06-26 15:49:54.747,77566907,182747,2,0.83423,-0.18457,-0.51343,0.435,2.489,-2.511
2026-06-26 15:49:55.947,77568107,182947,1,0.99878,0.1604,0.34644,-0.649,0.908,0.473
2026-06-26 15:49:55.947,77568107,182947,2,0.84766,-0.18628,-0.5166,1.038,1.366,-3.466
2026-06-26 15:49:55.517,77567677,183517,1,0.98926,0.17651,0.35669,1.252,1.924,-1.794
2026-06-26 15:49:55.517,77567677,183517,2,0.83325,-0.17676,-0.50659,0.458,-2.191,-0.206
2026-06-26 15:49:55.842,77568002,183842,1,0.98511,0.16064,0.35962,0.771,6.832,0.366
2026-06-26 15:49:55.842,77568002,183842,2,0.84497,-0.18872,-0.53979,-1.985,3.107,3.74
2026-06-26 15:49:56.052,77568212,184052,1,0.97485,0.18213,0.38232,-2.771,4.702,-0.489
2026-06-26 15:49:56.052,77568212,184052,2,0.85107,-0.2019,-0.55566,7.771,2.847,0.29
2026-06-26 15:49:56.260,77568420,184260,1,0.98364,0.18115,0.38452,-6.534,3.939,3.122
2026-06-26 15:49:56.260,77568420,184260,2,0.88037,-0.19141,-0.56543,-13.244,-5.145,4.046
2026-06-26 15:49:56.660,77568820,184660,1,0.97412,0.14331,0.37451,-5.336,-3.015,-5.351
2026-06-26 15:49:56.660,77568820,184660,2,0.84229,-0.13403,-0.52295,-18.351,-1.832,7.26
2026-06-26 15:49:57.344,77569504,185344,1,1.02979,0.19092,0.33081,-20.71,51.534,31.687
2026-06-26 15:49:57.344,77569504,185344,2,1.17139,-0.35425,-0.01563,42.351,182.42,40.145
2026-06-26 15:49:57.642,77569802,185642,1,0.52588,-0.07788,0.51367,-19.603,137.817,58.725
2026-06-26 15:49:57.642,77569802,185642,2,0.7915,-0.44287,0.54834,64.947,119.542,18.626
2026-06-26 15:49:58.011,77570171,186010,1,-0.14624,-0.45142,1.05347,-10.962,79.947,24.435
2026-06-26 15:49:58.011,77570171,186010,2,0.51563,-0.32886,0.98755,34.939,58.542,5.237
2026-06-26 15:49:58.238,77570398,186238,1,-0.23364,-0.53223,1.00049,-3.382,36.931,13.527
2026-06-26 15:49:58.238,77570398,186238,2,0.41504,-0.21021,1.05078,27.985,21.313,-4.908
2026-06-26 15:49:58.438,77570598,186438,1,-0.35864,-0.45874,0.88989,3.885,12.221,1.0
2026-06-26 15:49:58.438,77570598,186438,2,0.43237,-0.17261,1.08032,0.374,-4.267,3.145
2026-06-26 15:49:58.801,77570961,186801,1,-0.27368,-0.5249,0.89478,1.527,-15.008,-9.076
2026-06-26 15:49:58.801,77570961,186801,2,0.50244,-0.19604,1.06812,-23.26,-36.122,0.855
2026-06-26 15:49:59.100,77571260,187100,1,-0.18555,-0.50806,0.98022,24.962,-40.763,-23.244
2026-06-26 15:49:59.100,77571260,187100,2,0.59863,-0.23315,0.90381,-46.206,-70.237,3.13
2026-06-26 15:49:59.468,77571628,187468,1,0.33936,-0.21094,0.7627,25.13,-82.099,-34.809
2026-06-26 15:49:59.468,77571628,187468,2,0.90405,-0.29248,-0.39282,0.366,-0.092,-3.527
2026-06-26 15:50:00.589,77572749,188589,1,0.92676,0.05127,0.48706,4.282,5.763,7.206
2026-06-26 15:50:00.589,77572749,188589,2,0.90356,-0.2937,-0.40967,8.389,7.267,0.313
2026-06-26 15:50:00.789,77572949,188789,1,0.92822,0.01196,0.52905,2.115,10.55,7.809
2026-06-26 15:50:00.789,77572949,188789,2,0.88818,-0.31714,-0.35156,4.664,7.748,1.817
2026-06-26 15:50:01.989,77574149,188989,1,0.90796,0.00806,0.55347,2.443,1.153,1.756
2026-06-26 15:50:01.989,77574149,188989,2,0.85547,-0.3606,0.72827,55.824,76.183,2.305
2026-06-26 15:50:02.141,77574301,190140,1,-0.00171,-0.36865,1.01904,-18.137,64.687,11.847
2026-06-26 15:50:02.141,77574301,190140,2,0.75244,-0.24463,0.92407,13.237,51.504,-1.359
2026-06-26 15:50:03.570,77575730,191570,1,-0.17529,-0.47607,0.99976,5.725,-22.053,-10.527
2026-06-26 15:50:03.570,77575730,191570,2,0.57935,-0.20825,0.99878,-22.672,-44.168,3.725
2026-06-26 15:50:03.770,77575930,191770,1,-0.06372,-0.45581,1.04419,18.519,-57.023,-29.107
2026-06-26 15:50:03.770,77575930,191770,2,0.74927,-0.35742,0.72339,-43.29,-90.176,1.176
2026-06-26 15:50:04.970,77577130,191970,1,0.16772,-0.32568,0.95776,20.267,-82.275,-36.985
2026-06-26 15:50:04.970,77577130,191970,2,0.80322,-0.21411,-0.56836,4.786,1.847,-0.504
2026-06-26 15:50:06.649,77578809,194649,1,0.98291,0.17896,0.34668,-2.366,3.328,0.282
2026-06-26 15:50:06.649,77578809,194649,2,0.80811,-0.22217,-0.5498,-0.466,6.878,1.336
2026-06-26 15:50:06.849,77579009,194849,1,0.98022,0.17993,0.35107,-2.977,2.71,0.779
2026-06-26 15:50:06.849,77579009,194849,2,0.81958,-0.22559,-0.54126,0.71,5.588,1.023
2026-06-26 15:50:07.049,77579209,195049,1,0.98584,0.16553,0.36182,-5.481,1.298,-0.695
2026-06-26 15:50:07.049,77579209,195049,2,0.81982,-0.23584,-0.53491,-0.534,2.649,1.885
2026-06-26 15:50:07.270,77579430,195270,1,0.97778,0.16187,0.36401,-3.947,3.42,1.58
2026-06-26 15:50:07.270,77579430,195270,2,0.81152,-0.2373,-0.54272,-2.382,3.908,2.298
2026-06-26 15:50:07.575,77579735,195575,1,0.98608,0.15771,0.36499,-0.794,3.618,0.634
2026-06-26 15:50:07.575,77579735,195575,2,0.81177,-0.23169,-0.54663,0.962,-0.099,1.885
2026-06-26 15:50:07.941,77580101,195941,1,0.9812,0.15039,0.36401,-0.412,2.389,-0.794
2026-06-26 15:50:07.941,77580101,195941,2,0.81714,-0.24341,-0.54199,0.802,1.534,-1.908
2026-06-26 15:50:08.268,77580428,196268,1,0.979,0.14868,0.37378,3.603,1.962,1.252
2026-06-26 15:50:08.268,77580428,196268,2,0.81421,-0.23804,-0.54395,4.954,0.046,-2.702
2026-06-26 15:50:08.470,77580630,196470,1,0.98389,0.14136,0.36768,2.252,1.87,3.305
2026-06-26 15:50:08.470,77580630,196470,2,0.80811,-0.23999,-0.52148,1.191,2.336,-3.198
2026-06-26 15:50:08.764,77580924,196764,1,0.98169,0.12842,0.36133,4.115,0.473,0.885
2026-06-26 15:50:08.764,77580924,196764,2,0.82031,-0.21191,-0.54199,0.748,-7.305,0.916
2026-06-26 15:50:09.069,77581229,197069,1,0.99097,0.14966,0.34375,-2.237,-2.924,-5.786
2026-06-26 15:50:09.069,77581229,197069,2,0.79468,-0.22461,-0.57983,-0.885,0.267,1.13
2026-06-26 15:50:09.805,77581965,197805,1,0.99927,0.16895,0.31714,0.099,2.359,-0.611
2026-06-26 15:50:09.805,77581965,197805,2,0.78735,-0.21899,-0.58398,0.473,1.649,-0.038
2026-06-26 15:50:10.005,77582165,198005,1,1.00171,0.18335,0.31812,-0.031,2.595,-0.656
2026-06-26 15:50:10.005,77582165,198005,2,0.79346,-0.22998,-0.56055,-0.565,0.542,0.641
2026-06-26 15:50:10.243,77582403,198243,1,0.99634,0.17017,0.3147,-0.458,2.939,-1.198
2026-06-26 15:50:10.243,77582403,198243,2,0.7876,-0.23071,-0.57861,2.809,2.634,-1.542
2026-06-26 15:50:10.554,77582714,198554,1,1.00244,0.19067,0.32617,2.359,4.725,1.908
2026-06-26 15:50:10.554,77582714,198554,2,0.80884,-0.24292,-0.57153,3.26,7.481,-1.458
2026-06-26 15:50:10.837,77582997,198837,1,0.99561,0.15771,0.34961,1.321,10.336,6.55
2026-06-26 15:50:10.837,77582997,198837,2,0.81299,-0.23657,-0.52417,14.588,10.863,-5.924
2026-06-26 15:50:11.200,77583360,199200,1,0.94263,0.11011,0.41626,3.542,3.885,-0.038
2026-06-26 15:50:11.200,77583360,199200,2,0.82788,-0.2417,-0.51855,2.344,0.107,-3.023
2026-06-26 15:50:11.400,77583560,199400,1,0.98364,0.16211,0.36377,0.481,-0.069,0.542
2026-06-26 15:50:11.400,77583560,199400,2,0.83643,-0.24561,-0.52051,-3.008,2.489,1.275
2026-06-26 15:50:11.622,77583782,199622,1,0.97314,0.13232,0.3728,-7.282,1.26,-4.168
2026-06-26 15:50:11.622,77583782,199622,2,0.83813,-0.2439,-0.53223,2.275,-0.504,-0.527
2026-06-26 15:50:11.842,77584002,199842,1,0.97876,0.14209,0.38037,3.947,1.908,-0.344
2026-06-26 15:50:11.842,77584002,199842,2,0.83032,-0.23901,-0.52466,0.84,0.244,-1.206
2026-06-26 15:50:12.122,77584282,200122,1,0.97241,0.15332,0.38062,1.748,1.115,-0.863
2026-06-26 15:50:12.122,77584282,200122,2,0.82788,-0.21777,-0.52954,-1.504,0.458,-1.053
2026-06-26 15:50:15.818,77587978,203818,1,0.68359,-0.18286,0.85815,-1.389,-8.427,-9.893
2026-06-26 15:50:15.818,77587978,203818,1,0.68359,-0.18286,0.85815,-1.389,-8.427,-9.893
2026-06-26 15:50:15.818,77587978,203818,2,0.95972,-0.41846,-0.02417,-40.985,-77.244,-7.191
2026-06-26 15:50:15.818,77587978,203818,2,0.95972,-0.41846,-0.02417,-40.985,-77.244,-7.191
2026-06-26 15:50:26.166,77598326,214166,1,0.97852,0.1333,0.39209,1.725,3.176,0.42
2026-06-26 15:50:26.166,77598326,214166,1,0.97852,0.1333,0.39209,1.725,3.176,0.42
2026-06-26 15:50:26.166,77598326,214166,2,0.83008,-0.14355,-0.55493,8.389,4.008,-8.908
2026-06-26 15:50:26.166,77598326,214166,2,0.83008,-0.14355,-0.55493,8.389,4.008,-8.908
2026-06-26 15:50:36.444,77608604,224444,1,0.97168,0.13965,0.39185,-6.107,2.29,-2.733
2026-06-26 15:50:36.444,77608604,224444,2,0.86548,-0.15698,-0.49268,-4.87,1.023,4.962
2026-06-26 15:50:36.644,77608804,224644,1,0.9729,0.14429,0.38184,-5.603,1.092,-2.244
2026-06-26 15:50:36.644,77608804,224644,2,0.85425,-0.15674,-0.50391,-3.656,1.176,3.71
2026-06-26 15:50:37.002,77609162,225002,1,0.97803,0.14868,0.37964,-3.061,1.779,-2.099
2026-06-26 15:50:37.002,77609162,225002,2,0.84473,-0.1687,-0.51465,-1.611,0.443,0.672
2026-06-26 15:50:37.268,77609428,225268,1,0.9729,0.16016,0.38989,0.931,2.168,-0.649
2026-06-26 15:50:37.268,77609428,225268,2,0.85083,-0.14771,-0.51709,0.328,1.573,-0.885
2026-06-26 15:50:37.632,77609792,225632,1,0.97876,0.16333,0.37744,1.481,2.58,0.534
2026-06-26 15:50:37.632,77609792,225632,2,0.84082,-0.15063,-0.50928,0.794,2.282,-1.214
2026-06-26 15:50:37.939,77610099,225939,1,0.97876,0.16431,0.38184,2.153,2.084,0.061
2026-06-26 15:50:37.939,77610099,225939,2,0.85303,-0.15112,-0.51147,1.634,2.58,-1.573
2026-06-26 15:50:38.139,77610299,226139,1,0.979,0.17041,0.38403,2.183,2.168,0.557
2026-06-26 15:50:38.139,77610299,226139,2,0.84497,-0.14429,-0.50269,1.916,1.382,-2.122
2026-06-26 15:50:38.541,77610701,226541,1,0.97632,0.16895,0.37646,2.198,2.328,1.626
2026-06-26 15:50:38.541,77610701,226541,2,0.85767,-0.14966,-0.52417,1.626,1.214,-0.878
2026-06-26 15:50:38.766,77610926,226766,1,0.97388,0.16138,0.37476,1.618,3.466,0.763
2026-06-26 15:50:38.766,77610926,226766,2,0.8479,-0.14819,-0.51196,0.771,1.611,-0.145
2026-06-26 15:50:39.966,77612126,226966,1,0.97119,0.15747,0.38721,1.038,3.145,0.458
2026-06-26 15:50:39.966,77612126,226966,2,0.8584,-0.1626,-0.51318,1.901,2.099,-0.359
2026-06-26 15:50:39.166,77611326,227166,1,0.97778,0.16064,0.38135,0.863,2.55,-0.115
2026-06-26 15:50:39.166,77611326,227166,2,0.84497,-0.15356,-0.52734,0.618,1.588,-0.611
2026-06-26 15:50:39.617,77611777,227617,1,0.96802,0.16895,0.37695,1.427,2.137,0.588
2026-06-26 15:50:39.617,77611777,227617,2,0.84619,-0.13965,-0.50806,1.763,1.397,-0.939
2026-06-26 15:50:40.976,77613136,227976,1,0.97412,0.16553,0.36841,2.84,3.023,1.221
2026-06-26 15:50:40.976,77613136,227976,2,0.8606,-0.146,-0.49927,0.229,1.74,2.824
2026-06-26 15:50:42.627,77614787,230627,1,0.97192,0.15161,0.38525,-2.443,1.672,-2.053
2026-06-26 15:50:42.627,77614787,230627,2,0.85742,-0.14429,-0.51099,-2.26,0.382,0.718
2026-06-26 15:50:42.827,77614987,230827,1,0.96826,0.14111,0.3877,-0.664,2.084,-1.908
2026-06-26 15:50:42.827,77614987,230827,2,0.86279,-0.14673,-0.52002,-3.481,-0.687,0.924
2026-06-26 15:50:42.827,77614987,230827,2,0.86279,-0.14673,-0.52002,-3.481,-0.687,0.924
2026-06-26 15:50:48.039,77620199,236038,1,0.97705,0.12695,0.41187,1.901,2.977,1.069
2026-06-26 15:50:48.039,77620199,236038,1,0.97705,0.12695,0.41187,1.901,2.977,1.069
2026-06-26 15:50:48.039,77620199,236038,2,0.82349,-0.25928,-0.52271,-1.168,0.71,-1.046
2026-06-26 15:50:53.263,77625423,241263,1,0.97729,0.03394,0.40601,0.061,1.847,-0.069
2026-06-26 15:50:53.263,77625423,241263,2,0.82251,-0.27026,-0.52295,1.718,1.519,-0.603
2026-06-26 15:50:53.798,77625958,241798,1,0.97461,0.03076,0.41113,1.015,1.382,0.046
2026-06-26 15:50:53.798,77625958,241798,2,0.81006,-0.26416,-0.53418,-1.718,0.817,0.084
2026-06-26 15:50:54.067,77626227,242067,1,0.97632,0.01294,0.4043,-0.374,1.16,0.443
2026-06-26 15:50:54.067,77626227,242067,2,0.80737,-0.26587,-0.52905,0.336,2.031,-0.504
2026-06-26 15:50:54.429,77626589,242428,1,0.97998,0.02832,0.3999,1.626,2.664,0.221
2026-06-26 15:50:54.429,77626589,242428,2,0.81177,-0.2583,-0.51807,-0.382,2.733,-0.206
2026-06-26 15:50:54.821,77626981,242821,1,0.98291,0.03369,0.4104,-0.405,3.664,-0.458
2026-06-26 15:50:54.821,77626981,242821,2,0.82031,-0.25952,-0.51123,-0.55,4.267,0.26
2026-06-26 15:50:55.021,77627181,243021,1,0.97729,0.02539,0.40845,0.191,3.771,-0.794
2026-06-26 15:50:55.021,77627181,243021,2,0.81836,-0.2688,-0.52271,-3.038,0.252,0.687
2026-06-26 15:50:55.468,77627628,243468,1,0.98071,0.03564,0.41382,3.595,2.557,0.443
2026-06-26 15:50:55.468,77627628,243468,2,0.81641,-0.26245,-0.52783,-1.344,1.725,-0.466
2026-06-26 15:50:56.985,77629145,243984,1,0.97949,0.02344,0.40332,0.359,2.069,0.855
2026-06-26 15:50:56.985,77629145,243984,1,0.97949,0.02344,0.40332,0.359,2.069,0.855
2026-06-26 15:50:56.985,77629145,243984,2,0.84521,-0.21289,-0.49756,-2.466,2.992,-2.321
2026-06-26 15:51:02.297,77634457,250297,1,0.98608,0.07861,0.39233,4.832,5.809,3.229
2026-06-26 15:51:02.297,77634457,250297,1,0.98608,0.07861,0.39233,4.832,5.809,3.229
2026-06-26 15:51:02.297,77634457,250297,2,0.86572,-0.1792,-0.48779,0.878,2.137,-0.824
2026-06-26 15:51:08.989,77641149,255989,1,0.98022,0.09229,0.38062,0.229,2.55,0.931
2026-06-26 15:51:08.989,77641149,255989,2,0.86157,-0.18262,-0.48535,0.939,1.412,-0.824
2026-06-26 15:51:08.421,77640581,256421,1,0.98926,0.11304,0.38477,0.153,2.863,-0.351
2026-06-26 15:51:08.421,77640581,256421,2,0.86377,-0.19214,-0.48413,-2.55,-1.443,0.84
2026-06-26 15:51:08.748,77640908,256748,1,0.98511,0.10327,0.38257,1.901,1.74,0.351
2026-06-26 15:51:08.748,77640908,256748,2,0.8584,-0.18921,-0.50513,-0.206,0.779,-1.237
2026-06-26 15:51:09.023,77641183,257023,1,0.98657,0.09814,0.37354,4.107,5.015,5.382
2026-06-26 15:51:09.023,77641183,257023,2,0.8623,-0.17773,-0.50903,3.802,-1.015,-2.855
2026-06-26 15:51:09.363,77641523,257363,1,0.97974,0.06958,0.39258,8.359,3.527,6.237
2026-06-26 15:51:09.363,77641523,257363,2,0.85352,-0.17358,-0.48853,2.779,1.809,-1.603
2026-06-26 15:51:09.631,77641791,257631,1,0.98828,0.07617,0.39063,1.618,1.282,0.351
2026-06-26 15:51:09.631,77641791,257631,2,0.85596,-0.17822,-0.49438,-2.55,-0.405,0.786
2026-06-26 15:51:09.927,77642087,257927,1,0.97437,0.07324,0.41089,-1.718,4.328,0.542
2026-06-26 15:51:09.927,77642087,257927,2,0.86572,-0.19043,-0.49414,-2.74,3.366,0.115
2026-06-26 15:51:10.284,77642444,258284,1,0.97998,0.08057,0.40454,1.519,2.672,-2.26
2026-06-26 15:51:10.284,77642444,258284,2,0.83936,-0.17188,-0.50195,3.588,-2.092,-4.282
2026-06-26 15:51:10.484,77642644,258484,1,0.98975,0.09546,0.40015,3.252,-0.221,-1.786
2026-06-26 15:51:10.484,77642644,258484,2,0.86255,-0.17261,-0.51147,3.588,3.252,-2.794
2026-06-26 15:51:10.739,77642899,258738,1,0.98291,0.1001,0.39307,-0.099,1.244,-1.374
2026-06-26 15:51:10.739,77642899,258738,2,0.85059,-0.16333,-0.50293,-0.786,1.191,-1.733
2026-06-26 15:51:11.958,77644118,258958,1,0.99194,0.0979,0.39233,2.031,2.252,0.588
2026-06-26 15:51:11.958,77644118,258958,2,0.84253,-0.16309,-0.52026,1.153,-0.008,-1.29
2026-06-26 15:51:11.158,77643318,259158,1,0.99121,0.09399,0.38794,2.015,2.687,1.901
2026-06-26 15:51:11.158,77643318,259158,2,0.84058,-0.15845,-0.52466,0.756,0.382,-2.061
2026-06-26 15:51:11.158,77643318,259158,2,0.84058,-0.15845,-0.52466,0.756,0.382,-2.061
2026-06-26 15:51:16.517,77648677,264517,1,0.97241,0.09961,0.38916,1.481,2.13,-0.168
2026-06-26 15:51:16.517,77648677,264517,2,0.83569,-0.1604,-0.53125,-5.473,-0.267,0.626
2026-06-26 15:51:16.517,77648677,264517,2,0.83569,-0.1604,-0.53125,-5.473,-0.267,0.626
2026-06-26 15:51:21.673,77653833,269673,1,0.93018,-0.04175,0.48853,-0.71,-1.237,-5.756
2026-06-26 15:51:21.673,77653833,269673,2,0.91797,-0.19067,-0.3833,-4.466,-5.26,1.229
2026-06-26 15:51:21.873,77654033,269873,1,0.94482,-0.00732,0.4646,0.443,-1.206,-4.008
2026-06-26 15:51:21.873,77654033,269873,2,0.91846,-0.17261,-0.38306,-0.153,2.427,-1.015
2026-06-26 15:51:22.073,77654233,270073,1,0.95874,-0.00024,0.479,0.992,-3.145,-2.458
2026-06-26 15:51:22.073,77654233,270073,1,0.95874,-0.00024,0.479,0.992,-3.145,-2.458
2026-06-26 15:51:22.073,77654233,270073,2,0.92188,-0.14331,-0.42505,0.893,0.466,1.466
2026-06-26 15:51:27.601,77659761,275600,1,0.95801,0.08008,0.4436,1.756,2.511,3.756
2026-06-26 15:51:27.601,77659761,275600,2,0.90039,-0.14771,-0.44092,6.893,-2.588,2.443
2026-06-26 15:51:27.896,77660056,275896,1,0.96582,0.06372,0.46118,-5.87,13.58,16.763
2026-06-26 15:51:27.896,77660056,275896,2,0.95605,-0.20874,-0.43604,12.466,13.198,12.214
2026-06-26 15:51:28.140,77660300,276140,1,0.84326,-0.09717,0.50317,-23.962,23.237,48.603
2026-06-26 15:51:28.140,77660300,276140,2,0.83472,-0.62695,0.19263,1.924,1.977,0.389
2026-06-26 15:51:30.922,77663082,278922,1,0.57153,-0.5647,0.72974,-2.718,-1.87,-6.176
2026-06-26 15:51:30.922,77663082,278922,2,0.8418,-0.61597,0.19165,-14.618,-5.328,-4.672
2026-06-26 15:51:31.271,77663431,279271,1,0.71216,-0.43701,0.67017,3.649,-5.634,-22.42
2026-06-26 15:51:31.271,77663431,279271,2,0.95239,-0.4978,-0.02588,-43.74,1.328,-6.092
2026-06-26 15:51:31.483,77663643,279483,1,0.7561,-0.30908,0.68286,-13.145,14.481,-28.229
2026-06-26 15:51:31.483,77663643,279483,2,0.93262,-0.70044,-0.0332,-55.573,-8.74,12.641
2026-06-26 15:51:31.886,77664046,279885,1,0.71045,-0.43286,0.61548,-7.16,10.366,-18.473
2026-06-26 15:51:31.886,77664046,279885,2,0.8689,-0.59937,-0.10645,-20.664,5.779,-3.679
2026-06-26 15:51:32.397,77664557,280397,1,0.7915,-0.36621,0.58838,0.954,4.198,-12.13
2026-06-26 15:51:32.397,77664557,280397,2,0.91992,-0.03027,-0.41992,92.527,28.397,-39.74
2026-06-26 15:51:37.829,77669989,285829,1,0.95508,-0.01587,0.52515,42.824,2.489,9.336
2026-06-26 15:51:37.829,77669989,285829,2,0.93188,-0.11792,-0.35962,4.733,-14.763,-6.046
2026-06-26 15:51:38.121,77670281,286121,1,0.92578,-0.08838,0.50269,-14.328,-4.321,-12.626
2026-06-26 15:51:38.121,77670281,286121,2,0.95166,-0.07031,-0.38525,-24.275,-2.893,-3.443
2026-06-26 15:51:38.500,77670660,286500,1,1.0061,0.06348,0.41016,-11.183,-3.924,-21.855
2026-06-26 15:51:38.500,77670660,286500,2,0.94873,-0.04785,-0.38501,-4.298,0.763,2.382
2026-06-26 15:51:38.813,77670973,286813,1,0.94092,0.01099,0.4834,-20.618,10.366,-0.542
2026-06-26 15:51:38.813,77670973,286813,2,0.93237,-0.10913,-0.36743,-2.382,5.023,4.122
2026-06-26 15:51:39.017,77671177,287017,1,0.92041,0.01538,0.49707,13.389,-2.076,3.282
2026-06-26 15:51:39.017,77671177,287017,2,0.96094,-0.06982,-0.35327,12.557,-7.313,-3.84
2026-06-26 15:51:39.412,77671572,287412,1,0.98706,0.10547,0.38452,16.817,-6.725,-4.527
2026-06-26 15:51:39.412,77671572,287412,1,0.98706,0.10547,0.38452,16.817,-6.725,-4.527
2026-06-26 15:51:39.412,77671572,287412,2,0.91699,-0.1084,-0.42627,3.718,5.519,-4.603
2026-06-26 15:51:44.703,77676863,292703,1,0.96655,0.06519,0.43726,-3.275,5.481,-3.061
2026-06-26 15:51:44.703,77676863,292703,2,0.91089,-0.13086,-0.41211,-3.847,2.015,2.84
2026-06-26 15:51:44.922,77677082,292922,1,0.96216,0.05786,0.45728,-3.565,5.702,-4.405
2026-06-26 15:51:44.922,77677082,292922,2,0.91699,-0.11621,-0.40381,-1.206,6.374,0.626
2026-06-26 15:51:45.122,77677282,293122,1,0.95703,0.06909,0.44653,-9.046,0.527,-6.405
2026-06-26 15:51:45.122,77677282,293122,2,0.91333,-0.14014,-0.40967,-0.443,-4.618,3.275
2026-06-26 15:51:45.549,77677709,293549,1,0.97729,0.073,0.4397,7.511,2.137,3.527
2026-06-26 15:51:45.549,77677709,293549,2,0.92969,-0.11963,-0.41284,11.374,0.214,-5.954
2026-06-26 15:51:45.749,77677909,293749,1,0.94336,0.09009,0.44116,2.405,1.282,2.84
2026-06-26 15:51:45.749,77677909,293749,2,0.91699,-0.11377,-0.43433,-0.595,1.916,-0.84
2026-06-26 15:51:46.123,77678283,294123,1,0.96655,0.07495,0.42773,-0.382,2.641,-2.229
2026-06-26 15:51:46.123,77678283,294123,2,0.90063,-0.13013,-0.43042,-9.069,-0.473,1.275
2026-06-26 15:51:46.408,77678568,294408,1,0.9668,0.09302,0.42896,-3.16,2.313,-1.084
2026-06-26 15:51:46.408,77678568,294408,2,0.91528,-0.13232,-0.4375,-0.885,4.298,-0.282
2026-06-26 15:51:46.840,77679000,294840,1,0.96313,0.09131,0.44922,1.58,2.496,-0.153
2026-06-26 15:51:46.840,77679000,294840,2,0.91479,-0.11353,-0.42041,0.153,2.13,-0.611
2026-06-26 15:51:47.276,77679436,295276,1,0.95728,0.09424,0.4231,-0.664,1.412,-1.534
2026-06-26 15:51:47.276,77679436,295276,2,0.91553,-0.12158,-0.43115,-3.29,-1.595,0.824
2026-06-26 15:51:47.476,77679636,295476,1,0.97046,0.09399,0.42822,0.481,1.962,0.847
2026-06-26 15:51:47.476,77679636,295476,2,0.92236,-0.09937,-0.43677,7.802,1.0,-2.626
2026-06-26 15:51:47.751,77679911,295751,1,0.95215,0.08911,0.42676,2.344,4.191,0.74
2026-06-26 15:51:47.751,77679911,295751,2,0.90601,-0.11035,-0.4248,5.618,4.908,-2.069
2026-06-26 15:51:48.051,77680211,296051,1,0.96118,0.09497,0.4353,,4.344,0.511
2026-06-26 15:51:48.051,77680211,296051,2,0.91089,-0.11841,-0.42749,-0.198,1.962,0.931
2026-06-26 15:51:48.383,77680543,296383,1,0.95947,0.08984,0.44165,-1.328,1.237,-1.267
2026-06-26 15:51:48.383,77680543,296383,2,0.90845,-0.12183,-0.44775,-0.802,0.832,-0.389
2026-06-26 15:51:48.605,77680765,296605,1,0.96216,0.09717,0.43335,0.824,1.939,-0.137
2026-06-26 15:51:48.605,77680765,296605,2,0.90991,-0.11816,-0.42822,3.221,2.244,-1.641
2026-06-26 15:51:48.888,77681048,296888,1,0.95898,0.09937,0.43628,2.321,2.863,1.466
2026-06-26 15:51:48.888,77681048,296888,2,0.91553,-0.11084,-0.42139,0.183,2.878,-1.198
2026-06-26 15:51:49.195,77681355,297195,1,0.95142,0.09351,0.42603,-1.901,2.237,0.84
2026-06-26 15:51:49.195,77681355,297195,2,0.92139,-0.11865,-0.44019,-1.542,-1.931,1.496
2026-06-26 15:51:49.416,77681576,297415,1,0.95581,0.08057,0.4436,0.527,2.389,0.282
2026-06-26 15:51:49.416,77681576,297415,2,0.91772,-0.11816,-0.43164,2.214,1.786,-1.527
2026-06-26 15:51:49.615,77681775,297615,1,0.9646,0.08813,0.43823,0.786,2.985,-0.542
2026-06-26 15:51:49.615,77681775,297615,2,0.9104,-0.1123,-0.43311,-3.504,1.092,2.076
2026-06-26 15:51:49.901,77682061,297901,1,0.95947,0.08862,0.43726,0.313,3.885,-0.168
2026-06-26 15:51:49.901,77682061,297901,2,0.91699,-0.125,-0.43237,1.382,3.321,-1.038
2026-06-26 15:51:50.226,77682386,298226,1,0.95728,0.08862,0.44385,0.611,2.725,0.008
2026-06-26 15:51:50.226,77682386,298226,2,0.92041,-0.11792,-0.42358,0.985,1.756,-1.214
2026-06-26 15:51:50.654,77682814,298654,1,0.96631,0.0918,0.43896,1.847,1.969,0.656
2026-06-26 15:51:50.654,77682814,298654,2,0.9165,-0.11328,-0.41919,3.458,1.351,-2.145
2026-06-26 15:51:50.854,77683014,298854,1,0.96069,0.08447,0.4353,0.794,2.427,1.87
2026-06-26 15:51:50.854,77683014,298854,2,0.91528,-0.10791,-0.42969,-1.855,1.214,-0.321
2026-06-26 15:51:51.054,77683214,299054,1,0.95923,0.09253,0.43091,1.817,2.649,1.176
2026-06-26 15:51:51.054,77683214,299054,2,0.9165,-0.104,-0.42651,0.336,2.55,-0.954
2026-06-26 15:51:51.254,77683414,299254,1,0.96094,0.09717,0.44751,0.595,3.328,0.137
2026-06-26 15:51:51.254,77683414,299254,2,0.91235,-0.10547,-0.41846,-3.046,3.427,0.008
2026-06-26 15:51:51.454,77683614,299454,1,0.97241,0.09033,0.43896,0.366,3.603,-0.855
2026-06-26 15:51:51.454,77683614,299454,2,0.92603,-0.10474,-0.41479,1.16,1.679,-0.885
2026-06-26 15:51:51.718,77683878,299718,1,0.95288,0.0896,0.44312,1.328,3.305,-0.29
2026-06-26 15:51:51.718,77683878,299718,2,0.9248,-0.10645,-0.41797,1.336,2.061,-0.695
2026-06-26 15:51:51.918,77684078,299918,1,0.95459,0.07471,0.44824,2.511,6.229,-3.611
2026-06-26 15:51:51.918,77684078,299918,2,0.91675,-0.12622,-0.40625,0.954,8.084,-2.511
2026-06-26 15:51:52.118,77684278,300118,1,0.95508,0.09766,0.44751,12.221,0.092,-3.26
2026-06-26 15:51:52.118,77684278,300118,2,0.92163,-0.09985,-0.42456,10.679,-2.885,-9.206
2026-06-26 15:51:52.353,77684513,300352,1,0.9563,0.15625,0.42578,20.573,4.664,1.656
2026-06-26 15:51:52.353,77684513,300352,2,0.9353,-0.10034,-0.4292,18.145,4.443,-12.802
2026-06-26 15:51:52.552,77684712,300552,1,0.93872,0.18018,0.45068,6.168,2.076,2.023
2026-06-26 15:51:52.552,77684712,300552,2,0.92114,-0.08496,-0.40283,-5.954,-2.038,2.756
2026-06-26 15:51:52.855,77685015,300855,1,0.94214,0.18066,0.44629,2.046,-7.244,-1.885
2026-06-26 15:51:52.855,77685015,300855,2,0.89673,-0.0874,-0.49902,26.603,-14.618,-1.198
2026-06-26 15:51:53.078,77685238,301078,1,0.99438,0.14624,0.37866,-7.626,0.84,7.656
2026-06-26 15:51:53.078,77685238,301078,2,0.8855,-0.10815,-0.49438,9.809,2.893,2.573
2026-06-26 15:51:53.314,77685474,301314,1,0.96021,0.12329,0.4187,-15.168,8.603,-7.74
2026-06-26 15:51:53.314,77685474,301314,2,0.87012,-0.13525,-0.45605,-7.802,4.992,2.603
2026-06-26 15:51:53.514,77685674,301514,1,0.948,0.15454,0.43481,-10.931,5.389,-11.336
2026-06-26 15:51:53.514,77685674,301514,2,0.87769,-0.18115,-0.48071,-18.565,-6.405,5.137
2026-06-26 15:51:54.958,77687118,301958,1,0.96313,0.13159,0.42798,14.038,-7.962,7.634
2026-06-26 15:51:54.958,77687118,301958,2,0.83862,-0.16235,-0.49731,-8.473,-1.595,0.405
2026-06-26 15:51:54.212,77686372,302212,1,0.90601,0.17969,0.36572,6.137,-9.328,6.466
2026-06-26 15:51:54.212,77686372,302212,2,0.88184,-0.12891,-0.51831,6.42,10.916,-0.901
2026-06-26 15:51:54.412,77686572,302412,1,0.9585,0.0813,0.44385,5.771,6.244,6.13
2026-06-26T15:51:58.222732,,,,,,,,,
2026-06-26T15:52:05.606448,,,,,,,,,
2026-06-26 15:52:05.372,77697532,7372,1,0.97607,0.10352,0.41309,2.206,2.252,0.893
2026-06-26 15:52:05.372,77697532,7372,2,0.84448,-0.19531,-0.51196,-0.282,1.55,-0.511
2026-06-26 15:52:06.937,77699097,7937,1,0.98022,0.09814,0.41138,1.122,2.427,-2.649
2026-06-26 15:52:06.937,77699097,7937,2,0.85132,-0.2168,-0.50903,-1.359,2.664,0.153
2026-06-26 15:52:06.184,77698344,8184,1,0.96387,0.09839,0.42725,-7.252,2.893,-0.855
2026-06-26 15:52:06.184,77698344,8184,2,0.85669,-0.21484,-0.48364,4.198,11.115,3.023
2026-06-26 15:52:06.480,77698640,8480,1,0.97095,0.07935,0.43774,3.992,5.328,5.405
2026-06-26 15:52:06.480,77698640,8480,2,0.85522,-0.19019,-0.49438,9.145,-0.313,-3.878
2026-06-26 15:52:07.680,77699840,8680,1,0.96729,0.10693,0.40918,2.29,0.374,-0.855
2026-06-26 15:52:07.680,77699840,8680,2,0.86157,-0.16943,-0.48804,-2.031,0.534,-3.252
2026-06-26 15:52:07.880,77700040,8880,1,0.979,0.11768,0.41235,0.832,0.389,-1.618
2026-06-26 15:52:07.880,77700040,8880,2,0.87231,-0.16138,-0.5061,-6.962,-3.153,0.42
2026-06-26 15:52:07.168,77699328,9168,1,0.97949,0.10718,0.39404,1.786,-1.962,-1.954
2026-06-26 15:52:07.168,77699328,9168,2,0.86523,-0.16431,-0.50513,0.71,-2.176,-2.053
2026-06-26 15:52:07.426,77699586,9426,1,0.98315,0.12109,0.39014,3.672,0.26,-2.015
2026-06-26 15:52:07.426,77699586,9426,2,0.85059,-0.14355,-0.51245,-0.275,-1.153,-1.344
2026-06-26 15:52:08.626,77700786,9626,1,0.97949,0.12915,0.39575,1.847,2.069,-1.237
2026-06-26 15:52:08.626,77700786,9626,2,0.84595,-0.1543,-0.51978,0.427,-0.305,-0.618
2026-06-26 15:52:08.847,77701007,9847,1,0.99341,0.12891,0.38818,0.641,2.42,-0.954
2026-06-26 15:52:08.847,77701007,9847,2,0.84692,-0.15161,-0.5144,2.244,-0.176,-0.901
2026-06-26 15:52:08.069,77700229,10069,1,0.97803,0.13525,0.38477,1.389,1.603,-1.878
2026-06-26 15:52:08.069,77700229,10069,2,0.83813,-0.16724,-0.51978,0.374,1.809,0.786
2026-06-26 15:52:08.305,77700465,10304,1,0.97729,0.13452,0.38892,1.359,2.26,-1.504
2026-06-26 15:52:08.305,77700465,10304,2,0.83032,-0.16064,-0.51758,-0.168,-0.366,-1.924
2026-06-26 15:52:09.590,77701750,10589,1,0.98291,0.15942,0.3877,2.908,2.527,0.351
2026-06-26 15:52:09.590,77701750,10589,2,0.84229,-0.16479,-0.521,1.214,1.725,-0.115
2026-06-26 15:52:09.215,77701375,11215,1,0.98267,0.13892,0.38477,0.237,2.321,0.748
2026-06-26 15:52:09.215,77701375,11215,2,0.83276,-0.16504,-0.53809,1.733,1.275,0.473
2026-06-26 15:52:10.506,77702666,11506,1,0.98193,0.13013,0.38721,-0.504,3.649,0.969
2026-06-26 15:52:10.506,77702666,11506,2,0.83203,-0.1626,-0.53589,1.878,1.504,-0.374
2026-06-26 15:52:10.828,77702988,11828,1,0.96973,0.13599,0.37622,0.55,1.809,0.038
2026-06-26 15:52:10.828,77702988,11828,2,0.82837,-0.17334,-0.53296,0.229,1.702,-0.511
2026-06-26 15:52:10.104,77702264,12104,1,0.98633,0.14771,0.38086,0.954,1.26,-0.382
2026-06-26 15:52:10.104,77702264,12104,2,0.8335,-0.17334,-0.53857,1.282,1.863,-0.389
2026-06-26 15:52:10.322,77702482,12321,1,0.97803,0.13574,0.37476,1.107,1.74,0.748
2026-06-26 15:52:10.322,77702482,12321,2,0.82007,-0.17041,-0.53931,-1.763,1.313,-0.198
2026-06-26 15:52:11.634,77703794,12634,1,0.98438,0.13867,0.37329,2.366,2.435,0.931
2026-06-26 15:52:11.634,77703794,12634,2,0.82568,-0.16577,-0.53638,-0.313,1.443,-1.298
2026-06-26 15:52:11.993,77704153,12993,1,0.98267,0.13525,0.36572,2.702,2.107,1.267
2026-06-26 15:52:11.993,77704153,12993,2,0.85254,-0.15405,-0.53027,2.0,6.496,-1.084
2026-06-26 15:52:11.303,77703463,13302,1,1.00903,0.13696,0.37183,-3.855,7.924,0.947
2026-06-26 15:52:11.303,77703463,13302,2,0.86035,-0.23145,-0.4165,10.328,33.519,5.122
2026-06-26 15:52:12.729,77704889,13729,1,0.96753,0.09644,0.46265,-21.351,1.26,-0.863
2026-06-26 15:52:12.729,77704889,13729,2,0.83228,-0.14673,-0.45923,-30.802,-16.779,17.176
2026-06-26 15:52:13.515,77705675,14515,1,1.17285,0.26367,0.38403,6.435,30.473,-7.053
2026-06-26 15:52:13.515,77705675,14515,2,0.95825,-0.10986,-0.45752,12.069,11.473,-1.519
2026-06-26 15:52:13.905,77706065,14905,1,0.93726,0.17407,0.33252,17.458,33.756,18.321
2026-06-26 15:52:13.905,77706065,14905,2,0.84717,-0.05933,-0.47998,-6.878,-8.168,3.397
2026-06-26 15:52:13.318,77705478,15318,1,0.96973,0.15845,0.3396,6.794,-6.359,0.466
2026-06-26 15:52:13.318,77705478,15318,2,0.8479,-0.04858,-0.43408,-33.573,21.702,-18.198
2026-06-26 15:52:14.635,77706795,15634,1,0.9646,0.21045,0.36182,1.221,10.183,0.061
2026-06-26 15:52:14.635,77706795,15634,2,0.8855,-0.1167,-0.46338,-19.847,10.58,16.45
2026-06-26 15:52:14.887,77707047,15887,1,0.98511,0.17236,0.36426,-16.206,6.542,-6.16
2026-06-26 15:52:14.887,77707047,15887,2,0.87354,-0.16235,-0.45215,0.122,-3.641,0.786
2026-06-26 15:52:14.175,77706335,16175,1,1.00684,0.21997,0.35864,3.374,14.473,11.015
2026-06-26 15:52:14.175,77706335,16175,2,0.89014,-0.11597,-0.47168,-6.122,1.435,3.916
2026-06-26 15:52:14.389,77706549,16389,1,0.94189,0.16675,0.4397,-6.71,10.397,3.962
2026-06-26 15:52:14.389,77706549,16389,2,0.89355,-0.14722,-0.45044,-5.046,-2.489,3.214
2026-06-26 15:52:15.764,77707924,16764,1,0.9436,0.13794,0.43213,1.26,-4.206,-2.756
2026-06-26 15:52:15.764,77707924,16764,2,0.89429,-0.14893,-0.45898,-2.359,-7.679,-1.718
2026-06-26 15:52:15.988,77708148,16988,1,0.9729,0.14819,0.39648,1.015,-1.305,-4.672
2026-06-26 15:52:15.988,77708148,16988,2,0.87207,-0.15674,-0.47632,-3.527,1.649,0.237
2026-06-26 15:52:15.188,77707348,17188,1,0.96948,0.16772,0.3999,5.71,1.748,0.557
2026-06-26 15:52:15.188,77707348,17188,2,0.87061,-0.13989,-0.47559,4.977,1.992,-3.74
2026-06-26 15:52:22.475,77714635,24475,1,0.97681,0.21899,0.37622,11.893,6.817,3.901
2026-06-26 15:52:22.475,77714635,24475,2,0.89648,-0.12012,-0.44482,10.779,1.924,-8.824
2026-06-26 15:52:23.743,77715903,24743,1,0.9729,0.22363,0.38037,12.603,5.656,4.466
2026-06-26 15:52:23.743,77715903,24743,2,0.90796,-0.11523,-0.44116,9.008,0.931,-5.771
2026-06-26 15:52:23.005,77715165,25005,1,0.95605,0.21948,0.38086,3.588,2.847,1.298
2026-06-26 15:52:23.005,77715165,25005,2,0.9043,-0.1167,-0.44287,-2.076,0.954,0.908
2026-06-26 15:52:23.285,77715445,25285,1,0.96265,0.21851,0.36987,-4.725,0.29,-1.557
2026-06-26 15:52:23.285,77715445,25285,2,0.8999,-0.11768,-0.45654,-6.763,0.443,3.779
2026-06-26 15:52:24.672,77716832,25671,1,0.97583,0.22925,0.35938,-10.763,-1.267,-1.649
2026-06-26 15:52:24.672,77716832,25671,2,0.88989,-0.11377,-0.47144,-9.466,-1.099,7.229
2026-06-26 15:52:24.971,77717131,25971,1,0.98096,0.21191,0.354,-7.901,-0.145,-3.038
2026-06-26 15:52:24.971,77717131,25971,2,0.87427,-0.12231,-0.4812,-3.473,0.366,4.015
2026-06-26 15:52:24.171,77716331,26171,1,0.96924,0.20825,0.3584,-6.374,1.878,-1.794
2026-06-26 15:52:24.171,77716331,26171,2,0.86841,-0.1355,-0.4873,-5.015,0.588,4.595
2026-06-26 15:52:24.401,77716561,26401,1,0.98267,0.19849,0.36328,-5.305,1.244,-1.542
2026-06-26 15:52:24.401,77716561,26401,2,0.87231,-0.13501,-0.47461,-2.748,2.565,1.725
2026-06-26 15:52:25.700,77717860,26700,1,0.96802,0.20483,0.37573,-3.13,2.053,-0.359
2026-06-26 15:52:25.700,77717860,26700,2,0.87134,-0.1333,-0.48706,-1.687,1.641,2.489
2026-06-26 15:52:25.900,77718060,26900,1,0.97266,0.19629,0.35181,-5.45,-0.412,-1.878
2026-06-26 15:52:25.900,77718060,26900,2,0.85938,-0.13892,-0.49048,-3.634,2.267,3.191
2026-06-26 15:52:25.387,77717547,27386,1,0.97827,0.18286,0.36426,-1.695,0.489,-0.794
2026-06-26 15:52:25.387,77717547,27386,2,0.86841,-0.14429,-0.49048,-0.084,1.42,-0.771
2026-06-26 15:52:26.659,77718819,27659,1,0.97681,0.20337,0.36426,1.977,2.069,0.107
2026-06-26 15:52:26.659,77718819,27659,2,0.87476,-0.14185,-0.50244,7.672,2.191,-3.092
2026-06-26 15:52:26.896,77719056,27896,1,1.01221,0.21191,0.38965,14.794,-2.336,10.427
2026-06-26 15:52:26.896,77719056,27896,2,0.88916,-0.13672,-0.54785,8.244,-12.756,-1.099
2026-06-26 15:52:26.306,77718466,28305,1,0.95483,0.1416,0.38184,-20.489,4.802,-2.786
2026-06-26 15:52:26.306,77718466,28305,2,0.81128,-0.18701,-0.56714,-1.496,3.275,2.878
2026-06-26 15:52:27.635,77719795,28635,1,0.98242,0.14209,0.37036,-8.16,3.275,-6.763
2026-06-26 15:52:27.635,77719795,28635,2,0.81665,-0.20093,-0.56567,1.45,-0.038,-1.29
2026-06-26 15:52:27.897,77720057,28897,1,0.97046,0.14185,0.38086,4.137,4.618,0.725
2026-06-26 15:52:27.897,77720057,28897,2,0.80859,-0.18628,-0.56104,3.534,-3.023,-1.901
2026-06-26 15:52:27.259,77719419,29259,1,0.98535,0.13184,0.37109,3.359,1.885,0.435
2026-06-26 15:52:27.259,77719419,29259,2,0.80298,-0.20093,-0.58862,3.84,-1.366,-0.924
2026-06-26 15:52:28.570,77720730,29570,1,0.97974,0.12915,0.3645,-1.901,1.672,-1.435
2026-06-26 15:52:28.570,77720730,29570,2,0.76953,-0.1875,-0.57178,6.565,-4.405,-3.725
2026-06-26 15:52:28.774,77720934,29774,1,0.97729,0.12231,0.375,3.214,2.328,-0.573
2026-06-26 15:52:28.774,77720934,29774,2,0.77515,-0.19849,-0.59033,4.885,-1.763,-8.908
2026-06-26 15:52:28.774,77720934,29774,2,0.77515,-0.19849,-0.59033,4.885,-1.763,-8.908
2026-06-26 15:52:33.171,77725331,35171,1,0.99609,0.12207,0.37598,21.031,3.351,2.847
2026-06-26 15:52:33.171,77725331,35171,2,0.82471,-0.11401,-0.54224,3.863,7.954,-2.71
2026-06-26 15:52:34.502,77726662,35502,1,0.99927,0.13867,0.38013,8.237,3.908,2.489
2026-06-26 15:52:34.502,77726662,35502,2,0.85181,-0.11743,-0.50854,14.267,2.977,-2.893
2026-06-26 15:52:34.940,77727100,35940,1,0.97485,0.13208,0.40527,1.046,6.237,5.0
2026-06-26 15:52:34.940,77727100,35940,2,0.85596,-0.11743,-0.49829,-0.244,5.588,0.252
2026-06-26 15:52:34.940,77727100,35940,2,0.85596,-0.11743,-0.49829,-0.244,5.588,0.252
2026-06-26 15:52:39.193,77731353,41193,1,0.98413,0.17456,0.36279,-3.252,4.084,1.809
2026-06-26 15:52:39.193,77731353,41193,1,0.98413,0.17456,0.36279,-3.252,4.084,1.809
2026-06-26 15:52:39.193,77731353,41193,2,1.09375,-0.03003,0.0459,-84.206,-93.542,8.038
2026-06-26 15:52:44.333,77736493,46332,1,0.93726,0.13379,0.52905,-49.206,-27.908,-38.534
2026-06-26 15:52:44.333,77736493,46332,2,1.06592,0.02612,-0.88403,44.557,-25.87,-12.466
2026-06-26 15:52:45.779,77737939,46779,1,0.89087,0.43823,0.80542,-24.55,-10.336,-8.641
2026-06-26 15:52:45.779,77737939,46779,2,0.69702,0.1189,-1.17578,52.443,27.13,-38.718
2026-06-26 15:52:45.979,77738139,46979,1,0.84497,0.09131,0.48486,-1.023,3.84,11.267
2026-06-26 15:52:45.979,77738139,46979,1,0.84497,0.09131,0.48486,-1.023,3.84,11.267
2026-06-26 15:52:45.979,77738139,46979,2,0.92578,0.06445,-0.34985,-87.244,-43.527,26.344
2026-06-26 15:52:53.893,77746053,54893,1,1.06543,-0.00244,0.28369,40.344,34.031,5.527
2026-06-26 15:52:53.893,77746053,54893,2,0.98047,0.03564,-0.29785,14.87,8.672,-5.069
2026-06-26 15:52:53.093,77745253,55093,1,1.00952,0.05249,0.42725,-8.634,-7.046,1.084
2026-06-26 15:52:53.093,77745253,55093,2,1.0354,0.01465,-0.26147,33.351,16.794,-13.16
2026-06-26 15:52:53.293,77745453,55293,1,0.93237,-0.04517,0.5061,13.954,25.962,2.405
2026-06-26 15:52:53.293,77745453,55293,2,0.99487,0.03101,-0.28418,-8.237,-3.267,-0.557
2026-06-26 15:52:54.511,77746671,55510,1,0.94849,-0.03931,0.48706,-1.221,-4.344,-0.191
2026-06-26 15:52:54.511,77746671,55510,2,0.98193,0.03027,-0.28296,3.45,4.244,1.069
2026-06-26 15:52:54.879,77747039,55879,1,1.0022,-0.04175,0.3313,1.145,-4.695,-0.534
2026-06-26 15:52:54.879,77747039,55879,2,0.98584,0.01465,-0.32568,3.634,0.71,-2.733
2026-06-26 15:52:54.138,77746298,56137,1,1.03442,-0.03613,0.30518,-3.26,-2.168,-0.595
2026-06-26 15:52:54.138,77746298,56137,2,0.97583,0.0105,-0.31201,4.962,1.962,-2.061
2026-06-26 15:52:54.392,77746552,56392,1,1.02148,0.09497,0.35107,114.672,27.702,2.893
2026-06-26 15:52:54.392,77746552,56392,2,0.96655,0.03784,-0.32568,-2.779,1.924,1.824
2026-06-26 15:52:55.638,77747798,56638,1,1.02466,-0.02319,0.32715,-74.176,-5.26,-15.565
2026-06-26 15:52:55.638,77747798,56638,2,0.98901,0.01953,-0.29468,-19.542,-6.427,1.954
2026-06-26 15:52:55.948,77748108,56948,1,1.01514,-0.00464,0.28394,-3.252,-0.084,-0.947
2026-06-26 15:52:55.948,77748108,56948,2,0.94263,0.07178,-0.42188,42.275,29.183,-10.313
2026-06-26 15:52:55.211,77747371,57211,1,1.00244,0.02905,0.27979,-2.702,-10.855,-3.611
2026-06-26 15:52:55.211,77747371,57211,2,0.89673,0.1438,0.08594,168.206,191.679,-40.977
2026-06-26 15:52:55.411,77747571,57411,1,1.07788,-0.05615,0.42114,33.542,7.061,16.863
2026-06-26 15:52:55.411,77747571,57411,2,1.00903,0.03662,0.4436,6.901,6.947,-4.534
2026-06-26 15:52:56.824,77748984,57824,1,1.03735,-0.01172,0.38159,1.031,0.908,0.878
2026-06-26 15:52:56.824,77748984,57824,2,0.95557,0.05371,0.48389,19.824,-27.863,-31.664
2026-06-26 15:52:56.234,77748394,58234,1,1.00269,0.04614,0.27905,20.389,26.443,9.885
2026-06-26 15:52:56.234,77748394,58234,2,1.14233,-0.09814,0.09668,-176.618,-117.038,14.58
2026-06-26 15:52:56.434,77748594,58434,1,1.01245,0.04028,0.2312,-1.527,15.786,4.282
2026-06-26 15:52:56.434,77748594,58434,2,0.98242,0.00879,-0.35205,-12.763,-18.931,-3.763
2026-06-26 15:52:57.849,77750009,58849,1,1.01465,-0.01611,0.27686,-0.573,3.855,2.0
2026-06-26 15:52:57.849,77750009,58849,2,0.99463,-0.02075,-0.2395,-4.305,-1.153,5.611
2026-06-26 15:52:57.072,77749232,59072,1,1.02637,-0.02905,0.29297,-3.817,3.504,-0.466
2026-06-26 15:52:57.072,77749232,59072,2,0.98804,-0.04858,-0.26172,0.115,-1.031,0.504
2026-06-26 15:52:57.072,77749232,59072,2,0.98804,-0.04858,-0.26172,0.115,-1.031,0.504
2026-06-26 15:53:02.226,77754386,64226,1,1.0144,0.01514,0.28784,0.649,1.847,-0.313
2026-06-26 15:53:02.226,77754386,64226,2,0.97241,-0.01001,-0.31421,-1.328,-0.359,-0.031
2026-06-26 15:53:02.426,77754586,64426,1,1.01318,0.01807,0.28052,-0.153,0.366,-1.336
2026-06-26 15:53:02.426,77754586,64426,2,0.97119,-0.00366,-0.33081,-2.351,-0.084,0.328
2026-06-26 15:53:03.626,77755786,64626,1,1.02393,0.01929,0.26733,0.748,1.252,-0.099
2026-06-26 15:53:03.626,77755786,64626,2,0.9751,-0.04077,-0.32935,-11.008,12.344,1.87
2026-06-26 15:53:05.245,77757405,67245,1,1.02148,-0.01563,0.35498,-9.191,0.351,-3.534
2026-06-26 15:53:05.245,77757405,67245,2,0.94995,-0.07617,-0.21216,-49.275,2.626,11.053
2026-06-26 15:53:05.445,77757605,67445,1,0.97559,-0.04395,0.30957,-32.191,-7.908,-12.397
2026-06-26 15:53:05.445,77757605,67445,2,0.9585,0.02759,-0.21313,-30.664,-21.84,14.198
2026-06-26 15:53:06.645,77758805,67645,1,1.11255,0.0166,0.3418,-17.344,-7.878,-8.847
2026-06-26 15:53:06.645,77758805,67645,2,0.92822,0.07959,-0.38403,-4.542,-3.557,-6.069
2026-06-26 15:53:06.971,77759131,67971,1,0.95703,0.05688,0.32935,23.084,2.328,-5.817
2026-06-26 15:53:06.971,77759131,67971,2,0.95996,0.03345,-0.3064,42.252,11.496,-0.855
2026-06-26 15:53:06.220,77758380,68220,1,1.07764,0.01221,0.31641,17.191,-2.076,8.756
2026-06-26 15:53:06.220,77758380,68220,2,0.9624,0.04785,-0.30273,3.901,7.427,-8.519
2026-06-26 15:53:07.577,77759737,68577,1,0.97388,0.02295,0.38159,3.168,2.87,2.786
2026-06-26 15:53:07.577,77759737,68577,2,0.96802,0.11865,-0.27026,-12.687,0.565,-0.908
2026-06-26 15:53:07.896,77760056,68896,1,1.04321,0.03271,0.34058,-10.519,-5.305,-8.069
2026-06-26 15:53:07.896,77760056,68896,2,1.00488,0.05811,-0.29517,-22.733,1.985,-3.427
2026-06-26 15:53:07.219,77759379,69219,1,0.99292,0.00952,0.3313,6.947,4.725,4.954
2026-06-26 15:53:07.219,77759379,69219,2,0.96753,0.07129,-0.32593,11.992,-1.458,-1.702
2026-06-26 15:53:07.437,77759597,69436,1,0.99683,0.00146,0.33765,7.985,-2.313,5.496
2026-06-26 15:53:07.437,77759597,69436,2,0.9624,0.10034,-0.3103,1.855,2.847,-6.969
2026-06-26 15:53:08.636,77760796,69636,1,0.98901,-0.0105,0.30176,6.84,-0.099,6.16
2026-06-26 15:53:08.636,77760796,69636,2,1.04321,0.07813,-0.26416,-2.397,7.183,-2.817
2026-06-26 15:53:08.836,77760996,69836,1,0.95898,0.00854,0.35278,-4.725,15.015,5.939
2026-06-26 15:53:08.836,77760996,69836,2,0.98267,0.04004,-0.26221,-13.336,4.687,12.618
2026-06-26 15:53:08.072,77760232,70071,1,0.9646,-0.03369,0.40063,3.069,-0.023,0.305
2026-06-26 15:53:08.072,77760232,70071,2,0.96729,0.07178,-0.31763,0.252,3.382,-1.534
2026-06-26 15:53:11.135,77763295,73135,1,1.00366,-0.02441,0.31934,-0.748,2.565,-0.252
2026-06-26 15:53:11.135,77763295,73135,2,0.97339,0.08252,-0.3042,-1.87,2.977,-0.359
2026-06-26 15:53:11.335,77763495,73335,1,0.99854,-0.01489,0.31592,-7.916,2.809,-0.969
2026-06-26 15:53:11.335,77763495,73335,2,0.96899,0.05273,-0.32324,-15.527,-4.405,7.137
2026-06-26 15:53:12.676,77764836,73676,1,1.01074,-0.05029,0.30981,-3.779,-0.489,0.267
2026-06-26 15:53:12.676,77764836,73676,2,0.96094,0.07373,-0.3186,4.504,0.748,-2.802
2026-06-26 15:53:12.970,77765130,73970,1,1.00293,-0.04395,0.31201,5.771,2.298,0.16
2026-06-26 15:53:12.970,77765130,73970,2,0.97363,0.06787,-0.32227,5.969,3.702,-3.603
2026-06-26 15:53:12.170,77764330,74170,1,1.00879,-0.01489,0.32202,2.313,2.206,-0.84
2026-06-26 15:53:12.170,77764330,74170,2,0.9624,0.07715,-0.30493,1.252,2.282,-0.977
2026-06-26 15:53:13.484,77765644,74484,1,1.00635,-0.01978,0.29272,-3.099,0.702,-2.076
2026-06-26 15:53:13.484,77765644,74484,2,0.97046,0.07446,-0.32153,-6.985,-1.084,1.55
2026-06-26 15:53:13.721,77765881,74721,1,1.00195,-0.02393,0.29395,-3.733,1.038,-1.405
2026-06-26 15:53:13.721,77765881,74721,2,0.94971,0.08398,-0.34375,-1.794,-0.748,-0.191
2026-06-26 15:53:13.953,77766113,74953,1,1.01318,-0.03076,0.29077,0.336,-0.756,-1.58
2026-06-26 15:53:13.953,77766113,74953,2,0.96997,0.07422,-0.37646,-0.779,-2.71,-0.725
2026-06-26 15:53:13.183,77765343,75182,1,1.02539,-0.01782,0.28369,2.427,1.618,-0.641
2026-06-26 15:53:13.183,77765343,75182,2,0.97119,0.08252,-0.3374,-2.527,4.901,-0.443
2026-06-26 15:53:14.231,77766391,76231,1,1.0166,-0.00757,0.29297,0.45,5.092,1.214
2026-06-26 15:53:14.231,77766391,76231,2,0.96533,0.08618,-0.3125,-1.366,0.908,0.443
2026-06-26 15:53:14.431,77766591,76431,1,1.01001,-0.0188,0.31006,0.13,3.748,0.427
2026-06-26 15:53:14.431,77766591,76431,2,0.95728,0.0918,-0.34229,2.702,0.229,-0.176
2026-06-26 15:53:15.631,77767791,76631,1,1.01392,-0.00562,0.29785,3.954,2.756,0.229
2026-06-26 15:53:15.631,77767791,76631,2,0.95923,0.08911,-0.3208,5.252,1.771,-0.771
2026-06-26 15:53:15.969,77768129,76969,1,1.01221,-0.00879,0.30371,0.817,2.229,0.74
2026-06-26 15:53:15.969,77768129,76969,2,0.95605,0.0918,-0.34912,1.771,1.321,0.252
2026-06-26 15:53:15.383,77767543,77383,1,1.01001,-0.01758,0.30518,0.771,2.641,0.374
2026-06-26 15:53:15.383,77767543,77383,2,0.96753,0.08447,-0.33301,0.939,2.389,-0.527
2026-06-26 15:53:16.653,77768813,77653,1,1.01001,-0.01807,0.2937,0.947,2.382,0.649
2026-06-26 15:53:16.653,77768813,77653,2,0.95483,0.09448,-0.34131,-0.763,1.366,-0.611
2026-06-26 15:53:16.997,77769157,77997,1,1.00757,-0.02588,0.30933,2.489,3.672,1.198
2026-06-26 15:53:16.997,77769157,77997,2,0.979,0.09741,-0.31445,-1.718,3.435,-0.931
2026-06-26 15:53:16.304,77768464,78304,1,1.01514,-0.03418,0.31494,-4.718,3.344,0.344
2026-06-26 15:53:16.304,77768464,78304,2,0.97192,0.09131,-0.30566,-1.908,0.366,1.496
2026-06-26 15:53:17.531,77769691,78531,1,1.00464,-0.0293,0.31982,-1.252,3.244,0.26
2026-06-26 15:53:17.531,77769691,78531,2,0.97339,0.08179,-0.32007,-1.626,1.924,0.26
2026-06-26 15:53:17.731,77769891,78731,1,1.0127,-0.02881,0.32764,0.519,3.267,0.122
2026-06-26 15:53:17.731,77769891,78731,2,0.96582,0.08594,-0.32349,0.908,0.511,-0.824
2026-06-26 15:53:17.011,77769171,79011,1,1.00293,-0.02612,0.31396,2.115,0.985,0.992
2026-06-26 15:53:17.011,77769171,79011,2,0.95557,0.08447,-0.32935,0.779,0.015,-1.779
2026-06-26 15:53:17.325,77769485,79324,1,1.00879,-0.0293,0.3042,3.16,1.023,1.244
2026-06-26 15:53:17.325,77769485,79324,2,0.96631,0.0874,-0.32788,-0.679,-0.786,0.504
2026-06-26 15:53:18.546,77770706,79546,1,1.01099,-0.0293,0.29663,-0.008,1.046,0.366
2026-06-26 15:53:18.546,77770706,79546,2,0.96924,0.08252,-0.32373,-1.183,1.42,0.985
2026-06-26 15:53:18.942,77771102,79942,1,1.01294,-0.04321,0.30737,0.359,1.924,0.817
2026-06-26 15:53:18.942,77771102,79942,2,0.95435,0.07617,-0.34351,4.198,1.985,-2.084
2026-06-26 15:53:18.283,77770443,80283,1,1.00928,-0.03711,0.3064,10.282,1.458,2.809
2026-06-26 15:53:18.283,77770443,80283,1,1.00928,-0.03711,0.3064,10.282,1.458,2.809
2026-06-26 15:53:18.283,77770443,80283,2,0.96411,0.11084,-0.31592,-0.153,2.427,-0.122
2026-06-26 15:53:24.882,77777042,85882,1,1.0127,-0.03491,0.29858,0.672,1.45,0.16
2026-06-26 15:53:24.882,77777042,85882,2,0.96362,0.104,-0.32739,3.145,1.786,-2.244
2026-06-26 15:53:24.291,77776451,86291,1,1.00684,-0.02979,0.30884,0.824,3.29,0.992
2026-06-26 15:53:24.291,77776451,86291,2,0.96143,0.10889,-0.31177,-5.382,-0.481,1.817
2026-06-26 15:53:25.491,77777651,86491,1,1.01196,-0.03247,0.31763,-3.511,2.023,-0.16
2026-06-26 15:53:25.491,77777651,86491,2,0.97827,0.11499,-0.31274,-2.71,6.962,-1.153
2026-06-26 15:53:25.800,77777960,86799,1,1.02832,-0.05054,0.29077,-2.229,11.0,2.328
2026-06-26 15:53:25.800,77777960,86799,2,1.06543,0.08423,-0.11938,20.053,25.748,7.176
2026-06-26 15:53:25.213,77777373,87213,1,0.95044,-0.13916,0.34473,5.687,-2.893,7.71
2026-06-26 15:53:25.213,77777373,87213,2,0.99756,0.13403,-0.11987,-62.023,-11.13,13.336
2026-06-26 15:53:25.413,77777573,87413,1,1.01367,-0.12915,0.3606,5.947,-3.084,7.206
2026-06-26 15:53:25.413,77777573,87413,2,1.00952,0.03149,-0.23389,2.603,-6.885,4.603
2026-06-26 15:53:26.843,77779003,87843,1,1.00293,-0.1228,0.37793,20.763,9.023,10.924
2026-06-26 15:53:26.843,77779003,87843,2,1.03638,0.02026,-0.19336,19.084,5.985,5.985
2026-06-26 15:53:26.237,77778397,88236,1,0.9541,-0.15161,0.42969,13.069,10.855,9.038
2026-06-26 15:53:26.237,77778397,88236,2,0.93726,0.05273,-0.19507,19.603,4.763,-6.313
2026-06-26 15:53:27.544,77779704,88543,1,0.94409,-0.11108,0.43091,0.588,1.939,-2.489
2026-06-26 15:53:27.544,77779704,88543,2,0.97583,0.0354,-0.26025,-1.0,-5.687,-5.542
2026-06-26 15:53:27.124,77779284,89124,1,0.99536,-0.09766,0.35449,5.626,-3.985,1.313
2026-06-26 15:53:27.124,77779284,89124,2,0.99707,0.07642,-0.2417,-3.847,-3.809,-2.275
2026-06-26 15:53:28.544,77780704,89544,1,1.02637,-0.0647,0.29663,-1.626,0.282,0.176
2026-06-26 15:53:28.544,77780704,89544,2,0.93604,0.07813,-0.33789,22.237,-1.351,-5.0
2026-06-26 15:53:28.897,77781057,89897,1,1.03369,-0.04932,0.31396,11.534,0.092,4.977
2026-06-26 15:53:28.897,77781057,89897,2,1.05322,0.11694,-0.35449,-17.366,-15.466,6.351
2026-06-26 15:53:28.287,77780447,90287,1,1.0271,-0.04492,0.26489,-3.702,1.115,-13.603
2026-06-26 15:53:28.287,77780447,90287,2,0.95532,-0.04102,-0.35889,19.305,11.794,1.542
2026-06-26 15:53:29.585,77781745,90585,1,1.01807,-0.02539,0.30713,6.153,11.137,11.924
2026-06-26 15:53:29.585,77781745,90585,2,0.97241,-0.05347,-0.34131,15.84,19.687,0.969
2026-06-26 15:53:29.801,77781961,90801,1,0.97388,-0.06226,0.36377,-0.649,7.969,6.84
2026-06-26 15:53:29.801,77781961,90801,2,0.97583,0.0061,-0.28589,17.099,10.916,-9.053
2026-06-26 15:53:29.207,77781367,91207,1,0.9707,-0.02148,0.38452,-14.634,3.588,-13.458
2026-06-26 15:53:29.207,77781367,91207,2,1.0293,0.02783,-0.27222,-21.466,-14.687,10.031
2026-06-26T15:53:32.389087,,,,,,,,,
2026-06-26 15:53:29.207,77781367,91207,2,1.0293,0.02783,-0.27222,-21.466,-14.687,10.031
2026-06-26 15:53:39.409,77791569,101409,1,1.05688,-0.01489,0.20801,-44.656,-8.076,-15.84
2026-06-26 15:53:39.409,77791569,101409,2,0.92896,-0.00781,-0.39111,-10.626,-15.695,16.847
2026-06-26 15:53:39.409,77791569,101409,2,0.92896,-0.00781,-0.39111,-10.626,-15.695,16.847
2026-06-26 15:53:45.621,77797781,106621,1,1.0293,0.00269,0.21973,-0.336,1.573,-2.061
2026-06-26 15:53:45.621,77797781,106621,2,0.92798,0.09277,-0.3894,-1.786,1.008,-0.84
2026-06-26 15:53:45.853,77798013,106853,1,1.03149,0.02368,0.19897,2.053,1.153,-1.0
2026-06-26 15:53:45.853,77798013,106853,2,0.93579,0.09937,-0.3855,-3.046,2.183,2.076
2026-06-26 15:53:45.853,77798013,106853,2,0.93579,0.09937,-0.3855,-3.046,2.183,2.076
2026-06-26 15:53:50.077,77802237,112077,1,0.66431,-0.05713,0.71411,1.664,57.252,17.58
2026-06-26 15:53:50.077,77802237,112077,2,1.15674,-0.30664,0.30811,13.0,50.756,39.092
2026-06-26 15:53:50.277,77802437,112277,1,0.50098,-0.32275,0.84766,11.969,60.977,29.87
2026-06-26 15:53:50.277,77802437,112277,2,0.93604,-0.24292,0.58154,40.634,66.046,10.817
2026-06-26 15:53:53.370,77805530,115370,1,0.13696,-0.31665,1.00073,0.779,1.481,1.901
2026-06-26 15:53:53.370,77805530,115370,2,0.97949,-0.32349,0.36816,-23.679,-89.0,-10.481
2026-06-26 15:53:54.894,77807054,115894,1,0.63452,-0.38257,0.67334,-26.008,-78.099,-42.611
2026-06-26 15:53:54.894,77807054,115894,2,1.02344,-0.06567,-0.19116,-17.313,-71.618,-39.802
2026-06-26 15:53:54.392,77806552,116392,1,1.03027,-0.04443,0.28247,2.679,-27.672,-16.534
2026-06-26 15:53:54.392,77806552,116392,2,0.97681,0.00024,-0.34009,-18.809,-18.305,-6.985
2026-06-26 15:53:55.110,77807270,117110,1,1.07983,-0.00195,0.18579,-2.198,30.679,15.015
2026-06-26 15:53:55.110,77807270,117110,2,1.09253,0.05713,-0.29858,-12.962,45.824,26.061
2026-06-26 15:53:55.310,77807470,117310,1,0.97266,-0.0459,0.23096,-11.992,85.855,36.71
2026-06-26 15:53:55.310,77807470,117310,2,0.98486,-0.15698,0.03174,34.855,56.031,24.214
2026-06-26 15:53:56.948,77809108,117948,1,0.49805,-0.38086,0.91577,-4.832,19.603,4.618
2026-06-26 15:53:56.948,77809108,117948,2,0.96826,-0.26343,0.48633,2.916,0.489,-2.481
2026-06-26 15:53:56.174,77808334,118174,1,0.43872,-0.36719,0.92773,-0.076,0.458,-6.359
2026-06-26 15:53:56.174,77808334,118174,2,0.99243,-0.21094,0.38599,-18.771,-56.817,-26.824
2026-06-26 15:53:56.481,77808641,118480,1,0.59302,-0.27197,0.75342,-16.435,-80.534,-60.351
2026-06-26 15:53:56.481,77808641,118480,2,1.00439,-0.18213,0.10181,-30.458,-91.061,-29.573
2026-06-26 15:53:57.680,77809840,118680,1,0.90552,-0.13232,0.38916,-2.183,-67.427,-43.672
2026-06-26 15:53:57.680,77809840,118680,2,0.94458,0.04834,-0.36572,-3.366,0.023,1.183
2026-06-26 15:54:02.524,77814684,123524,1,1.03296,-0.0271,0.24121,3.053,1.931,1.427
2026-06-26 15:54:02.524,77814684,123524,2,0.94702,0.05273,-0.36963,1.679,3.359,-1.58
2026-06-26 15:54:04.723,77816883,125723,1,1.0271,-0.06104,0.24536,-8.16,5.0,-0.267
2026-06-26 15:54:04.723,77816883,125723,2,0.94751,-0.03784,-0.37451,8.214,5.183,6.947
2026-06-26 15:54:04.105,77816265,126105,1,0.9917,-0.03345,0.29492,0.649,15.481,3.458
2026-06-26 15:54:04.105,77816265,126105,2,0.89722,0.04224,-0.33936,4.87,24.0,-17.87
2026-06-26 15:54:05.484,77817644,126484,1,0.98486,0.05908,0.28784,-27.565,-17.695,-19.244
2026-06-26 15:54:05.484,77817644,126484,2,0.98315,-0.02368,-0.35107,-2.977,-41.115,25.198
2026-06-26 15:54:05.729,77817889,126729,1,1.03076,0.04688,0.16699,31.649,-10.229,8.321
2026-06-26 15:54:05.729,77817889,126729,2,0.96924,0.04297,-0.34985,-2.45,8.496,-3.0
2026-06-26 15:54:05.105,77817265,127104,1,0.99805,-0.0271,0.30029,2.779,10.29,8.397
2026-06-26 15:54:05.105,77817265,127104,2,0.97681,0.09766,-0.26563,26.137,7.679,-8.954
2026-06-26 15:54:05.481,77817641,127481,1,1.00049,-0.06396,0.33594,12.29,2.008,11.13
2026-06-26 15:54:05.481,77817641,127481,2,0.99512,0.04541,-0.25757,6.122,0.115,0.313
2026-06-26 15:54:06.748,77818908,127748,1,1.00244,-0.09888,0.32642,2.389,-3.771,-1.183
2026-06-26 15:54:06.748,77818908,127748,2,0.99048,0.04492,-0.23779,-8.053,-1.641,-0.359
2026-06-26 15:54:06.194,77818354,128194,1,1.01587,-0.0957,0.33887,-1.573,9.878,5.275
2026-06-26 15:54:06.194,77818354,128194,2,0.99268,0.06543,-0.32471,-8.481,-4.237,4.74
2026-06-26 15:54:07.567,77819727,128567,1,1.00269,-0.08496,0.3252,-5.26,-3.687,-0.084
2026-06-26 15:54:07.567,77819727,128567,2,0.95508,0.04785,-0.29004,-0.099,-0.412,0.542
2026-06-26 15:54:07.254,77819414,129254,1,1.05103,-0.10913,0.32593,7.878,3.328,6.237
2026-06-26 15:54:07.254,77819414,129254,2,0.96606,0.04443,-0.30371,12.962,1.473,0.053
2026-06-26 15:54:08.558,77820718,129558,1,1.02515,-0.10425,0.31372,0.855,4.588,7.489
2026-06-26 15:54:08.558,77820718,129558,2,0.96216,0.02612,-0.28442,0.397,1.473,1.328
2026-06-26 15:54:08.852,77821012,129852,1,0.98389,-0.13135,0.30396,0.115,2.656,2.405
2026-06-26 15:54:08.852,77821012,129852,2,0.9585,0.05054,-0.31226,-9.718,-4.427,0.885
2026-06-26 15:54:08.214,77820374,130214,1,0.99756,-0.12183,0.28809,-8.244,-3.695,-4.351
2026-06-26 15:54:08.214,77820374,130214,2,1.04321,0.10742,-0.28564,-5.435,6.214,-6.74
2026-06-26 15:54:08.478,77820638,130478,1,0.9978,-0.10107,0.271,-12.878,4.374,-5.122
2026-06-26 15:54:08.478,77820638,130478,2,0.96948,0.05713,-0.32129,2.168,0.328,1.626
2026-06-26 15:54:09.931,77822091,130931,1,1.00732,-0.09619,0.26733,3.221,-2.481,-0.084
2026-06-26 15:54:09.931,77822091,130931,2,0.97021,0.07129,-0.32251,6.733,1.534,-4.305
2026-06-26 15:54:10.484,77822644,131484,1,0.99902,-0.08374,0.25439,-2.756,7.916,2.58
2026-06-26 15:54:10.484,77822644,131484,2,1.01343,0.08374,-0.34473,-3.099,10.939,1.069
2026-06-26 15:54:10.684,77822844,131684,1,1.01343,-0.11182,0.28662,-8.634,12.489,-3.656
2026-06-26 15:54:10.684,77822844,131684,2,0.97632,0.01587,-0.32715,-7.565,7.168,8.321
2026-06-26 15:54:10.884,77823044,131884,1,0.85474,-0.06104,0.31934,-31.458,12.855,-3.763
2026-06-26 15:54:10.884,77823044,131884,2,1.23047,0.28394,-0.40845,30.557,-22.794,15.985
2026-06-26 15:54:10.248,77822408,132248,1,1.02295,-0.03076,0.25049,50.229,-7.985,-1.817
2026-06-26 15:54:10.248,77822408,132248,2,1.03516,-0.00708,-0.2417,29.763,8.214,-8.0
2026-06-26 15:54:11.592,77823752,132592,1,1.02344,-0.00464,0.26855,-4.481,3.206,-6.0
2026-06-26 15:54:11.592,77823752,132592,2,0.96191,0.02686,-0.36475,0.206,-5.305,-4.504
2026-06-26 15:54:11.988,77824148,132988,1,1.02466,0.02197,0.25586,14.336,4.244,3.603
2026-06-26 15:54:11.988,77824148,132988,2,0.95898,0.02368,-0.30811,10.809,6.374,-5.344
2026-06-26 15:54:12.564,77824724,133564,1,1.05542,0.02197,0.30469,11.885,11.626,3.084
2026-06-26 15:54:12.564,77824724,133564,2,0.97852,0.04565,-0.29883,-7.71,-5.366,2.847
2026-06-26 15:54:12.958,77825118,133958,1,1.00342,0.0083,0.28589,1.672,-8.115,3.153
2026-06-26 15:54:12.958,77825118,133958,2,1.00781,0.07935,-0.31079,2.191,-2.046,4.351
2026-06-26 15:54:12.366,77824526,134366,1,1.01514,0.02539,0.24097,3.573,2.824,3.305
2026-06-26 15:54:12.366,77824526,134366,2,0.97827,0.09302,-0.31714,5.42,6.153,-0.817
2026-06-26 15:54:13.743,77825903,134743,1,1.03467,0.02515,0.25,-7.656,1.962,-1.947
2026-06-26 15:54:13.743,77825903,134743,2,0.96631,0.06421,-0.33423,-14.16,-4.962,11.931
2026-06-26 15:54:13.103,77825263,135103,1,1.02954,0.00928,0.24194,-15.863,3.405,-3.611
2026-06-26 15:54:13.103,77825263,135103,2,0.95483,0.03906,-0.35229,-2.71,2.992,3.046
2026-06-26 15:54:13.425,77825585,135425,1,1.02539,0.01563,0.2561,-3.473,4.275,-0.038
2026-06-26 15:54:13.425,77825585,135425,2,0.95605,0.03418,-0.35181,-5.405,0.061,2.557
2026-06-26 15:54:14.793,77826953,135792,1,1.01758,0.02197,0.25928,3.916,2.573,0.511
2026-06-26 15:54:14.793,77826953,135792,2,0.96313,0.05078,-0.36328,-1.985,0.092,-0.908
2026-06-26 15:54:14.154,77826314,136154,1,1.03027,0.00781,0.25293,4.763,2.847,-0.183
2026-06-26 15:54:14.154,77826314,136154,2,0.95142,0.03345,-0.36475,7.969,3.099,-3.725
2026-06-26 15:54:15.529,77827689,136529,1,1.021,0.03247,0.25073,3.908,3.405,1.779
2026-06-26 15:54:15.529,77827689,136529,2,0.97314,0.04858,-0.35156,3.0,2.641,-1.26
2026-06-26 15:54:15.862,77828022,136861,1,1.02808,0.02271,0.26636,-0.779,4.137,1.336
2026-06-26 15:54:15.862,77828022,136861,2,0.9624,0.03198,-0.33643,-0.42,3.374,1.176
2026-06-26 15:54:15.205,77827365,137205,1,1.02563,0.00439,0.26196,-0.863,2.901,1.412
2026-06-26 15:54:15.205,77827365,137205,2,0.96118,0.0271,-0.34302,-1.702,-0.046,0.947
2026-06-26 15:54:16.548,77828708,137548,1,1.02002,0.00513,0.26685,-1.382,0.878,0.427
2026-06-26 15:54:16.548,77828708,137548,2,0.95483,0.02661,-0.35449,-4.557,-2.191,1.84
2026-06-26 15:54:16.955,77829115,137955,1,1.02905,0.00586,0.25171,-2.595,2.481,-0.206
2026-06-26 15:54:16.955,77829115,137955,2,0.95947,0.02197,-0.36255,-0.115,2.42,1.397
2026-06-26 15:54:16.360,77828520,138360,1,1.03394,0.00513,0.25732,0.038,3.458,1.664
2026-06-26 15:54:16.360,77828520,138360,2,1.0144,0.01831,-0.30322,9.489,7.794,3.588
2026-06-26 15:54:17.766,77829926,138765,1,0.85229,-0.06396,0.20947,-9.977,39.916,12.183
2026-06-26 15:54:17.766,77829926,138765,2,0.85669,-0.09399,-0.16943,6.489,64.42,-5.145
2026-06-26 15:54:17.965,77830125,138965,1,0.8833,0.0127,0.34961,4.656,27.977,13.405
2026-06-26 15:54:17.965,77830125,138965,2,1.06201,-0.02661,-0.10254,12.817,17.099,7.809
2026-06-26 15:54:17.285,77829445,139285,1,0.97144,-0.14014,0.57422,-14.519,10.733,-3.435
2026-06-26 15:54:17.285,77829445,139285,2,1.13916,-0.20239,0.03198,1.405,16.992,-5.359
2026-06-26 15:54:18.753,77830913,139753,1,0.93091,-0.16821,0.66431,7.87,7.42,-6.916
2026-06-26 15:54:18.753,77830913,139753,2,1.11084,-0.1272,0.16846,3.893,25.321,-8.931
2026-06-26 15:54:18.097,77830257,140097,1,0.85986,-0.07153,0.65894,-2.962,9.153,-0.366
2026-06-26 15:54:18.097,77830257,140097,2,1.10278,-0.10449,0.18066,-1.237,16.313,-9.153
2026-06-26 15:54:19.564,77831724,140563,1,0.85254,-0.15649,0.86816,-25.763,21.618,-7.282
2026-06-26 15:54:19.564,77831724,140563,2,1.09448,-0.12891,0.31934,-5.0,-0.794,3.947
2026-06-26 15:54:19.842,77832002,140842,1,0.71094,-0.13892,0.8042,-7.359,-13.481,-2.656
2026-06-26 15:54:19.842,77832002,140842,2,1.02441,-0.11914,0.17896,-10.237,-33.573,-14.557
2026-06-26 15:54:19.132,77831292,141132,1,0.79858,-0.08081,0.57544,6.412,-40.069,-15.038
2026-06-26 15:54:19.132,77831292,141132,2,0.92798,-0.08179,0.02002,-14.099,-47.466,-18.618
2026-06-26 15:54:19.342,77831502,141342,1,0.82178,-0.07886,0.38452,2.298,-40.221,-6.969
2026-06-26 15:54:19.342,77831502,141342,2,1.01587,-0.02393,-0.16724,11.817,-25.947,-7.397
2026-06-26 15:54:20.718,77832878,141718,1,0.97729,-0.06299,0.36792,14.58,6.412,6.481
2026-06-26 15:54:20.718,77832878,141718,2,1.02563,0.00732,-0.1438,12.489,6.939,-4.229
2026-06-26 15:54:20.099,77832259,142099,1,0.96777,-0.05347,0.41919,2.405,6.107,2.26
2026-06-26 15:54:20.099,77832259,142099,2,1.03906,-0.01392,-0.14868,-3.328,4.55,1.298
2026-06-26 15:54:21.508,77833668,142508,1,1.03174,-0.07104,0.33521,0.359,15.84,5.137
2026-06-26 15:54:21.508,77833668,142508,2,1.07544,-0.05078,-0.01489,32.527,68.542,9.809
2026-06-26 15:54:21.782,77833942,142782,1,0.74951,-0.10815,0.37939,15.595,96.359,40.611
2026-06-26 15:54:21.782,77833942,142782,2,0.95264,-0.07153,0.5835,62.374,108.901,-7.511
2026-06-26 15:54:21.121,77833281,143121,1,0.2417,-0.15283,1.0061,3.115,107.0,12.832
2026-06-26 15:54:21.121,77833281,143121,2,0.70361,-0.021,0.9021,20.229,78.412,-6.573
2026-06-26 15:54:22.508,77834668,143508,1,-0.16846,-0.1792,1.07471,-2.366,40.511,3.298
2026-06-26 15:54:22.508,77834668,143508,2,0.45532,0.00293,1.00342,-0.802,15.802,0.504
2026-06-26 15:54:22.869,77835029,143869,1,-0.3501,-0.1665,1.08032,2.718,-0.26,2.634
2026-06-26 15:54:22.869,77835029,143869,2,0.44702,-0.01245,0.98682,-6.573,4.443,0.534
2026-06-26 15:54:22.074,77834234,144074,1,-0.28174,-0.16016,1.00708,-6.382,3.733,0.634
2026-06-26 15:54:22.074,77834234,144074,2,0.45313,0.01001,1.02368,-1.443,-4.092,2.664
2026-06-26 15:54:23.518,77835678,144518,1,-0.23315,-0.20972,0.97827,5.26,-5.183,3.481
2026-06-26 15:54:23.518,77835678,144518,2,0.50659,-0.01563,1.01758,-4.099,-10.618,2.939
2026-06-26 15:54:23.847,77836007,144846,1,-0.16064,-0.17505,0.9812,-0.641,-5.427,3.214
2026-06-26 15:54:23.847,77836007,144846,2,0.5542,-0.01147,0.98389,1.221,-7.427,1.809
2026-06-26 15:54:23.212,77835372,145212,1,-0.146,-0.16846,1.01758,1.939,-12.214,0.71
2026-06-26 15:54:23.212,77835372,145212,2,0.57886,-0.03735,0.95166,-2.443,-16.748,3.832
2026-06-26 15:54:24.583,77836743,145583,1,-0.1123,-0.198,1.23608,-2.962,-48.115,-10.817
2026-06-26 15:54:24.583,77836743,145583,2,0.93042,-0.09302,0.43921,-19.183,-121.832,-4.244
2026-06-26 15:54:24.038,77836198,146038,1,0.75537,-0.0708,0.54565,7.847,-104.748,-25.229
2026-06-26 15:54:24.038,77836198,146038,2,1.04199,-0.06787,-0.09644,-16.122,-58.489,4.328
2026-06-26 15:54:24.325,77836485,146325,1,0.93115,-0.06323,0.3645,6.557,-50.947,-15.664
2026-06-26 15:54:24.325,77836485,146325,2,1.00513,-0.04858,-0.30273,12.969,-19.305,-7.557
2026-06-26 15:54:25.703,77837863,146703,1,1.04126,-0.00073,0.23608,5.588,-9.794,2.573
2026-06-26 15:54:25.703,77837863,146703,2,0.95874,-0.01416,-0.38721,2.0,-2.26,-4.344
2026-06-26 15:54:25.118,77837278,147118,1,1.03418,-0.03223,0.21777,0.756,2.603,1.305
2026-06-26 15:54:25.118,77837278,147118,2,0.9436,-0.00708,-0.37451,-3.176,5.29,-2.221
2026-06-26 15:54:25.413,77837573,147413,1,1.01904,-0.02441,0.2522,-1.427,6.824,0.611
2026-06-26 15:54:25.413,77837573,147413,2,0.95898,0.00586,-0.36035,-3.13,3.229,-0.611
2026-06-26 15:54:26.613,77838773,147613,1,1.01514,-0.02783,0.23901,-1.084,5.099,-0.489
2026-06-26 15:54:26.613,77838773,147613,2,0.95898,0.01147,-0.3623,-3.412,0.71,0.435
2026-06-26 15:54:26.070,77838230,148070,1,1.02734,-0.02856,0.2522,0.473,2.397,-0.489
2026-06-26 15:54:26.070,77838230,148070,2,0.95923,0.02832,-0.35986,2.901,2.122,-2.557
2026-06-26 15:54:27.510,77839670,148510,1,1.02051,-0.02271,0.26758,1.221,4.824,1.573
2026-06-26 15:54:27.510,77839670,148510,2,0.95313,0.02539,-0.35278,0.824,2.588,-0.947
2026-06-26 15:54:27.921,77840081,148921,1,1.02075,-0.03369,0.27588,0.893,2.557,0.954
2026-06-26 15:54:27.921,77840081,148921,2,0.96094,0.02563,-0.33887,-2.351,1.824,-0.244
2026-06-26 15:54:27.160,77839320,149160,1,1.01318,-0.02832,0.27979,-2.038,2.939,-0.847
2026-06-26 15:54:27.160,77839320,149160,2,0.95825,0.03076,-0.34961,-2.053,1.779,0.237
2026-06-26 15:54:27.370,77839530,149370,1,1.02002,-0.03247,0.27588,-0.71,3.069,-0.076
