datetime,epoch_ms,ts_millis,mpu_id,ax,ay,az,gx,gy,gz
2026-06-17T23:35:15.284709,,,,,,,,,
2026-06-17 23:35:14.370,3622853826,5370,1,-0.21558,-0.93604,-0.08594,0.511,2.214,0.481
2026-06-17 23:35:14.370,3622853826,5370,2,-0.07886,-0.64404,0.88281,0.519,1.55,-0.481
2026-06-17 23:35:15.613,3622855069,5613,1,-0.22095,-0.93945,-0.08911,0.672,2.366,0.397
2026-06-17 23:35:15.613,3622855069,5613,2,-0.07178,-0.63696,0.8811,0.763,1.519,-0.588
2026-06-17 23:35:15.081,3622854537,6081,1,-0.2168,-0.93677,-0.09204,0.863,2.466,0.282
2026-06-17 23:35:15.081,3622854537,6081,2,-0.07642,-0.63843,0.88257,0.473,1.504,-0.191
2026-06-17 23:35:15.300,3622854756,6300,1,-0.21143,-0.93555,-0.08838,0.718,2.489,0.405
2026-06-17 23:35:15.300,3622854756,6300,2,-0.08789,-0.65332,0.88892,0.527,1.74,-0.656
2026-06-17 23:35:15.532,3622854988,6532,1,-0.22754,-0.94116,-0.09863,0.786,2.275,0.412
2026-06-17 23:35:15.532,3622854988,6532,2,-0.06567,-0.63843,0.87329,0.557,1.679,-0.443
2026-06-17 23:35:16.885,3622856341,6885,1,-0.21436,-0.94019,-0.09521,0.473,2.336,0.344
2026-06-17 23:35:16.885,3622856341,6885,2,-0.07056,-0.63989,0.87817,0.702,1.603,-0.489
2026-06-17 23:35:16.117,3622855573,7116,1,-0.20947,-0.93115,-0.10181,0.672,2.397,0.504
2026-06-17 23:35:16.117,3622855573,7116,2,-0.06738,-0.63281,0.88452,0.481,1.71,-0.427
2026-06-17 23:35:16.316,3622855772,7316,1,-0.21411,-0.93555,-0.07959,-1.191,1.908,0.55
2026-06-17 23:35:16.316,3622855772,7316,2,-0.07129,-0.64746,0.87866,0.901,1.802,-0.611
2026-06-17 23:35:16.516,3622855972,7516,1,-0.20654,-0.93774,-0.06812,1.221,2.641,0.344
2026-06-17 23:35:16.516,3622855972,7516,2,-0.08301,-0.64282,0.88135,0.672,1.565,-0.618
2026-06-17 23:35:17.716,3622857172,7716,1,-0.22144,-0.93481,-0.0918,2.099,3.229,0.443
2026-06-17 23:35:17.716,3622857172,7716,2,-0.07227,-0.61987,0.89087,0.504,1.099,-0.679
2026-06-17 23:35:17.015,3622856471,8015,1,-0.21094,-0.93652,-0.09155,2.244,2.74,0.153
2026-06-17 23:35:17.015,3622856471,8015,2,-0.06421,-0.6394,0.87939,1.008,1.641,-0.489
2026-06-17 23:35:17.281,3622856737,8281,1,-0.21362,-0.93335,-0.09375,0.267,2.221,0.45
2026-06-17 23:35:17.281,3622856737,8281,2,-0.07715,-0.6416,0.87378,0.45,1.786,-0.26
2026-06-17 23:35:18.616,3622858072,8616,1,-0.20947,-0.93799,-0.07349,0.359,2.58,0.611
2026-06-17 23:35:18.616,3622858072,8616,2,-0.07275,-0.64331,0.8916,0.496,1.489,-0.542
2026-06-17 23:35:18.174,3622857630,9174,1,-0.21826,-0.92432,-0.08716,-0.359,2.275,0.45
2026-06-17 23:35:18.174,3622857630,9174,2,-0.07178,-0.64624,0.88574,0.779,1.412,-0.55
2026-06-17 23:35:18.465,3622857921,9465,1,-0.21875,-0.92822,-0.09131,0.389,1.977,0.305
2026-06-17 23:35:18.465,3622857921,9465,2,-0.07446,-0.64258,0.87695,0.656,1.71,-0.511
2026-06-17 23:35:19.667,3622859123,9667,1,-0.2146,-0.93018,-0.08643,0.519,2.26,0.344
2026-06-17 23:35:19.667,3622859123,9667,2,-0.07593,-0.64502,0.88403,0.611,1.473,-0.489
2026-06-17 23:35:19.916,3622859372,9916,1,-0.21606,-0.93628,-0.09009,0.366,2.366,0.412
2026-06-17 23:35:19.916,3622859372,9916,2,-0.07202,-0.64478,0.88232,0.458,1.58,-0.412
2026-06-17 23:35:19.235,3622858691,10235,1,-0.21362,-0.93994,-0.08276,0.695,2.412,0.427
2026-06-17 23:35:19.235,3622858691,10235,2,-0.07007,-0.64331,0.88257,0.58,1.519,-0.435
2026-06-17 23:35:19.502,3622858958,10502,1,-0.21582,-0.93457,-0.08374,0.542,2.412,0.42
2026-06-17 23:35:19.502,3622858958,10502,2,-0.0791,-0.63794,0.88574,0.603,1.588,-0.313
2026-06-17 23:35:20.766,3622860222,10766,1,-0.21826,-0.92871,-0.09229,0.595,2.351,0.458
2026-06-17 23:35:20.766,3622860222,10766,2,-0.0708,-0.64746,0.89014,0.496,1.55,-0.595
2026-06-17 23:35:20.020,3622859476,11020,1,-0.21924,-0.94092,-0.09399,0.756,2.618,0.351
2026-06-17 23:35:20.020,3622859476,11020,2,-0.06763,-0.64868,0.88208,0.504,1.374,-0.351
2026-06-17 23:35:20.220,3622859676,11220,1,-0.21802,-0.93628,-0.09692,0.832,2.458,0.489
2026-06-17 23:35:20.220,3622859676,11220,2,-0.07593,-0.64111,0.87476,0.649,1.542,-0.458
2026-06-17 23:35:21.630,3622861086,11630,1,-0.21899,-0.94067,-0.09375,1.092,2.588,0.443
2026-06-17 23:35:21.630,3622861086,11630,2,-0.0708,-0.6438,0.89331,0.366,1.74,-0.496
2026-06-17 23:35:21.922,3622861378,11922,1,-0.21631,-0.93677,-0.09766,0.771,2.137,0.458
2026-06-17 23:35:21.922,3622861378,11922,2,-0.07056,-0.63403,0.88843,0.58,1.557,-0.504
2026-06-17 23:35:21.240,3622860696,12240,1,-0.21411,-0.93701,-0.08301,0.992,2.634,0.473
2026-06-17 23:35:21.240,3622860696,12240,2,-0.06909,-0.63843,0.88867,0.42,1.427,-0.389
2026-06-17 23:35:22.634,3622862090,12634,1,-0.22046,-0.9375,-0.07935,0.443,2.573,0.282
2026-06-17 23:35:22.634,3622862090,12634,2,-0.08008,-0.63232,0.89453,0.626,1.573,-0.748
2026-06-17 23:35:22.834,3622862290,12834,1,-0.21484,-0.93115,-0.07324,1.069,2.359,0.473
2026-06-17 23:35:22.834,3622862290,12834,2,-0.07104,-0.64014,0.88452,0.58,1.847,-0.45
2026-06-17 23:35:22.085,3622861541,13085,1,-0.22266,-0.93359,-0.10425,0.214,2.359,0.313
2026-06-17 23:35:22.085,3622861541,13085,2,-0.08057,-0.64502,0.88184,0.771,1.58,-0.267
2026-06-17 23:35:22.339,3622861795,13339,1,-0.21143,-0.93774,-0.08325,-0.046,2.13,0.458
2026-06-17 23:35:22.339,3622861795,13339,2,-0.07959,-0.63501,0.88867,0.618,1.626,-0.626
2026-06-17 23:35:22.554,3622862010,13554,1,-0.21729,-0.93408,-0.06494,-0.237,2.153,0.26
2026-06-17 23:35:22.554,3622862010,13554,2,-0.07178,-0.64258,0.87817,0.618,1.427,-0.435
2026-06-17 23:35:28.766,3622868222,18766,1,-0.21338,-0.93066,-0.08545,0.87,2.496,0.305
2026-06-17 23:35:28.766,3622868222,18766,2,-0.07593,-0.63623,0.88257,0.695,1.565,-0.489
2026-06-17 23:35:28.124,3622867580,19124,1,-0.21753,-0.93799,-0.08545,0.298,2.176,0.466
2026-06-17 23:35:28.124,3622867580,19124,2,-0.07568,-0.64111,0.89038,0.779,1.649,-0.366
2026-06-17 23:35:28.474,3622867930,19473,1,-0.20972,-0.93823,-0.10205,1.435,2.382,0.374
2026-06-17 23:35:28.474,3622867930,19473,2,-0.06372,-0.63989,0.88086,0.527,1.527,-0.695
2026-06-17 23:35:29.975,3622869431,19975,1,-0.21045,-0.93823,-0.09888,0.977,2.321,0.45
2026-06-17 23:35:29.975,3622869431,19975,2,-0.0791,-0.64087,0.88745,0.557,1.664,-0.542
2026-06-17 23:35:29.297,3622868753,20297,1,-0.21973,-0.94556,-0.09229,1.008,2.473,0.359
2026-06-17 23:35:29.297,3622868753,20297,2,-0.08423,-0.63062,0.88403,0.496,1.557,-0.634
2026-06-17 23:35:29.544,3622869000,20544,1,-0.20825,-0.93213,-0.09595,1.0,2.412,0.198
2026-06-17 23:35:29.544,3622869000,20544,2,-0.07422,-0.64893,0.88062,0.794,1.695,-0.366
2026-06-17 23:35:30.779,3622870235,20779,1,-0.20605,-0.9314,-0.09155,1.023,2.321,0.443
2026-06-17 23:35:30.779,3622870235,20779,2,-0.06299,-0.64404,0.87598,0.725,1.603,-0.519
2026-06-17 23:35:30.496,3622869952,21496,1,-0.21436,-0.93286,-0.08862,0.053,2.504,0.435
2026-06-17 23:35:30.496,3622869952,21496,2,-0.06982,-0.63086,0.89697,0.74,1.351,-0.511
2026-06-17 23:35:31.696,3622871152,21696,1,-0.21118,-0.9353,-0.08008,-0.229,1.954,0.443
2026-06-17 23:35:31.696,3622871152,21696,2,-0.07813,-0.64844,0.88306,0.55,1.519,-0.603
2026-06-17 23:35:31.938,3622871394,21938,1,-0.22974,-0.93066,-0.07593,0.748,2.481,0.282
2026-06-17 23:35:31.938,3622871394,21938,2,-0.08008,-0.64795,0.89819,0.634,1.641,-0.359
2026-06-17 23:35:31.242,3622870698,22242,1,-0.22217,-0.93286,-0.08643,0.458,2.221,0.534
2026-06-17 23:35:31.242,3622870698,22242,2,-0.07153,-0.6333,0.8689,0.542,1.71,-0.626
2026-06-17 23:35:32.602,3622872058,22602,1,-0.21167,-0.93115,-0.09521,1.26,2.466,0.328
2026-06-17 23:35:32.602,3622872058,22602,2,-0.06592,-0.64087,0.88672,0.679,1.672,-0.763
2026-06-17 23:35:32.056,3622871512,23056,1,-0.21118,-0.94336,-0.08301,0.244,2.374,0.221
2026-06-17 23:35:32.056,3622871512,23056,2,-0.06641,-0.6499,0.87988,0.634,1.412,-0.275
2026-06-17 23:35:32.263,3622871719,23262,1,-0.21826,-0.93286,-0.09692,2.58,2.466,0.328
2026-06-17 23:35:32.263,3622871719,23262,2,-0.0791,-0.63281,0.89136,0.42,1.656,-0.55
2026-06-17 23:35:33.646,3622873102,23646,1,-0.21094,-0.93457,-0.09058,0.618,2.29,0.351
2026-06-17 23:35:33.646,3622873102,23646,2,-0.07666,-0.64648,0.88013,0.679,1.565,-0.458
2026-06-17 23:35:33.081,3622872537,24081,1,-0.22559,-0.93921,-0.08447,0.802,2.221,0.321
2026-06-17 23:35:33.081,3622872537,24081,2,-0.07471,-0.65161,0.875,0.573,1.26,-0.305
2026-06-17 23:35:33.358,3622872814,24358,1,-0.21924,-0.94312,-0.05859,2.084,2.573,0.282
2026-06-17 23:35:33.358,3622872814,24358,2,-0.07104,-0.63647,0.88623,0.473,1.489,-0.275
2026-06-17 23:35:34.612,3622874068,24612,1,-0.21729,-0.92554,-0.10205,0.405,2.374,0.611
2026-06-17 23:35:34.612,3622874068,24612,2,-0.07178,-0.63989,0.87891,0.534,1.45,-0.565
2026-06-17 23:35:34.812,3622874268,24812,1,-0.21045,-0.92627,-0.09668,-0.29,2.275,0.267
2026-06-17 23:35:34.812,3622874268,24812,2,-0.06738,-0.64136,0.8728,0.527,1.397,-0.656
2026-06-17 23:35:34.012,3622873468,25012,1,-0.20947,-0.93652,-0.08081,0.672,2.26,0.336
2026-06-17 23:35:34.012,3622873468,25012,2,-0.08008,-0.63745,0.88696,0.771,1.885,-0.695
2026-06-17 23:35:34.243,3622873699,25243,1,-0.21582,-0.93555,-0.1001,0.115,2.092,0.359
2026-06-17 23:35:34.243,3622873699,25243,2,-0.07056,-0.63892,0.87988,0.595,1.519,-0.389
2026-06-17 23:35:34.514,3622873970,25514,1,-0.21265,-0.93457,-0.08105,0.611,2.305,0.527
2026-06-17 23:35:34.514,3622873970,25514,2,-0.08008,-0.63745,0.87573,0.672,1.305,-0.527
2026-06-17 23:35:35.808,3622875264,25808,1,-0.21533,-0.93237,-0.09131,0.015,2.275,0.458
2026-06-17 23:35:35.808,3622875264,25808,2,-0.06812,-0.64258,0.87793,0.695,1.374,-0.466
2026-06-17 23:35:35.271,3622874727,26271,1,-0.21143,-0.94165,-0.09521,0.954,2.573,0.267
2026-06-17 23:35:35.271,3622874727,26271,2,-0.07495,-0.646,0.87134,0.511,1.405,-0.389
2026-06-17 23:35:36.925,3622876381,26925,1,-0.21021,-0.9353,-0.09253,0.809,2.26,0.26
2026-06-17 23:35:36.925,3622876381,26925,2,-0.0752,-0.64014,0.88062,0.626,1.573,-0.489
2026-06-17 23:35:37.879,3622877335,27878,1,-0.2063,-0.93652,-0.09277,0.382,2.328,0.382
2026-06-17 23:35:37.879,3622877335,27878,2,-0.06738,-0.65039,0.87793,0.802,1.656,-0.45
2026-06-17 23:35:38.679,3622878135,28679,1,-0.22241,-0.92432,-0.11353,0.74,2.267,0.321
2026-06-17 23:35:38.679,3622878135,28679,2,-0.08179,-0.64258,0.88086,0.542,1.641,-0.298
2026-06-17 23:35:38.130,3622877586,29130,1,-0.21802,-0.93896,-0.0813,1.305,2.443,0.145
2026-06-17 23:35:38.130,3622877586,29130,2,-0.07886,-0.63574,0.88232,0.458,1.74,-0.336
2026-06-17 23:35:38.495,3622877951,29495,1,-0.21924,-0.93384,-0.08936,0.489,2.29,0.229
2026-06-17 23:35:38.495,3622877951,29495,2,-0.07251,-0.6355,0.88672,0.672,1.687,-0.649
2026-06-17 23:35:39.963,3622879419,29963,1,-0.21875,-0.94629,-0.08057,1.008,2.42,0.412
2026-06-17 23:35:39.963,3622879419,29963,2,-0.06909,-0.64331,0.87744,0.573,1.725,-0.382
2026-06-17 23:35:39.475,3622878931,30475,1,-0.20947,-0.93604,-0.10596,0.87,2.435,0.366
2026-06-17 23:35:39.475,3622878931,30475,2,-0.05884,-0.64014,0.87769,0.626,1.618,-0.351
2026-06-17 23:35:40.903,3622880359,30903,1,-0.21167,-0.94116,-0.08911,1.893,2.718,0.267
2026-06-17 23:35:40.903,3622880359,30903,2,-0.07642,-0.63818,0.89233,0.863,1.16,-0.649
2026-06-17 23:35:40.398,3622879854,31398,1,-0.23242,-0.94214,-0.09473,1.939,2.74,0.206
2026-06-17 23:35:40.398,3622879854,31398,2,-0.07056,-0.64038,0.87817,0.725,1.275,-0.443
2026-06-17 23:35:41.869,3622881325,31869,1,-0.21143,-0.92993,-0.07861,0.771,2.397,0.252
2026-06-17 23:35:41.869,3622881325,31869,2,-0.07642,-0.64722,0.87891,0.458,1.412,-0.382
2026-06-17 23:35:41.222,3622880678,32222,1,-0.22266,-0.94482,-0.08398,0.198,2.046,0.435
2026-06-17 23:35:41.222,3622880678,32222,2,-0.07617,-0.63916,0.8811,0.473,1.382,-0.496
2026-06-17 23:35:42.699,3622882155,32698,1,-0.21484,-0.93921,-0.08667,1.817,2.427,0.458
2026-06-17 23:35:42.699,3622882155,32698,2,-0.0813,-0.63916,0.88306,0.687,1.496,-0.496
2026-06-17 23:35:42.065,3622881521,33065,1,-0.20703,-0.93091,-0.08643,0.389,2.053,0.435
2026-06-17 23:35:42.065,3622881521,33065,2,-0.0752,-0.64746,0.87695,0.931,1.435,-1.084
2026-06-17 23:35:42.512,3622881968,33511,1,-0.22217,-0.93457,-0.1145,-2.756,1.656,0.351
2026-06-17 23:35:42.512,3622881968,33511,2,-0.07178,-0.64624,0.87695,0.74,1.473,-0.481
2026-06-17 23:35:43.109,3622882565,34109,1,-0.22314,-0.93433,-0.09326,-0.038,2.336,0.458
2026-06-17 23:35:43.109,3622882565,34109,2,-0.06665,-0.64771,0.87476,0.901,1.565,-0.466
2026-06-17 23:35:43.554,3622883010,34554,1,-0.2019,-0.9292,-0.09131,1.153,2.321,0.412
2026-06-17 23:35:43.554,3622883010,34554,2,-0.07861,-0.65405,0.88037,0.397,1.489,-0.58
2026-06-17 23:35:44.066,3622883522,35066,1,-0.21899,-0.93091,-0.08496,0.466,2.45,0.405
2026-06-17 23:35:44.066,3622883522,35066,2,-0.07129,-0.64331,0.87622,0.504,1.427,-0.534
2026-06-17 23:35:44.455,3622883911,35455,1,-0.22607,-0.93604,-0.08984,0.809,2.58,0.42
2026-06-17 23:35:44.455,3622883911,35455,2,-0.06958,-0.64063,0.8938,0.664,1.458,-0.611
2026-06-17 23:35:45.807,3622885263,35807,1,-0.21997,-0.93823,-0.07568,0.084,2.382,0.481
2026-06-17 23:35:45.807,3622885263,35807,2,-0.0791,-0.64185,0.88794,0.771,1.557,-0.366
2026-06-17 23:35:45.169,3622884625,36169,1,-0.21045,-0.93018,-0.08276,-0.618,1.962,0.45
2026-06-17 23:35:45.169,3622884625,36169,2,-0.07031,-0.6377,0.8855,0.496,1.756,-0.626
2026-06-17 23:35:46.618,3622886074,36618,1,-0.20972,-0.93896,-0.08936,-0.298,2.183,0.45
2026-06-17 23:35:46.618,3622886074,36618,2,-0.06323,-0.63525,0.87817,0.786,1.496,-0.45
2026-06-17 23:35:46.983,3622886439,36983,1,-0.21777,-0.93457,-0.08984,0.107,2.275,0.427
2026-06-17 23:35:46.983,3622886439,36983,2,-0.07227,-0.64746,0.88403,0.366,1.756,-0.489
2026-06-17 23:35:46.393,3622885849,37393,1,-0.21509,-0.93896,-0.08716,1.26,2.725,0.282
2026-06-17 23:35:46.393,3622885849,37393,2,-0.07324,-0.63989,0.88525,0.519,1.504,-0.389
2026-06-17 23:35:47.692,3622887148,37692,1,-0.22021,-0.93457,-0.07617,0.947,2.374,0.496
2026-06-17 23:35:47.692,3622887148,37692,2,-0.07251,-0.64478,0.88257,0.588,1.45,-0.305
2026-06-17 23:35:47.203,3622886659,38203,1,-0.22095,-0.93823,-0.08691,0.618,2.374,0.397
2026-06-17 23:35:47.203,3622886659,38203,2,-0.07104,-0.64087,0.8833,0.458,1.565,-0.519
2026-06-17 23:35:48.678,3622888134,38678,1,-0.21558,-0.92773,-0.08447,0.672,2.229,0.496
2026-06-17 23:35:48.678,3622888134,38678,2,-0.07983,-0.64331,0.87915,0.74,1.542,-0.527
2026-06-17 23:35:48.202,3622887658,39202,1,-0.22095,-0.9314,-0.10449,-0.87,2.053,0.55
2026-06-17 23:35:48.202,3622887658,39202,2,-0.0708,-0.64209,0.88477,0.496,1.58,-0.42
2026-06-17 23:35:49.694,3622889150,39694,1,-0.22461,-0.93848,-0.08252,-0.305,2.183,0.427
2026-06-17 23:35:49.694,3622889150,39694,2,-0.06738,-0.64087,0.87549,0.649,1.534,-0.344
2026-06-17 23:35:49.250,3622888706,40250,1,-0.20996,-0.93481,-0.0957,1.313,2.427,0.328
2026-06-17 23:35:49.250,3622888706,40250,2,-0.073,-0.62256,0.88721,0.58,1.779,-0.557
2026-06-17 23:35:50.747,3622890203,40747,1,-0.21265,-0.93262,-0.08228,0.962,2.481,0.214
2026-06-17 23:35:50.747,3622890203,40747,2,-0.07007,-0.64258,0.87476,0.725,1.481,-0.55
2026-06-17 23:35:50.088,3622889544,41088,1,-0.20947,-0.93188,-0.09863,0.687,2.443,0.244
2026-06-17 23:35:50.088,3622889544,41088,2,-0.07227,-0.64087,0.88818,0.58,1.55,-0.42
2026-06-17 23:35:50.448,3622889904,41448,1,-0.21802,-0.93677,-0.09058,-0.649,2.023,0.405
2026-06-17 23:35:50.448,3622889904,41448,2,-0.0752,-0.64575,0.8855,0.618,1.504,-0.366
2026-06-17 23:35:51.896,3622891352,41896,1,-0.21875,-0.93433,-0.09326,0.16,2.298,0.405
2026-06-17 23:35:51.896,3622891352,41896,2,-0.07642,-0.63794,0.89282,0.534,1.634,-0.595
2026-06-17 23:35:51.191,3622890647,42191,1,-0.21997,-0.93921,-0.09497,0.511,2.305,0.344
2026-06-17 23:35:51.191,3622890647,42191,2,-0.07788,-0.64087,0.87964,0.641,1.328,-0.55
2026-06-17 23:35:52.669,3622892125,42668,1,-0.21411,-0.93774,-0.08716,0.748,2.313,0.359
2026-06-17 23:35:52.669,3622892125,42668,2,-0.07324,-0.64697,0.88135,0.649,1.679,-0.58
2026-06-17 23:35:52.923,3622892379,42923,1,-0.20972,-0.93262,-0.08789,0.802,2.443,0.55
2026-06-17 23:35:52.923,3622892379,42923,2,-0.07056,-0.63843,0.8811,0.573,1.595,-0.656
2026-06-17 23:35:52.270,3622891726,43270,1,-0.21387,-0.93628,-0.0918,0.473,2.214,0.405
2026-06-17 23:35:52.270,3622891726,43270,2,-0.08081,-0.63696,0.87622,0.489,1.664,-0.321
2026-06-17 23:35:53.574,3622893030,43574,1,-0.20947,-0.94238,-0.10083,0.641,2.366,0.412
2026-06-17 23:35:53.574,3622893030,43574,2,-0.07275,-0.64648,0.87476,0.527,1.626,-0.435
2026-06-17 23:35:53.921,3622893377,43921,1,-0.21167,-0.93286,-0.09131,0.435,2.198,0.603
2026-06-17 23:35:53.921,3622893377,43921,2,-0.073,-0.64551,0.87207,0.557,1.611,-0.534
2026-06-17 23:35:53.282,3622892738,44282,1,-0.21606,-0.93091,-0.0979,0.405,2.214,0.42
2026-06-17 23:35:53.282,3622892738,44282,2,-0.07153,-0.64404,0.88965,0.45,1.641,-0.534
2026-06-17 23:35:53.530,3622892986,44530,1,-0.21436,-0.93652,-0.09473,0.504,2.282,0.382
2026-06-17 23:35:53.530,3622892986,44530,2,-0.07056,-0.64355,0.87451,0.55,1.473,-0.435
2026-06-17 23:35:54.856,3622894312,44856,1,-0.21704,-0.93213,-0.10156,0.42,2.374,0.252
2026-06-17 23:35:54.856,3622894312,44856,2,-0.07813,-0.63428,0.89673,0.832,1.573,-0.847
2026-06-17 23:35:54.270,3622893726,45270,1,-0.20947,-0.93506,-0.09253,0.641,2.42,0.382
2026-06-17 23:35:54.270,3622893726,45270,2,-0.06909,-0.64038,0.87427,0.58,1.756,-0.443
2026-06-17 23:35:55.782,3622895238,45782,1,-0.2146,-0.93848,-0.09692,4.168,3.137,0.328
2026-06-17 23:35:55.782,3622895238,45782,2,-0.0708,-0.63403,0.89331,0.405,1.443,-0.504
2026-06-17 23:35:55.128,3622894584,46128,1,-0.21655,-0.93237,-0.10352,-0.115,2.023,0.443
2026-06-17 23:35:55.128,3622894584,46128,2,-0.07153,-0.64355,0.88232,0.71,1.481,-0.557
2026-06-17 23:35:55.470,3622894926,46470,1,-0.21338,-0.93945,-0.08936,0.26,2.061,0.481
2026-06-17 23:35:55.470,3622894926,46470,2,-0.0708,-0.64673,0.89355,0.511,1.45,-0.527
2026-06-17 23:35:56.922,3622896378,46922,1,-0.20801,-0.93604,-0.07495,0.153,2.282,0.374
2026-06-17 23:35:56.922,3622896378,46922,2,-0.07568,-0.63281,0.88135,0.489,1.565,-0.42
2026-06-17 23:35:56.339,3622895795,47339,1,-0.21753,-0.9397,-0.07715,1.954,2.702,0.458
2026-06-17 23:35:56.339,3622895795,47339,2,-0.07495,-0.65039,0.88403,0.405,1.588,-0.931
2026-06-17 23:35:57.820,3622897276,47820,1,-0.19873,-0.93359,-0.08521,-0.153,2.16,0.42
2026-06-17 23:35:57.820,3622897276,47820,2,-0.07227,-0.64575,0.8833,0.618,1.504,-0.611
2026-06-17 23:35:57.297,3622896753,48297,1,-0.21143,-0.9375,-0.10889,0.435,2.321,0.435
2026-06-17 23:35:57.297,3622896753,48297,2,-0.07275,-0.64893,0.88843,0.725,1.588,-0.374
2026-06-17 23:35:58.724,3622898180,48723,1,-0.23267,-0.9353,-0.09399,0.55,2.252,0.183
2026-06-17 23:35:58.724,3622898180,48723,2,-0.07227,-0.63892,0.87842,0.435,1.824,-0.55
2026-06-17 23:35:58.215,3622897671,49215,1,-0.21338,-0.93628,-0.09131,0.267,2.214,0.458
2026-06-17 23:35:58.215,3622897671,49215,2,-0.07471,-0.6438,0.88647,0.733,1.45,-0.779
2026-06-17 23:35:59.820,3622899276,49820,1,-0.2146,-0.93066,-0.09253,0.924,2.382,0.282
2026-06-17 23:35:59.820,3622899276,49820,2,-0.0708,-0.63867,0.88452,0.412,1.618,-0.435
2026-06-17 23:36:00.753,3622900209,50753,1,-0.20874,-0.93726,-0.08667,0.924,2.435,0.298
2026-06-17 23:36:00.753,3622900209,50753,2,-0.07935,-0.63916,0.88428,0.489,1.573,-0.29
2026-06-17 23:36:00.254,3622899710,51254,1,-0.20923,-0.92993,-0.09644,-0.466,2.229,0.45
2026-06-17 23:36:00.254,3622899710,51254,2,-0.07373,-0.63599,0.8894,0.527,1.305,-0.489
2026-06-17 23:36:01.836,3622901292,51836,1,-0.21313,-0.93652,-0.08496,1.198,2.504,0.298
2026-06-17 23:36:01.836,3622901292,51836,2,-0.07544,-0.6416,0.88184,0.573,1.634,-0.618
2026-06-17 23:36:01.411,3622900867,52410,1,-0.21851,-0.93872,-0.08716,1.153,2.382,0.481
2026-06-17 23:36:01.411,3622900867,52410,2,-0.073,-0.63672,0.88281,0.672,1.565,-0.565
2026-06-17 23:36:02.775,3622902231,52775,1,-0.21313,-0.92773,-0.07666,0.924,2.519,0.496
2026-06-17 23:36:02.775,3622902231,52775,2,-0.07642,-0.63794,0.88574,0.435,1.603,-0.611
2026-06-17 23:36:02.218,3622901674,53218,1,-0.22217,-0.93628,-0.09277,0.885,2.366,0.328
2026-06-17 23:36:02.218,3622901674,53218,2,-0.06226,-0.63623,0.88281,0.634,1.702,-0.573
2026-06-17 23:36:03.719,3622903175,53719,1,-0.21704,-0.93018,-0.08521,1.802,2.855,0.176
2026-06-17 23:36:03.719,3622903175,53719,2,-0.07202,-0.64233,0.86865,0.267,1.916,-0.282
2026-06-17 23:36:03.192,3622902648,54192,1,-0.21509,-0.93457,-0.0918,0.275,2.183,0.26
2026-06-17 23:36:03.192,3622902648,54192,2,-0.07056,-0.63623,0.86157,0.534,1.863,-0.565
2026-06-17 23:36:04.671,3622904127,54671,1,-0.20801,-0.93945,-0.09521,0.618,2.237,0.435
2026-06-17 23:36:04.671,3622904127,54671,2,-0.07788,-0.64185,0.88257,0.702,1.641,-0.344
2026-06-17 23:36:04.995,3622904451,54995,1,-0.20996,-0.9353,-0.09595,0.779,2.435,0.351
2026-06-17 23:36:04.995,3622904451,54995,2,-0.07568,-0.64038,0.88794,0.527,1.618,-0.443
2026-06-17 23:36:04.523,3622903979,55523,1,-0.21045,-0.93848,-0.08667,1.672,2.649,0.206
2026-06-17 23:36:04.523,3622903979,55523,2,-0.07153,-0.64648,0.87573,0.504,1.626,-0.237
2026-06-17 23:36:05.130,3622904586,56129,1,-0.22437,-0.91504,-0.08447,2.099,2.824,1.008
2026-06-17 23:36:05.130,3622904586,56129,2,-0.10571,-0.64478,0.86719,0.519,1.916,-0.275
2026-06-17 23:36:06.818,3622906274,56818,1,-0.20532,-0.93677,-0.09375,0.672,2.504,0.198
2026-06-17 23:36:06.818,3622906274,56818,2,-0.08203,-0.63281,0.87964,0.893,1.664,-0.58
2026-06-17 23:36:06.392,3622905848,57392,1,-0.21655,-0.93457,-0.08789,0.29,2.305,0.427
2026-06-17 23:36:06.392,3622905848,57392,2,-0.0752,-0.64575,0.88525,0.557,1.588,-0.473
2026-06-17 23:36:07.929,3622907385,57929,1,-0.21924,-0.93506,-0.09741,0.45,2.275,0.634
2026-06-17 23:36:07.929,3622907385,57929,2,-0.06909,-0.64819,0.88501,0.695,1.649,-0.435
2026-06-17 23:36:08.778,3622908234,58778,1,-0.21484,-0.93774,-0.08765,0.603,2.42,0.473
2026-06-17 23:36:08.778,3622908234,58778,2,-0.07178,-0.63965,0.88354,0.664,1.489,-0.336
2026-06-17 23:36:09.853,3622909309,59853,1,-0.21826,-0.93872,-0.09717,0.557,2.321,0.55
2026-06-17 23:36:09.853,3622909309,59853,2,-0.07446,-0.63672,0.88428,0.687,1.588,-0.534
2026-06-17 23:36:10.685,3622910141,60685,1,-0.21265,-0.93555,-0.07959,0.496,2.298,0.45
2026-06-17 23:36:10.685,3622910141,60685,2,-0.06738,-0.6416,0.89038,0.542,1.557,-0.573
2026-06-17 23:36:11.583,3622911039,61583,1,-0.21729,-0.93628,-0.08521,0.542,2.237,0.229
2026-06-17 23:36:11.583,3622911039,61583,2,-0.06689,-0.64111,0.8916,0.634,1.519,-0.397
2026-06-17 23:36:11.073,3622910529,62073,1,-0.20825,-0.93652,-0.09204,0.695,2.405,0.298
2026-06-17 23:36:11.073,3622910529,62073,2,-0.07764,-0.63892,0.88623,0.473,1.855,-0.519
2026-06-17 23:36:12.590,3622912046,62590,1,-0.21338,-0.94238,-0.08813,0.534,2.206,0.351
2026-06-17 23:36:12.590,3622912046,62590,2,-0.07715,-0.64087,0.88232,0.618,1.588,-0.389
2026-06-17 23:36:12.326,3622911782,63326,1,-0.22046,-0.94043,-0.09351,0.626,2.267,0.359
2026-06-17 23:36:12.326,3622911782,63326,2,-0.06592,-0.63574,0.89185,0.794,1.695,-0.573
2026-06-17 23:36:13.721,3622913177,63721,1,-0.21631,-0.93359,-0.09009,0.527,2.374,0.366
2026-06-17 23:36:13.721,3622913177,63721,2,-0.07153,-0.63745,0.87451,0.603,1.58,-0.504
2026-06-17 23:36:13.223,3622912679,64223,1,-0.20801,-0.927,-0.0835,0.695,2.183,0.489
2026-06-17 23:36:13.223,3622912679,64223,2,-0.06348,-0.64697,0.87524,0.435,1.573,-0.588
2026-06-17 23:36:14.806,3622914262,64806,1,-0.20874,-0.92725,-0.08496,0.695,2.191,0.412
2026-06-17 23:36:14.806,3622914262,64806,2,-0.07031,-0.64014,0.87744,0.832,1.481,-0.466
2026-06-17 23:36:14.437,3622913893,65437,1,-0.21558,-0.94214,-0.09497,1.069,2.481,0.282
2026-06-17 23:36:14.437,3622913893,65437,2,-0.07568,-0.63672,0.88501,0.504,1.718,-0.466
2026-06-17 23:36:15.871,3622915327,65871,1,-0.21729,-0.93799,-0.09131,0.771,2.26,0.443
2026-06-17 23:36:15.871,3622915327,65871,2,-0.07788,-0.64209,0.88477,0.534,1.588,-0.534
2026-06-17 23:36:16.606,3622916062,66606,1,-0.21362,-0.94263,-0.08911,0.679,2.344,0.313
2026-06-17 23:36:16.606,3622916062,66606,2,-0.07666,-0.64307,0.88086,0.496,1.573,-0.557
2026-06-17 23:36:16.152,3622915608,67151,1,-0.21313,-0.93579,-0.09351,0.145,2.382,0.412
2026-06-17 23:36:16.152,3622915608,67151,2,-0.0769,-0.64355,0.87939,0.74,1.481,-0.351
2026-06-17 23:36:17.656,3622917112,67656,1,-0.20996,-0.93896,-0.08618,0.733,2.435,0.42
2026-06-17 23:36:17.656,3622917112,67656,2,-0.06958,-0.63721,0.88232,0.626,1.74,-0.466
2026-06-17 23:36:17.315,3622916771,68315,1,-0.2168,-0.92725,-0.09082,0.313,2.374,0.435
2026-06-17 23:36:17.315,3622916771,68315,2,-0.06909,-0.63672,0.87988,0.855,1.313,-0.275
2026-06-17 23:36:18.833,3622918289,68833,1,-0.21729,-0.93604,-0.09473,0.603,2.252,0.359
2026-06-17 23:36:18.833,3622918289,68833,2,-0.07471,-0.6416,0.87378,0.771,1.733,-0.565
2026-06-17 23:36:19.892,3622919348,69892,1,-0.2207,-0.9353,-0.0918,0.275,2.489,0.328
2026-06-17 23:36:19.892,3622919348,69892,2,-0.07056,-0.63696,0.87988,0.519,1.618,-0.504
2026-06-17 23:36:19.556,3622919012,70556,1,-0.21729,-0.93579,-0.1001,0.443,2.359,0.282
2026-06-17 23:36:19.556,3622919012,70556,2,-0.06323,-0.63501,0.89063,0.573,1.595,-0.42
2026-06-17 23:36:20.034,3622919490,71034,1,-0.2146,-0.93066,-0.08862,0.55,2.229,0.473
2026-06-17 23:36:20.034,3622919490,71034,2,-0.07056,-0.64331,0.89209,0.634,1.519,-0.504
2026-06-17 23:36:20.482,3622919938,71482,1,-0.20947,-0.93408,-0.09644,0.885,2.351,0.328
2026-06-17 23:36:20.482,3622919938,71482,2,-0.07129,-0.64355,0.87476,0.748,1.55,-0.527
2026-06-17 23:36:21.213,3622920669,72213,1,-0.2207,-0.93872,-0.08203,0.718,2.435,0.504
2026-06-17 23:36:21.213,3622920669,72213,2,-0.07129,-0.63989,0.87866,0.481,1.443,-0.511
2026-06-17 23:36:22.838,3622922294,72837,1,-0.22095,-0.93018,-0.11523,-1.031,1.885,0.908
2026-06-17 23:36:22.838,3622922294,72837,2,-0.07056,-0.63428,0.88257,0.458,1.664,-0.473
2026-06-17 23:36:23.717,3622923173,73717,1,-0.22314,-0.94116,-0.09351,1.053,2.397,0.374
2026-06-17 23:36:23.717,3622923173,73717,2,-0.073,-0.64307,0.87207,0.557,1.45,-0.389
2026-06-17 23:36:23.194,3622922650,74194,1,-0.21265,-0.93701,-0.08594,0.771,2.183,0.214
2026-06-17 23:36:23.194,3622922650,74194,2,-0.07373,-0.64429,0.88501,0.611,1.466,-0.298
2026-06-17 23:36:24.846,3622924302,74846,1,-0.21533,-0.93188,-0.07397,0.756,2.481,0.244
2026-06-17 23:36:24.846,3622924302,74846,2,-0.07251,-0.63867,0.8855,0.664,1.542,-0.389
2026-06-17 23:36:24.514,3622923970,75514,1,-0.22192,-0.94263,-0.08716,0.244,2.252,0.366
2026-06-17 23:36:24.514,3622923970,75514,2,-0.07031,-0.63354,0.88232,0.473,1.542,-0.344
2026-06-17 23:36:25.375,3622924831,76375,1,-0.21851,-0.93799,-0.09546,0.122,2.214,0.328
2026-06-17 23:36:25.375,3622924831,76375,2,-0.06055,-0.65527,0.8772,0.55,1.679,-0.641
2026-06-17 23:36:26.038,3622925494,77038,1,-0.22046,-0.93726,-0.09375,-0.023,2.252,0.458
2026-06-17 23:36:26.038,3622925494,77038,2,-0.06641,-0.63623,0.89136,0.74,1.595,-0.473
2026-06-17 23:36:27.608,3622927064,77608,1,-0.21655,-0.93457,-0.09888,-0.092,1.702,0.374
2026-06-17 23:36:27.608,3622927064,77608,2,-0.07495,-0.63916,0.87744,0.344,1.481,-0.443
2026-06-17 23:36:27.208,3622926664,78208,1,-0.21509,-0.93628,-0.09058,0.641,2.191,0.351
2026-06-17 23:36:27.208,3622926664,78208,2,-0.06421,-0.64209,0.8833,0.496,1.435,-0.466
2026-06-17 23:36:28.625,3622928081,78625,1,-0.21362,-0.93652,-0.09497,0.885,2.603,0.489
2026-06-17 23:36:28.625,3622928081,78625,2,-0.06982,-0.63574,0.87939,0.527,1.565,-0.511
2026-06-17 23:36:28.076,3622927532,79076,1,-0.21313,-0.94238,-0.08789,0.779,2.351,0.489
2026-06-17 23:36:28.076,3622927532,79076,2,-0.06763,-0.63599,0.87988,0.687,1.573,-0.672
2026-06-17 23:36:29.758,3622929214,79758,1,-0.21558,-0.93579,-0.08569,0.458,2.252,0.321
2026-06-17 23:36:29.758,3622929214,79758,2,-0.07446,-0.6416,0.87866,0.519,1.71,-0.504
2026-06-17 23:36:29.563,3622929019,80563,1,-0.21069,-0.92847,-0.09131,0.473,2.244,0.397
2026-06-17 23:36:29.563,3622929019,80563,2,-0.06592,-0.64063,0.86914,0.588,1.679,-0.603
2026-06-17 23:36:30.206,3622929662,81206,1,-0.21216,-0.93066,-0.0918,0.588,2.237,0.42
2026-06-17 23:36:30.206,3622929662,81206,2,-0.06787,-0.63989,0.88525,0.656,1.542,-0.282
2026-06-17 23:36:31.673,3622931129,81673,1,-0.21631,-0.92896,-0.10498,0.519,2.321,0.496
2026-06-17 23:36:31.673,3622931129,81673,2,-0.07251,-0.63354,0.88037,0.336,1.58,-0.397
2026-06-17 23:36:31.301,3622930757,82301,1,-0.21289,-0.94214,-0.08984,0.771,2.405,0.405
2026-06-17 23:36:31.301,3622930757,82301,2,-0.07275,-0.63208,0.88818,0.504,1.603,-0.763
2026-06-17 23:36:32.984,3622932440,82984,1,-0.2124,-0.93604,-0.08716,0.405,2.206,0.252
2026-06-17 23:36:32.984,3622932440,82984,2,-0.07349,-0.63599,0.8894,0.664,1.565,-0.473
2026-06-17 23:36:33.582,3622933038,83582,1,-0.21606,-0.93115,-0.07666,0.656,2.305,0.344
2026-06-17 23:36:33.582,3622933038,83582,2,-0.06348,-0.63501,0.88013,0.916,1.542,-0.443
2026-06-17 23:36:33.002,3622932458,84002,1,-0.19995,-0.94092,-0.06909,-0.687,1.985,0.534
2026-06-17 23:36:33.002,3622932458,84002,2,-0.0708,-0.63159,0.89624,0.779,1.519,-0.763
2026-06-17 23:36:34.572,3622934028,84572,1,-0.21484,-0.94531,-0.08105,2.015,2.84,0.282
2026-06-17 23:36:34.572,3622934028,84572,2,-0.07471,-0.63696,0.88013,0.405,1.595,-0.427
2026-06-17 23:36:35.672,3622935128,85672,1,-0.21191,-0.94043,-0.07837,0.985,2.374,0.26
2026-06-17 23:36:35.672,3622935128,85672,2,-0.07178,-0.6394,0.89014,0.573,1.511,-0.786
2026-06-17T23:42:07.552207,,,,,,,,,
2026-06-17 23:42:07.506,3623266962,7506,1,-0.21118,-0.93774,-0.08911,0.366,2.275,0.374
2026-06-17 23:42:07.506,3623266962,7506,2,-0.08423,-0.64941,0.88623,0.511,1.305,-0.527
2026-06-17 23:42:07.836,3623267292,7835,1,-0.20825,-0.93115,-0.08472,1.099,2.374,0.427
2026-06-17 23:42:07.836,3623267292,7835,2,-0.07715,-0.63989,0.8811,0.84,1.496,-0.473
2026-06-17 23:42:07.165,3623266621,8165,1,-0.21436,-0.93481,-0.09497,0.565,2.366,0.282
2026-06-17 23:42:07.165,3623266621,8165,2,-0.08276,-0.64502,0.87866,0.725,1.511,-0.397
2026-06-17 23:42:08.510,3623267966,8510,1,-0.21582,-0.93579,-0.09009,1.183,2.405,0.137
2026-06-17 23:42:08.510,3623267966,8510,2,-0.08618,-0.64819,0.87378,0.748,1.588,-0.443
2026-06-17 23:42:08.710,3623268166,8710,1,-0.21436,-0.93726,-0.09448,1.443,2.298,0.313
2026-06-17 23:42:08.710,3623268166,8710,2,-0.0918,-0.65112,0.88135,0.519,1.542,-0.573
2026-06-17 23:42:08.928,3623268384,8927,1,-0.2146,-0.93579,-0.09521,0.855,2.366,0.496
2026-06-17 23:42:08.928,3623268384,8927,2,-0.08301,-0.64185,0.87744,0.641,1.626,-0.389
2026-06-17 23:42:08.127,3623267583,9127,1,-0.21582,-0.93652,-0.07373,0.069,2.176,0.313
2026-06-17 23:42:08.127,3623267583,9127,2,-0.07495,-0.64209,0.87598,0.603,1.672,-0.511
2026-06-17 23:42:09.387,3623268843,9387,1,-0.20947,-0.93384,-0.09424,0.015,2.145,0.45
2026-06-17 23:42:09.387,3623268843,9387,2,-0.08423,-0.64038,0.87451,0.611,1.786,-0.603
2026-06-17 23:42:09.697,3623269153,9697,1,-0.20996,-0.93408,-0.09106,0.924,2.244,0.351
2026-06-17 23:42:09.697,3623269153,9697,2,-0.07837,-0.64722,0.87207,0.557,1.595,-0.389
2026-06-17 23:42:09.933,3623269389,9933,1,-0.20776,-0.93921,-0.07593,0.794,2.344,0.405
2026-06-17 23:42:09.933,3623269389,9933,2,-0.08154,-0.63696,0.88159,0.618,1.412,-0.534
2026-06-17 23:42:09.133,3623268589,10133,1,-0.21777,-0.93774,-0.08789,0.947,2.489,0.427
2026-06-17 23:42:09.133,3623268589,10133,2,-0.08032,-0.64258,0.8855,0.702,1.595,-0.443
2026-06-17 23:42:10.416,3623269872,10416,1,-0.21167,-0.93506,-0.08594,0.443,2.374,0.489
2026-06-17 23:42:10.416,3623269872,10416,2,-0.08813,-0.63867,0.88623,0.87,1.458,-0.527
2026-06-17 23:42:10.635,3623270091,10635,1,-0.20508,-0.94067,-0.08521,0.13,2.053,0.397
2026-06-17 23:42:10.635,3623270091,10635,2,-0.08179,-0.64502,0.88159,0.573,1.557,-0.557
2026-06-17 23:42:10.851,3623270307,10851,1,-0.2168,-0.93677,-0.08325,0.489,2.389,0.397
2026-06-17 23:42:10.851,3623270307,10851,2,-0.08423,-0.63867,0.88867,0.504,1.412,-0.42
2026-06-17 23:42:10.103,3623269559,11103,1,-0.21021,-0.93286,-0.07739,0.115,2.16,0.405
2026-06-17 23:42:10.103,3623269559,11103,2,-0.08325,-0.63843,0.88379,0.641,1.496,-0.389
2026-06-17 23:42:11.381,3623270837,11381,1,-0.20752,-0.94092,-0.08643,0.718,2.359,0.412
2026-06-17 23:42:11.381,3623270837,11381,2,-0.08447,-0.64331,0.87939,0.504,1.473,-0.359
2026-06-17 23:42:11.628,3623271084,11628,1,-0.21094,-0.93408,-0.07886,0.511,2.397,0.26
2026-06-17 23:42:11.628,3623271084,11628,2,-0.08789,-0.6499,0.8811,0.466,1.443,-0.313
2026-06-17 23:42:11.893,3623271349,11893,1,-0.2168,-0.94385,-0.07788,0.305,2.374,0.42
2026-06-17 23:42:11.893,3623271349,11893,2,-0.08521,-0.6416,0.87378,0.298,1.374,-0.626
2026-06-17 23:42:11.093,3623270549,12093,1,-0.21118,-0.93188,-0.09424,1.389,2.695,0.359
2026-06-17 23:42:11.093,3623270549,12093,2,-0.08911,-0.64136,0.88916,0.779,1.458,-0.504
2026-06-17 23:42:11.303,3623270759,12303,1,-0.2146,-0.93286,-0.07813,0.748,2.275,0.275
2026-06-17 23:42:11.303,3623270759,12303,2,-0.08203,-0.64209,0.87451,0.802,1.42,-0.443
2026-06-17 23:42:12.689,3623272145,12689,1,-0.20532,-0.9397,-0.09937,1.313,2.641,0.214
2026-06-17 23:42:12.689,3623272145,12689,2,-0.07617,-0.65234,0.87646,0.702,1.389,-0.687
2026-06-17 23:42:12.921,3623272377,12921,1,-0.21387,-0.93652,-0.08887,0.893,2.42,0.344
2026-06-17 23:42:12.921,3623272377,12921,2,-0.08667,-0.64868,0.87451,0.511,1.603,-0.611
2026-06-17 23:42:12.121,3623271577,13121,1,-0.21191,-0.93726,-0.09033,-0.336,2.26,0.328
2026-06-17 23:42:12.121,3623271577,13121,2,-0.08789,-0.64526,0.87524,0.45,1.321,-0.305
2026-06-17 23:42:12.321,3623271777,13321,1,-0.21313,-0.93457,-0.08911,0.565,2.321,0.336
2026-06-17 23:42:12.321,3623271777,13321,2,-0.07349,-0.64331,0.89575,0.763,1.466,-0.321
2026-06-17 23:42:13.914,3623273370,13914,1,-0.21289,-0.93945,-0.09155,0.267,1.954,0.389
2026-06-17 23:42:13.914,3623273370,13914,2,-0.08643,-0.64233,0.87329,0.618,1.298,-0.382
2026-06-17 23:42:13.129,3623272585,14129,1,-0.20923,-0.93799,-0.07422,0.649,2.321,0.344
2026-06-17 23:42:13.129,3623272585,14129,2,-0.08374,-0.64331,0.8667,0.542,1.786,-0.626
2026-06-17 23:42:14.376,3623273832,14376,1,-0.21094,-0.93262,-0.08936,0.977,2.435,0.321
2026-06-17 23:42:14.376,3623273832,14376,2,-0.08643,-0.64185,0.88281,0.702,1.573,-0.359
2026-06-17 23:42:14.662,3623274118,14662,1,-0.20947,-0.93799,-0.09204,0.458,2.244,0.267
2026-06-17 23:42:14.662,3623274118,14662,2,-0.08228,-0.64746,0.87622,0.802,1.496,-0.58
2026-06-17 23:42:14.884,3623274340,14884,1,-0.21411,-0.93896,-0.0896,0.824,2.344,0.351
2026-06-17 23:42:14.884,3623274340,14884,2,-0.08887,-0.63672,0.87402,0.748,1.511,-0.534
2026-06-17 23:42:14.100,3623273556,15100,1,-0.21118,-0.93872,-0.09009,0.573,2.397,0.397
2026-06-17 23:42:14.100,3623273556,15100,2,-0.08032,-0.6416,0.87402,0.679,1.511,-0.511
2026-06-17 23:42:14.313,3623273769,15313,1,-0.21509,-0.9397,-0.0874,0.504,2.206,0.351
2026-06-17 23:42:14.313,3623273769,15313,2,-0.0835,-0.64307,0.86914,0.534,1.626,-0.458
2026-06-17 23:42:15.551,3623275007,15551,1,-0.2124,-0.93774,-0.08618,0.809,2.405,0.443
2026-06-17 23:42:15.551,3623275007,15551,2,-0.08789,-0.6438,0.88257,0.695,1.802,-0.435
2026-06-17 23:42:15.821,3623275277,15821,1,-0.20898,-0.93896,-0.09546,0.42,2.29,0.305
2026-06-17 23:42:15.821,3623275277,15821,2,-0.08643,-0.6438,0.87427,0.557,1.473,-0.511
2026-06-17 23:42:15.114,3623274570,16114,1,-0.21655,-0.9397,-0.07813,0.557,2.29,0.366
2026-06-17 23:42:15.114,3623274570,16114,2,-0.07202,-0.64941,0.87622,0.779,1.489,-0.534
2026-06-17 23:42:15.314,3623274770,16314,1,-0.20996,-0.9314,-0.08667,0.763,2.389,0.328
2026-06-17 23:42:15.314,3623274770,16314,2,-0.07813,-0.64063,0.88159,0.664,1.466,-0.71
2026-06-17 23:42:16.682,3623276138,16682,1,-0.21338,-0.93384,-0.08643,0.344,2.359,0.374
2026-06-17 23:42:16.682,3623276138,16682,2,-0.08765,-0.64136,0.87842,0.702,1.565,-0.45
2026-06-17 23:42:16.899,3623276355,16899,1,-0.21216,-0.93311,-0.08569,0.87,2.305,0.374
2026-06-17 23:42:16.899,3623276355,16899,2,-0.08057,-0.64038,0.88623,0.534,1.527,-0.275
2026-06-17 23:42:16.274,3623275730,17274,1,-0.22241,-0.93677,-0.0813,0.206,2.107,0.237
2026-06-17 23:42:16.274,3623275730,17274,2,-0.09326,-0.65454,0.87305,0.809,1.473,-0.405
2026-06-17 23:42:17.474,3623276930,17474,1,-0.2168,-0.93286,-0.07739,0.557,2.336,0.427
2026-06-17 23:42:17.474,3623276930,17474,2,-0.08667,-0.63892,0.87378,0.733,1.542,-0.382
2026-06-17 23:42:17.744,3623277200,17744,1,-0.21655,-0.93018,-0.08276,0.611,2.313,0.374
2026-06-17 23:42:17.744,3623277200,17744,2,-0.08447,-0.6438,0.87378,0.641,1.389,-0.359
2026-06-17 23:42:17.002,3623276458,18002,1,-0.21533,-0.93921,-0.08521,0.985,2.565,0.397
2026-06-17 23:42:17.002,3623276458,18002,2,-0.09253,-0.64136,0.88037,0.565,1.702,-0.443
2026-06-17 23:42:17.314,3623276770,18314,1,-0.21338,-0.92847,-0.08618,0.817,2.443,0.366
2026-06-17 23:42:17.314,3623276770,18314,2,-0.07935,-0.64087,0.88062,0.725,1.641,-0.374
2026-06-17 23:42:18.530,3623277986,18530,1,-0.2146,-0.93408,-0.08594,0.603,2.153,0.366
2026-06-17 23:42:18.530,3623277986,18530,2,-0.08252,-0.64136,0.88452,0.595,1.649,-0.466
2026-06-17 23:42:18.811,3623278267,18811,1,-0.21265,-0.93311,-0.09009,0.489,2.466,0.458
2026-06-17 23:42:18.811,3623278267,18811,2,-0.08057,-0.64722,0.87671,0.565,1.58,-0.389
2026-06-17 23:42:18.043,3623277499,19042,1,-0.21606,-0.93213,-0.08496,0.282,2.427,0.397
2026-06-17 23:42:18.043,3623277499,19042,2,-0.08521,-0.646,0.87622,0.771,1.55,-0.511
2026-06-17 23:42:18.242,3623277698,19242,1,-0.21167,-0.93457,-0.09302,0.695,2.626,0.298
2026-06-17 23:42:18.242,3623277698,19242,2,-0.08105,-0.64917,0.87427,0.527,1.466,-0.626
2026-06-17 23:42:19.513,3623278969,19513,1,-0.21362,-0.93799,-0.07983,0.13,2.198,0.45
2026-06-17 23:42:19.513,3623278969,19513,2,-0.08765,-0.63916,0.88403,0.588,1.603,-0.443
2026-06-17 23:42:19.724,3623279180,19724,1,-0.20605,-0.93726,-0.08496,0.427,2.45,0.466
2026-06-17 23:42:19.724,3623279180,19724,2,-0.08154,-0.64209,0.87915,0.588,1.55,-0.58
2026-06-17 23:42:19.022,3623278478,20021,1,-0.21143,-0.93628,-0.08374,0.718,2.26,0.351
2026-06-17 23:42:19.022,3623278478,20021,2,-0.09033,-0.64722,0.86987,0.527,1.58,-0.718
2026-06-17 23:42:19.322,3623278778,20322,1,-0.21143,-0.94092,-0.0979,0.649,2.435,0.42
2026-06-17 23:42:19.322,3623278778,20322,2,-0.08667,-0.64258,0.87573,0.695,1.702,-0.496
2026-06-17 23:42:20.626,3623280082,20626,1,-0.2168,-0.93311,-0.08447,0.565,2.344,0.397
2026-06-17 23:42:20.626,3623280082,20626,2,-0.0874,-0.63989,0.87427,0.863,1.519,-0.473
2026-06-17 23:42:20.826,3623280282,20826,1,-0.21948,-0.93457,-0.08105,0.366,2.351,0.473
2026-06-17 23:42:20.826,3623280282,20826,2,-0.08252,-0.6394,0.88086,0.634,1.634,-0.336
2026-06-17 23:42:20.240,3623279696,21239,1,-0.20703,-0.92383,-0.08618,1.687,2.756,0.191
2026-06-17 23:42:20.240,3623279696,21239,2,-0.08179,-0.64502,0.87549,0.626,1.641,-0.374
2026-06-17 23:42:21.510,3623280966,21509,1,-0.20874,-0.93384,-0.09326,0.489,2.443,0.511
2026-06-17 23:42:21.510,3623280966,21509,2,-0.08154,-0.64819,0.88281,0.786,1.603,-0.481
2026-06-17 23:42:21.810,3623281266,21810,1,-0.21411,-0.93408,-0.09424,0.557,2.206,0.366
2026-06-17 23:42:21.810,3623281266,21810,2,-0.0752,-0.63745,0.87231,0.748,1.718,-0.42
2026-06-17 23:42:21.146,3623280602,22146,1,-0.21216,-0.93628,-0.08691,0.519,2.565,0.26
2026-06-17 23:42:21.146,3623280602,22146,2,-0.08521,-0.63965,0.88428,0.718,1.588,-0.565
2026-06-17 23:42:22.443,3623281899,22443,1,-0.21118,-0.93384,-0.09302,0.55,2.351,0.282
2026-06-17 23:42:22.443,3623281899,22443,2,-0.08545,-0.64429,0.87622,0.771,1.649,-0.504
2026-06-17 23:42:22.746,3623282202,22746,1,-0.21753,-0.94043,-0.09668,0.405,2.252,0.359
2026-06-17 23:42:22.746,3623282202,22746,2,-0.08716,-0.64185,0.88916,0.679,1.603,-0.573
2026-06-17 23:42:22.044,3623281500,23044,1,-0.21777,-0.93823,-0.07983,0.893,2.473,0.26
2026-06-17 23:42:22.044,3623281500,23044,2,-0.09155,-0.65015,0.87817,0.504,1.45,-0.412
2026-06-17 23:42:23.368,3623282824,23368,1,-0.21655,-0.93188,-0.073,1.0,2.534,0.542
2026-06-17 23:42:23.368,3623282824,23368,2,-0.08105,-0.63745,0.87012,0.618,1.649,-0.565
2026-06-17 23:42:23.575,3623283031,23575,1,-0.20483,-0.93091,-0.08179,0.603,2.313,0.42
2026-06-17 23:42:23.575,3623283031,23575,2,-0.08228,-0.64136,0.87793,0.504,1.695,-0.55
2026-06-17 23:42:23.908,3623283364,23908,1,-0.21265,-0.93896,-0.08887,0.473,2.305,0.504
2026-06-17 23:42:23.908,3623283364,23908,2,-0.08203,-0.64136,0.87915,0.382,1.58,-0.58
2026-06-17 23:42:23.138,3623282594,24138,1,-0.21704,-0.9353,-0.09521,0.634,2.229,0.412
2026-06-17 23:42:23.138,3623282594,24138,2,-0.08887,-0.64429,0.88452,0.748,1.817,-0.664
2026-06-17 23:42:24.491,3623283947,24491,1,-0.22754,-0.94043,-0.08081,0.397,2.481,0.466
2026-06-17 23:42:24.491,3623283947,24491,2,-0.07007,-0.64111,0.88428,0.198,2.038,-0.458
2026-06-17 23:42:24.697,3623284153,24697,1,-0.2168,-0.93872,-0.08716,0.947,2.565,0.618
2026-06-17 23:42:24.697,3623284153,24697,2,-0.08594,-0.63843,0.88257,0.855,1.656,-0.366
2026-06-17 23:42:24.911,3623284367,24911,1,-0.20874,-0.93921,-0.0896,0.863,2.405,0.366
2026-06-17 23:42:24.911,3623284367,24911,2,-0.08447,-0.6394,0.88403,0.626,1.55,-0.427
2026-06-17 23:42:24.220,3623283676,25220,1,-0.21021,-0.94092,-0.09521,0.893,2.366,0.282
2026-06-17 23:42:24.220,3623283676,25220,2,-0.08301,-0.6394,0.88623,0.435,1.58,-0.573
2026-06-17 23:42:25.420,3623284876,25420,1,-0.2085,-0.93457,-0.08301,0.26,2.191,0.298
2026-06-17 23:42:25.420,3623284876,25420,2,-0.08374,-0.6416,0.87061,0.511,1.573,-0.618
2026-06-17 23:42:25.620,3623285076,25620,1,-0.21411,-0.93286,-0.08325,0.908,2.229,0.458
2026-06-17 23:42:25.620,3623285076,25620,2,-0.08765,-0.64404,0.88257,0.679,1.55,-0.42
2026-06-17 23:42:25.820,3623285276,25820,1,-0.21729,-0.9353,-0.08691,0.16,2.237,0.443
2026-06-17 23:42:25.820,3623285276,25820,2,-0.08008,-0.64282,0.88306,0.565,1.511,-0.473
2026-06-17 23:42:25.046,3623284502,26046,1,-0.21484,-0.95435,-0.09277,0.55,2.519,0.55
2026-06-17 23:42:25.046,3623284502,26046,2,-0.07739,-0.64185,0.87866,0.58,1.771,-0.496
2026-06-17 23:42:25.333,3623284789,26333,1,-0.21753,-0.94751,-0.08325,0.137,1.779,0.45
2026-06-17 23:42:25.333,3623284789,26333,2,-0.08667,-0.64722,0.87915,0.519,1.634,-0.481
2026-06-17 23:42:26.533,3623285989,26533,1,-0.20874,-0.92773,-0.10205,1.733,2.626,0.122
2026-06-17 23:42:26.533,3623285989,26533,2,-0.10913,-0.63574,0.77588,0.061,3.626,-1.015
2026-06-17 23:42:26.782,3623286238,26782,1,-0.21802,-0.93652,-0.08813,0.359,2.321,0.405
2026-06-17 23:42:26.782,3623286238,26782,2,-0.08398,-0.64429,0.87817,0.786,1.603,-0.473
2026-06-17 23:42:26.068,3623285524,27068,1,-0.2085,-0.93457,-0.08203,0.55,2.366,0.282
2026-06-17 23:42:26.068,3623285524,27068,2,-0.08618,-0.64526,0.875,0.74,1.71,-0.42
2026-06-17 23:42:27.567,3623287023,27567,1,-0.20996,-0.93457,-0.09229,0.947,2.435,0.366
2026-06-17 23:42:27.567,3623287023,27567,2,-0.08643,-0.63818,0.87769,0.534,1.603,-0.405
2026-06-17 23:42:27.894,3623287350,27894,1,-0.21216,-0.93555,-0.08594,0.687,2.527,0.382
2026-06-17 23:42:27.894,3623287350,27894,2,-0.08594,-0.646,0.88745,0.695,1.55,-0.473
2026-06-17 23:42:27.129,3623286585,28129,1,-0.2124,-0.93579,-0.08472,0.809,2.366,0.481
2026-06-17 23:42:27.129,3623286585,28129,2,-0.08301,-0.6438,0.88696,0.405,1.45,-0.405
2026-06-17 23:42:27.329,3623286785,28329,1,-0.21973,-0.93604,-0.09302,0.725,2.344,0.29
2026-06-17 23:42:27.329,3623286785,28329,2,-0.08398,-0.64819,0.8833,0.74,1.45,-0.496
2026-06-17 23:42:28.552,3623288008,28552,1,-0.21436,-0.93701,-0.08667,0.893,2.489,0.305
2026-06-17 23:42:28.552,3623288008,28552,2,-0.08252,-0.64795,0.87134,0.664,1.504,-0.664
2026-06-17 23:42:28.752,3623288208,28752,1,-0.21313,-0.93896,-0.08276,0.649,2.45,0.481
2026-06-17 23:42:28.752,3623288208,28752,2,-0.08716,-0.64087,0.8689,0.496,1.786,-0.649
2026-06-17 23:42:28.952,3623288408,28952,1,-0.21606,-0.93579,-0.07666,0.527,2.145,0.412
2026-06-17 23:42:28.952,3623288408,28952,2,-0.0813,-0.64502,0.87817,0.649,1.534,-0.649
2026-06-17 23:42:28.152,3623287608,29152,1,-0.20972,-0.93604,-0.08008,0.412,2.191,0.435
2026-06-17 23:42:28.152,3623287608,29152,2,-0.08081,-0.64624,0.87158,0.603,1.58,-0.534
2026-06-17 23:42:29.352,3623288808,29352,1,-0.21655,-0.93506,-0.09033,0.802,2.519,0.206
2026-06-17 23:42:29.352,3623288808,29352,2,-0.08496,-0.64209,0.87842,0.71,1.534,-0.534
2026-06-17 23:42:29.586,3623289042,29586,1,-0.21558,-0.93042,-0.08374,0.466,2.305,0.26
2026-06-17 23:42:29.586,3623289042,29586,2,-0.08594,-0.6394,0.87695,0.611,1.458,-0.397
2026-06-17 23:42:29.786,3623289242,29786,1,-0.21606,-0.94238,-0.08862,1.061,2.489,0.26
2026-06-17 23:42:29.786,3623289242,29786,2,-0.08423,-0.6416,0.87378,0.863,1.664,-0.466
2026-06-17 23:42:29.986,3623289442,29986,1,-0.2124,-0.93506,-0.08691,0.351,2.305,0.313
2026-06-17 23:42:29.986,3623289442,29986,2,-0.08179,-0.63989,0.87842,0.573,1.565,-0.336
2026-06-17 23:42:29.192,3623288648,30192,1,-0.20874,-0.93774,-0.09473,0.443,2.359,0.45
2026-06-17 23:42:29.192,3623288648,30192,2,-0.10059,-0.63916,0.88892,0.565,1.634,-0.489
2026-06-17 23:42:30.392,3623289848,30392,1,-0.21118,-0.93237,-0.0918,1.397,2.611,0.374
2026-06-17 23:42:30.392,3623289848,30392,2,-0.08594,-0.64917,0.88208,0.664,1.664,-0.412
2026-06-17 23:42:30.630,3623290086,30630,1,-0.21289,-0.93457,-0.08984,0.389,2.313,0.313
2026-06-17 23:42:30.630,3623290086,30630,2,-0.08643,-0.63599,0.87744,0.519,1.557,-0.542
2026-06-17 23:42:30.882,3623290338,30882,1,-0.21558,-0.93359,-0.09619,0.611,2.305,0.573
2026-06-17 23:42:30.882,3623290338,30882,2,-0.08887,-0.63696,0.87842,0.496,1.527,-0.45
2026-06-17 23:42:30.117,3623289573,31117,1,-0.22217,-0.94312,-0.08813,0.832,2.244,0.321
2026-06-17 23:42:30.117,3623289573,31117,2,-0.08643,-0.64673,0.87866,0.664,1.542,-0.458
2026-06-17 23:42:30.317,3623289773,31317,1,-0.21167,-0.93872,-0.08838,0.565,2.458,0.489
2026-06-17 23:42:30.317,3623289773,31317,2,-0.08472,-0.64429,0.87549,0.595,1.588,-0.519
2026-06-17 23:42:31.561,3623291017,31561,1,-0.21069,-0.93652,-0.0957,0.649,2.42,0.267
2026-06-17 23:42:31.561,3623291017,31561,2,-0.08618,-0.64575,0.87207,0.641,1.664,-0.481
2026-06-17 23:42:31.761,3623291217,31761,1,-0.21509,-0.93872,-0.07837,0.55,2.382,0.328
2026-06-17 23:42:31.761,3623291217,31761,2,-0.08252,-0.64648,0.87964,0.557,1.649,-0.397
2026-06-17 23:42:31.961,3623291417,31961,1,-0.21021,-0.93823,-0.09399,1.046,2.489,0.45
2026-06-17 23:42:31.961,3623291417,31961,2,-0.08398,-0.63696,0.86694,0.809,1.565,-0.527
2026-06-17 23:42:31.161,3623290617,32161,1,-0.20923,-0.93677,-0.08887,0.527,2.359,0.313
2026-06-17 23:42:31.161,3623290617,32161,2,-0.0835,-0.64648,0.87793,0.557,1.427,-0.519
2026-06-17 23:42:32.361,3623291817,32361,1,-0.21021,-0.93384,-0.09448,0.618,2.137,0.481
2026-06-17 23:42:32.361,3623291817,32361,2,-0.08252,-0.64331,0.86597,0.588,1.542,-0.412
2026-06-17 23:42:32.759,3623292215,32759,1,-0.21167,-0.93579,-0.09351,0.595,2.321,0.29
2026-06-17 23:42:32.759,3623292215,32759,2,-0.08594,-0.6394,0.88574,0.656,1.588,-0.435
2026-06-17 23:42:32.975,3623292431,32975,1,-0.21191,-0.93848,-0.08081,0.611,2.389,0.473
2026-06-17 23:42:32.975,3623292431,32975,2,-0.08374,-0.63989,0.88574,0.718,1.55,-0.443
2026-06-17 23:42:32.195,3623291651,33195,1,-0.21411,-0.93262,-0.07715,0.534,2.397,0.45
2026-06-17 23:42:32.195,3623291651,33195,2,-0.08838,-0.64185,0.87622,0.672,1.687,-0.641
2026-06-17 23:42:33.441,3623292897,33441,1,-0.2146,-0.94067,-0.08911,0.71,2.336,0.519
2026-06-17 23:42:33.441,3623292897,33441,2,-0.07959,-0.63867,0.88135,0.611,1.626,-0.588
2026-06-17 23:42:33.641,3623293097,33641,1,-0.20947,-0.93384,-0.07764,0.672,2.328,0.191
2026-06-17 23:42:33.641,3623293097,33641,2,-0.08911,-0.64453,0.87305,0.687,1.725,-0.45
2026-06-17 23:42:33.881,3623293337,33880,1,-0.20947,-0.93262,-0.09253,0.366,2.29,0.206
2026-06-17 23:42:33.881,3623293337,33880,2,-0.08618,-0.64185,0.88281,0.695,1.55,-0.611
2026-06-17 23:42:33.101,3623292557,34101,1,-0.21313,-0.93506,-0.08838,0.573,2.405,0.366
2026-06-17 23:42:33.101,3623292557,34101,2,-0.08618,-0.6499,0.88379,0.641,1.542,-0.557
2026-06-17 23:42:33.301,3623292757,34301,1,-0.21167,-0.93604,-0.08301,0.55,2.344,0.611
2026-06-17 23:42:33.301,3623292757,34301,2,-0.08252,-0.64258,0.87695,0.58,1.557,-0.664
2026-06-17 23:42:34.524,3623293980,34524,1,-0.21362,-0.93311,-0.07861,0.573,2.275,0.321
2026-06-17 23:42:34.524,3623293980,34524,2,-0.08862,-0.64746,0.88452,0.664,1.504,-0.458
2026-06-17 23:42:34.764,3623294220,34764,1,-0.21509,-0.93066,-0.08838,0.718,2.313,0.382
2026-06-17 23:42:34.764,3623294220,34764,2,-0.08228,-0.63794,0.87964,0.557,1.611,-0.542
2026-06-17 23:42:34.137,3623293593,35136,1,-0.21143,-0.93384,-0.08936,1.16,2.366,0.382
2026-06-17 23:42:34.137,3623293593,35136,2,-0.08374,-0.64404,0.87964,0.802,1.565,-0.466
2026-06-17 23:42:35.416,3623294872,35416,1,-0.21411,-0.93604,-0.08838,0.786,2.481,0.366
2026-06-17 23:42:35.416,3623294872,35416,2,-0.08374,-0.63989,0.8728,0.611,1.611,-0.466
2026-06-17 23:42:35.616,3623295072,35616,1,-0.21118,-0.93213,-0.08301,-0.137,2.221,0.374
2026-06-17 23:42:35.616,3623295072,35616,2,-0.08691,-0.63745,0.875,0.763,1.565,-0.595
2026-06-17 23:42:35.816,3623295272,35816,1,-0.2124,-0.93359,-0.08179,0.794,2.412,0.534
2026-06-17 23:42:35.816,3623295272,35816,2,-0.08057,-0.64966,0.86719,0.687,1.466,-0.58
2026-06-17 23:42:40.952,3623300408,40952,1,-0.21069,-0.93262,-0.07666,0.817,2.282,0.282
2026-06-17 23:42:40.952,3623300408,40952,2,-0.07666,-0.65674,0.9104,0.771,0.473,-0.534
2026-06-17 23:42:40.152,3623299608,41152,1,-0.21118,-0.93555,-0.08691,0.748,2.542,0.321
2026-06-17 23:42:40.152,3623299608,41152,2,-0.08594,-0.6499,0.87598,0.481,1.511,-0.595
2026-06-17 23:42:41.352,3623300808,41352,1,-0.20923,-0.94653,-0.09131,0.641,2.336,0.374
2026-06-17 23:42:41.352,3623300808,41352,2,-0.0813,-0.64551,0.8877,0.824,1.649,-0.405
2026-06-17 23:42:41.552,3623301008,41552,1,-0.21582,-0.93359,-0.08765,0.618,2.275,0.504
2026-06-17 23:42:41.552,3623301008,41552,2,-0.08228,-0.63599,0.87354,0.58,1.511,-0.466
2026-06-17 23:42:41.101,3623300557,42101,1,-0.21753,-0.93774,-0.08496,0.412,2.176,0.366
2026-06-17 23:42:41.101,3623300557,42101,2,-0.08545,-0.64307,0.8916,0.71,1.626,-0.588
2026-06-17 23:42:42.560,3623302016,42559,1,-0.21143,-0.9375,-0.09546,0.908,2.412,0.351
2026-06-17 23:42:42.560,3623302016,42559,2,-0.08374,-0.64111,0.87622,0.557,1.71,-0.427
2026-06-17 23:42:42.838,3623302294,42837,1,-0.2146,-0.93701,-0.08643,0.641,2.26,0.305
2026-06-17 23:42:42.838,3623302294,42837,2,-0.07935,-0.64648,0.88062,0.626,1.58,-0.649
2026-06-17 23:42:42.162,3623301618,43162,1,-0.2085,-0.94043,-0.09253,1.076,2.328,0.282
2026-06-17 23:42:42.162,3623301618,43162,2,-0.0874,-0.65063,0.87915,0.603,1.427,-0.588
2026-06-17 23:42:43.461,3623302917,43461,1,-0.20313,-0.93286,-0.09766,0.87,2.275,0.397
2026-06-17 23:42:43.461,3623302917,43461,2,-0.08301,-0.64941,0.88306,0.603,1.71,-0.481
2026-06-17 23:42:43.986,3623303442,43986,1,-0.21387,-0.93262,-0.08887,0.634,2.153,0.435
2026-06-17 23:42:43.986,3623303442,43986,2,-0.0835,-0.64844,0.88965,0.702,1.45,-0.557
2026-06-17 23:42:43.212,3623302668,44212,1,-0.21558,-0.94189,-0.08179,0.885,2.267,0.527
2026-06-17 23:42:43.212,3623302668,44212,2,-0.08691,-0.64404,0.87598,0.687,1.557,-0.756
2026-06-17 23:42:44.606,3623304062,44606,1,-0.21558,-0.93408,-0.1001,0.87,2.435,0.412
2026-06-17 23:42:44.606,3623304062,44606,2,-0.08472,-0.64331,0.87915,0.687,1.435,-0.473
2026-06-17 23:42:44.843,3623304299,44843,1,-0.21509,-0.93848,-0.08887,0.496,2.328,0.221
2026-06-17 23:42:44.843,3623304299,44843,2,-0.08789,-0.64111,0.87158,0.641,1.634,-0.634
2026-06-17 23:42:44.115,3623303571,45115,1,-0.20825,-0.93604,-0.08594,0.832,2.282,0.427
2026-06-17 23:42:44.115,3623303571,45115,2,-0.08984,-0.64697,0.87524,0.427,1.634,-0.351
2026-06-17 23:42:45.404,3623304860,45404,1,-0.20581,-0.93286,-0.09302,0.878,2.565,0.374
2026-06-17 23:42:45.404,3623304860,45404,2,-0.08984,-0.63867,0.87476,0.618,1.656,-0.542
2026-06-17 23:42:45.654,3623305110,45654,1,-0.2085,-0.93726,-0.09082,0.534,2.351,0.366
2026-06-17 23:42:45.654,3623305110,45654,2,-0.08521,-0.64185,0.88721,0.878,1.504,-0.542
2026-06-17 23:42:45.910,3623305366,45910,1,-0.21265,-0.93896,-0.08276,0.046,2.137,0.206
2026-06-17 23:42:45.910,3623305366,45910,2,-0.0835,-0.6416,0.88672,0.527,1.672,-0.489
2026-06-17 23:42:45.110,3623304566,46110,1,-0.2124,-0.93311,-0.08228,1.55,2.389,0.29
2026-06-17 23:42:45.110,3623304566,46110,2,-0.08447,-0.64502,0.88599,0.771,1.611,-0.519
2026-06-17 23:42:45.310,3623304766,46310,1,-0.20898,-0.93774,-0.08691,0.336,2.145,0.458
2026-06-17 23:42:45.310,3623304766,46310,2,-0.09155,-0.64258,0.8728,0.656,1.595,-0.412
2026-06-17 23:42:46.574,3623306030,46574,1,-0.21094,-0.93506,-0.08594,0.382,2.214,0.298
2026-06-17 23:42:46.574,3623306030,46574,2,-0.08887,-0.64258,0.89111,0.573,1.519,-0.473
2026-06-17 23:42:46.774,3623306230,46774,1,-0.21777,-0.93213,-0.09644,0.374,2.519,0.328
2026-06-17 23:42:46.774,3623306230,46774,2,-0.08105,-0.64282,0.88037,0.618,1.58,-0.504
2026-06-17 23:42:46.071,3623305527,47071,1,-0.21631,-0.9353,-0.08789,0.573,2.427,0.366
2026-06-17 23:42:46.071,3623305527,47071,2,-0.08691,-0.64355,0.87402,0.603,1.702,-0.55
2026-06-17 23:42:46.312,3623305768,47312,1,-0.2063,-0.93652,-0.09033,0.863,2.519,0.496
2026-06-17 23:42:46.312,3623305768,47312,2,-0.08765,-0.64331,0.88696,0.55,1.634,-0.534
2026-06-17 23:42:47.563,3623307019,47563,1,-0.21021,-0.93799,-0.08252,0.84,2.496,0.351
2026-06-17 23:42:47.563,3623307019,47563,2,-0.08398,-0.64282,0.88037,0.557,1.595,-0.45
2026-06-17 23:42:47.763,3623307219,47763,1,-0.20947,-0.93262,-0.08862,0.885,2.481,0.412
2026-06-17 23:42:47.763,3623307219,47763,2,-0.08472,-0.64258,0.86646,0.702,1.466,-0.412
2026-06-17 23:42:47.963,3623307419,47963,1,-0.20288,-0.93896,-0.09375,0.107,2.16,0.344
2026-06-17 23:42:47.963,3623307419,47963,2,-0.08203,-0.65039,0.89038,0.527,1.511,-0.611
2026-06-17 23:42:47.187,3623306643,48187,1,-0.21118,-0.9397,-0.08716,0.321,2.191,0.481
2026-06-17 23:42:47.187,3623306643,48187,2,-0.07861,-0.64478,0.87549,0.641,1.374,-0.511
2026-06-17 23:42:48.448,3623307904,48448,1,-0.21826,-0.9314,-0.08594,0.511,2.176,0.405
2026-06-17 23:42:48.448,3623307904,48448,2,-0.08569,-0.64551,0.87866,0.573,1.435,-0.427
2026-06-17 23:42:48.714,3623308170,48713,1,-0.21729,-0.93335,-0.0896,0.389,2.115,0.374
2026-06-17 23:42:48.714,3623308170,48713,2,-0.07935,-0.64844,0.87378,0.588,1.511,-0.618
2026-06-17 23:42:48.913,3623308369,48913,1,-0.20386,-0.93628,-0.08618,0.504,2.313,0.389
2026-06-17 23:42:48.913,3623308369,48913,2,-0.08789,-0.64722,0.87695,0.832,1.672,-0.679
2026-06-17 23:42:48.113,3623307569,49113,1,-0.21655,-0.94043,-0.09058,0.87,2.282,0.244
2026-06-17 23:42:48.113,3623307569,49113,2,-0.08545,-0.63916,0.87573,0.649,1.489,-0.443
2026-06-17 23:42:48.313,3623307769,49313,1,-0.20947,-0.93628,-0.09204,0.42,2.412,0.397
2026-06-17 23:42:48.313,3623307769,49313,2,-0.07935,-0.64209,0.88257,0.626,1.504,-0.588
2026-06-17 23:42:49.607,3623309063,49606,1,-0.21826,-0.93115,-0.08105,0.282,2.153,0.366
2026-06-17 23:42:49.607,3623309063,49606,2,-0.08252,-0.63623,0.86523,0.672,1.481,-0.649
2026-06-17 23:42:49.811,3623309267,49811,1,-0.2085,-0.93042,-0.08765,0.45,2.336,0.328
2026-06-17 23:42:49.811,3623309267,49811,2,-0.08154,-0.64624,0.88574,0.45,1.435,-0.496
2026-06-17 23:42:49.020,3623308476,50020,1,-0.21411,-0.93237,-0.08765,0.87,2.298,0.389
2026-06-17 23:42:49.020,3623308476,50020,2,-0.08325,-0.64355,0.87671,0.557,1.397,-0.481
2026-06-17 23:42:50.499,3623309955,50499,1,-0.21582,-0.93213,-0.09668,-0.13,2.229,0.382
2026-06-17 23:42:50.499,3623309955,50499,2,-0.08179,-0.64453,0.86963,0.557,1.733,-0.573
2026-06-17 23:42:50.717,3623310173,50717,1,-0.21948,-0.93237,-0.08179,0.511,2.16,0.298
2026-06-17 23:42:50.717,3623310173,50717,2,-0.08008,-0.64258,0.8894,0.427,1.588,-0.473
2026-06-17 23:42:50.990,3623310446,50990,1,-0.21509,-0.93506,-0.10083,-0.473,1.817,0.466
2026-06-17 23:42:50.990,3623310446,50990,2,-0.08032,-0.63892,0.87744,0.611,1.672,-0.565
2026-06-17 23:42:50.212,3623309668,51212,1,-0.21533,-0.9248,-0.08472,0.504,2.115,0.473
2026-06-17 23:42:50.212,3623309668,51212,2,-0.08472,-0.64673,0.87744,0.511,1.542,-0.45
2026-06-17 23:42:51.541,3623310997,51541,1,-0.21045,-0.9397,-0.08618,0.573,2.145,0.435
2026-06-17 23:42:51.541,3623310997,51541,2,-0.08521,-0.63745,0.87891,0.626,1.473,-0.527
2026-06-17 23:42:51.741,3623311197,51741,1,-0.21362,-0.93506,-0.08813,0.55,2.351,0.374
2026-06-17 23:42:51.741,3623311197,51741,2,-0.08179,-0.65063,0.88623,0.786,1.527,-0.527
2026-06-17 23:42:51.146,3623310602,52145,1,-0.21143,-0.93872,-0.09277,0.771,2.366,0.252
2026-06-17 23:42:51.146,3623310602,52145,2,-0.0813,-0.63843,0.87915,0.771,1.351,-0.427
2026-06-17 23:42:52.377,3623311833,52377,1,-0.21191,-0.93457,-0.08716,0.55,2.321,0.458
2026-06-17 23:42:52.377,3623311833,52377,2,-0.07983,-0.6416,0.88525,0.626,1.191,-0.489
2026-06-17 23:42:52.684,3623312140,52684,1,-0.20996,-0.93774,-0.08398,0.573,2.244,0.252
2026-06-17 23:42:52.684,3623312140,52684,2,-0.08203,-0.64258,0.89014,0.656,1.481,-0.573
2026-06-17 23:42:52.898,3623312354,52898,1,-0.20752,-0.93311,-0.08057,0.519,2.298,0.252
2026-06-17 23:42:52.898,3623312354,52898,2,-0.0813,-0.63794,0.88452,0.786,1.481,-0.397
2026-06-17 23:42:52.340,3623311796,53340,1,-0.20996,-0.94067,-0.10059,-0.023,2.221,0.534
2026-06-17 23:42:52.340,3623311796,53340,2,-0.08521,-0.64429,0.86475,0.626,1.573,-0.366
2026-06-17 23:42:53.725,3623313181,53725,1,-0.21606,-0.93945,-0.09668,0.618,2.214,0.328
2026-06-17 23:42:53.725,3623313181,53725,2,-0.08521,-0.6416,0.875,0.534,1.542,-0.534
2026-06-17 23:42:53.285,3623312741,54284,1,-0.21094,-0.93799,-0.08398,0.855,2.26,0.397
2026-06-17 23:42:53.285,3623312741,54284,2,-0.08667,-0.6438,0.87891,0.389,1.511,-0.305
2026-06-17 23:42:54.593,3623314049,54593,1,-0.21582,-0.9353,-0.08936,0.832,2.252,0.298
2026-06-17 23:42:54.593,3623314049,54593,2,-0.07739,-0.63989,0.88306,0.763,1.649,-0.466
2026-06-17 23:42:54.883,3623314339,54883,1,-0.21948,-0.93091,-0.07666,1.061,2.443,0.321
2026-06-17 23:42:54.883,3623314339,54883,2,-0.07935,-0.64844,0.87891,0.588,1.672,-0.511
2026-06-17 23:42:55.402,3623314858,55401,1,-0.21729,-0.93652,-0.08765,0.313,2.29,0.328
2026-06-17 23:42:55.402,3623314858,55401,2,-0.08301,-0.64136,0.87158,0.58,1.252,-0.412
2026-06-17 23:42:55.812,3623315268,55812,1,-0.2063,-0.93848,-0.08618,0.71,2.389,0.412
2026-06-17 23:42:55.812,3623315268,55812,2,-0.08008,-0.63623,0.87256,0.687,1.55,-0.366
2026-06-17 23:42:55.112,3623314568,56112,1,-0.21069,-0.93286,-0.08472,0.16,2.176,0.298
2026-06-17 23:42:55.112,3623314568,56112,2,-0.09033,-0.64111,0.87842,0.412,1.534,-0.611
2026-06-17 23:42:55.326,3623314782,56326,1,-0.20874,-0.93237,-0.08252,0.733,2.359,0.397
2026-06-17 23:42:55.326,3623314782,56326,2,-0.08813,-0.64355,0.86938,0.55,1.595,-0.389
2026-06-17 23:42:56.631,3623316087,56631,1,-0.21045,-0.94043,-0.09717,0.031,2.237,0.382
2026-06-17 23:42:56.631,3623316087,56631,2,-0.08691,-0.64673,0.87378,0.763,1.603,0.046
2026-06-17 23:42:56.106,3623315562,57106,1,-0.21509,-0.93774,-0.08374,0.679,2.275,0.489
2026-06-17 23:42:56.106,3623315562,57106,2,-0.08887,-0.64185,0.88037,0.763,1.84,-0.435
2026-06-17 23:42:57.450,3623316906,57450,1,-0.2146,-0.93042,-0.07446,0.763,2.153,0.321
2026-06-17 23:42:57.450,3623316906,57450,2,-0.0813,-0.64502,0.88159,0.374,1.534,-0.389
2026-06-17 23:42:57.679,3623317135,57679,1,-0.21411,-0.92847,-0.08423,0.42,2.313,0.313
2026-06-17 23:42:57.679,3623317135,57679,2,-0.08862,-0.64404,0.87402,0.641,1.58,-0.565
2026-06-17 23:42:57.980,3623317436,57980,1,-0.20728,-0.93604,-0.08765,0.504,2.351,0.305
2026-06-17 23:42:57.980,3623317436,57980,2,-0.08789,-0.63867,0.87378,0.672,1.679,-0.466
2026-06-17 23:42:58.414,3623317870,58414,1,-0.21826,-0.94092,-0.08423,0.328,2.107,0.328
2026-06-17 23:42:58.414,3623317870,58414,2,-0.08423,-0.646,0.89038,0.756,1.366,-0.55
2026-06-17 23:42:58.729,3623318185,58729,1,-0.21167,-0.93091,-0.10059,0.656,2.412,0.244
2026-06-17 23:42:58.729,3623318185,58729,2,-0.08105,-0.64355,0.86353,0.565,1.611,-0.504
2026-06-17 23:42:58.037,3623317493,59036,1,-0.2146,-0.94189,-0.08618,0.687,2.275,0.466
2026-06-17 23:42:58.037,3623317493,59036,2,-0.08716,-0.64038,0.88013,0.771,1.55,-0.626
2026-06-17 23:42:58.344,3623317800,59344,1,-0.20874,-0.93311,-0.08691,0.534,2.427,0.328
2026-06-17 23:42:58.344,3623317800,59344,2,-0.09082,-0.63867,0.8623,0.489,1.595,-0.573
2026-06-17 23:43:01.332,3623320788,62332,1,-0.20923,-0.93823,-0.10547,0.42,2.397,0.458
2026-06-17 23:43:01.332,3623320788,62332,2,-0.08472,-0.64111,0.88403,0.588,1.595,-0.573
2026-06-17 23:43:02.621,3623322077,62620,1,-0.21143,-0.93188,-0.08984,0.389,2.183,0.496
2026-06-17 23:43:02.621,3623322077,62620,2,-0.09058,-0.63306,0.88306,0.534,1.557,-0.305
2026-06-17 23:43:02.964,3623322420,62963,1,-0.21118,-0.92944,-0.09058,0.641,2.229,0.366
2026-06-17 23:43:02.964,3623322420,62963,2,-0.07983,-0.64111,0.87524,0.504,1.336,-0.489
2026-06-17 23:43:02.248,3623321704,63248,1,-0.20874,-0.94263,-0.0874,0.817,2.939,0.397
2026-06-17 23:43:02.248,3623321704,63248,2,-0.08691,-0.64282,0.87305,0.412,1.855,-0.489
2026-06-17 23:43:03.530,3623322986,63529,1,-0.20996,-0.93457,-0.09253,0.229,2.397,0.45
2026-06-17 23:43:03.530,3623322986,63529,2,-0.07397,-0.65088,0.87769,0.634,1.374,-0.382
2026-06-17 23:43:03.768,3623323224,63768,1,-0.22095,-0.93408,-0.09668,1.29,2.695,0.282
2026-06-17 23:43:03.768,3623323224,63768,2,-0.0874,-0.64917,0.88354,0.557,1.771,-0.435
2026-06-17 23:43:03.968,3623323424,63968,1,-0.2146,-0.94043,-0.08252,0.641,2.29,0.374
2026-06-17 23:43:03.968,3623323424,63968,2,-0.08228,-0.646,0.8772,0.595,1.863,-0.58
2026-06-17 23:43:03.168,3623322624,64168,1,-0.21338,-0.93506,-0.08521,0.863,2.412,0.305
2026-06-17 23:43:03.168,3623322624,64168,2,-0.08374,-0.65063,0.87915,0.573,1.618,-0.542
2026-06-17 23:43:04.473,3623323929,64472,1,-0.22192,-0.93433,-0.09619,0.458,2.282,0.427
2026-06-17 23:43:04.473,3623323929,64472,2,-0.08301,-0.63623,0.88403,0.847,1.695,-0.527
2026-06-17 23:43:04.756,3623324212,64756,1,-0.21753,-0.93311,-0.08545,0.611,2.405,0.313
2026-06-17 23:43:04.756,3623324212,64756,2,-0.09082,-0.64722,0.88159,0.565,1.534,-0.405
2026-06-17 23:43:04.956,3623324412,64956,1,-0.21362,-0.93994,-0.07959,0.809,2.473,0.359
2026-06-17 23:43:04.956,3623324412,64956,2,-0.07959,-0.64307,0.88257,0.496,1.84,-0.542
2026-06-17 23:43:04.156,3623323612,65156,1,-0.2168,-0.93359,-0.09766,1.198,2.328,0.389
2026-06-17 23:43:04.156,3623323612,65156,2,-0.08984,-0.64282,0.88574,0.565,1.603,-0.321
2026-06-17 23:43:05.430,3623324886,65430,1,-0.21191,-0.93628,-0.08838,0.45,2.45,0.328
2026-06-17 23:43:05.430,3623324886,65430,2,-0.07813,-0.64258,0.87549,0.519,1.527,-0.481
2026-06-17 23:43:05.630,3623325086,65630,1,-0.24438,-0.94946,-0.04834,-0.229,3.038,-0.328
2026-06-17 23:43:05.630,3623325086,65630,2,-0.0896,-0.62207,0.86597,0.84,1.481,0.366
2026-06-17 23:43:05.830,3623325286,65830,1,-0.21582,-0.93555,-0.08667,-3.55,1.664,0.45
2026-06-17 23:43:05.830,3623325286,65830,2,-0.09473,-0.64624,0.87524,0.458,1.664,-0.466
2026-06-17 23:43:05.030,3623324486,66030,1,-0.21045,-0.93188,-0.09131,-0.412,2.252,0.282
2026-06-17 23:43:05.030,3623324486,66030,2,-0.08862,-0.64771,0.87476,0.802,1.458,-0.588
2026-06-17 23:43:05.230,3623324686,66230,1,-0.21411,-0.93091,-0.09497,0.595,2.328,0.427
2026-06-17 23:43:05.230,3623324686,66230,2,-0.08545,-0.65137,0.87231,0.588,1.542,-0.504
2026-06-17 23:43:06.430,3623325886,66430,1,-0.21753,-0.93359,-0.08105,0.695,2.191,0.206
2026-06-17 23:43:06.430,3623325886,66430,2,-0.08179,-0.63696,0.87891,0.527,1.435,-0.435
2026-06-17 23:43:06.999,3623326455,66999,1,-0.21045,-0.93359,-0.10059,0.351,2.229,0.359
2026-06-17 23:43:06.999,3623326455,66999,2,-0.08472,-0.63745,0.87915,0.534,1.313,-0.405
2026-06-17 23:43:06.255,3623325711,67255,1,-0.21436,-0.93628,-0.0874,0.649,2.305,0.496
2026-06-17 23:43:06.255,3623325711,67255,2,-0.08569,-0.6416,0.87988,0.618,1.618,-0.527
2026-06-17 23:43:07.492,3623326948,67492,1,-0.21533,-0.93945,-0.09546,0.42,2.366,0.427
2026-06-17 23:43:07.492,3623326948,67492,2,-0.08325,-0.64111,0.88013,0.565,1.641,-0.481
2026-06-17 23:43:07.692,3623327148,67692,1,-0.21094,-0.93726,-0.09082,0.779,2.511,0.267
2026-06-17 23:43:07.692,3623327148,67692,2,-0.08032,-0.64087,0.87476,0.756,1.58,-0.672
2026-06-17 23:43:07.892,3623327348,67892,1,-0.21045,-0.93433,-0.08472,0.756,2.344,0.305
2026-06-17 23:43:07.892,3623327348,67892,2,-0.09155,-0.63916,0.88696,0.656,1.664,-0.504
2026-06-17 23:43:07.092,3623326548,68092,1,-0.21094,-0.94019,-0.08398,0.817,2.489,0.527
2026-06-17 23:43:07.092,3623326548,68092,2,-0.08594,-0.64087,0.87134,0.58,1.389,-0.466
2026-06-17 23:43:08.416,3623327872,68416,1,-0.21436,-0.93213,-0.09009,0.702,2.382,0.344
2026-06-17 23:43:08.416,3623327872,68416,2,-0.08447,-0.63843,0.88062,0.412,1.611,-0.611
2026-06-17 23:43:08.624,3623328080,68624,1,-0.20923,-0.93799,-0.09595,0.725,2.466,0.359
2026-06-17 23:43:08.624,3623328080,68624,2,-0.07935,-0.64746,0.87866,0.664,1.443,-0.45
2026-06-17 23:43:08.824,3623328280,68824,1,-0.21533,-0.94067,-0.08618,0.481,2.29,0.389
2026-06-17 23:43:08.824,3623328280,68824,2,-0.08228,-0.64526,0.87891,0.786,1.58,-0.55
2026-06-17 23:43:08.135,3623327591,69135,1,-0.21655,-0.93384,-0.0896,0.634,2.305,0.397
2026-06-17 23:43:08.135,3623327591,69135,2,-0.08008,-0.64038,0.88135,0.656,1.443,-0.573
2026-06-17 23:43:08.335,3623327791,69335,1,-0.21167,-0.93604,-0.09009,0.71,2.366,0.412
2026-06-17 23:43:08.335,3623327791,69335,2,-0.0874,-0.646,0.88745,0.55,1.489,-0.45
2026-06-17 23:43:09.535,3623328991,69535,1,-0.21118,-0.93213,-0.08813,0.374,2.023,0.336
2026-06-17 23:43:09.535,3623328991,69535,2,-0.08496,-0.64233,0.89551,0.626,1.565,-0.427
2026-06-17 23:43:09.768,3623329224,69768,1,-0.2146,-0.93896,-0.073,-0.748,1.977,0.359
2026-06-17 23:43:09.768,3623329224,69768,2,-0.08374,-0.65137,0.88281,0.763,1.725,-0.55
2026-06-17 23:43:09.968,3623329424,69968,1,-0.21338,-0.93188,-0.08618,0.466,2.183,0.344
2026-06-17 23:43:09.968,3623329424,69968,2,-0.08105,-0.646,0.87988,0.679,1.489,-0.466
2026-06-17 23:43:09.206,3623328662,70206,1,-0.2085,-0.93677,-0.08765,0.664,2.282,0.267
2026-06-17 23:43:09.206,3623328662,70206,2,-0.0835,-0.64917,0.88086,0.687,1.649,-0.58
2026-06-17 23:43:10.533,3623329989,70532,1,-0.21558,-0.93457,-0.08496,0.672,2.542,0.366
2026-06-17 23:43:10.533,3623329989,70532,2,-0.08301,-0.63965,0.89087,0.679,1.519,-0.427
2026-06-17 23:43:10.732,3623330188,70732,1,-0.20996,-0.94287,-0.09131,0.855,2.458,0.519
2026-06-17 23:43:10.732,3623330188,70732,2,-0.07324,-0.64697,0.87158,0.748,1.511,-0.42
2026-06-17 23:43:10.956,3623330412,70956,1,-0.21509,-0.94092,-0.09521,0.84,2.313,0.397
2026-06-17 23:43:10.956,3623330412,70956,2,-0.07886,-0.64624,0.87891,0.725,1.618,-0.45
2026-06-17 23:43:10.240,3623329696,71240,1,-0.21094,-0.93042,-0.08203,0.527,2.336,0.328
2026-06-17 23:43:10.240,3623329696,71240,2,-0.08276,-0.64844,0.88232,0.557,1.481,-0.679
2026-06-17 23:43:11.440,3623330896,71440,1,-0.21973,-0.9353,-0.08691,1.099,2.626,0.427
2026-06-17 23:43:11.440,3623330896,71440,2,-0.08838,-0.64478,0.87769,0.71,1.641,-0.351
2026-06-17 23:43:11.640,3623331096,71640,1,-0.21167,-0.93945,-0.08423,1.053,2.489,0.389
2026-06-17 23:43:11.640,3623331096,71640,2,-0.08203,-0.63892,0.88013,0.595,1.641,-0.504
2026-06-17 23:43:11.840,3623331296,71840,1,-0.21167,-0.93213,-0.08862,0.557,2.328,0.351
2026-06-17 23:43:11.840,3623331296,71840,2,-0.08618,-0.64111,0.86865,0.725,1.519,-0.298
2026-06-17 23:43:11.040,3623330496,72040,1,-0.20679,-0.93555,-0.07153,0.977,2.382,0.344
2026-06-17 23:43:11.040,3623330496,72040,2,-0.08521,-0.64185,0.88306,0.656,1.656,-0.634
2026-06-17 23:43:11.240,3623330696,72240,1,-0.21021,-0.93237,-0.09131,0.702,2.313,0.313
2026-06-17 23:43:11.240,3623330696,72240,2,-0.08521,-0.64429,0.86694,0.389,1.588,-0.336
2026-06-17 23:43:12.465,3623331921,72465,1,-0.21265,-0.93628,-0.08716,0.786,2.13,0.443
2026-06-17 23:43:12.465,3623331921,72465,2,-0.08496,-0.64526,0.87842,0.573,1.557,-0.443
2026-06-17 23:43:12.665,3623332121,72665,1,-0.21265,-0.92871,-0.09229,1.0,2.237,0.397
2026-06-17 23:43:12.665,3623332121,72665,2,-0.08472,-0.64087,0.89014,0.504,1.573,-0.534
2026-06-17 23:43:12.126,3623331582,73126,1,-0.22021,-0.93677,-0.08716,0.687,2.427,0.336
2026-06-17 23:43:12.126,3623331582,73126,2,-0.08301,-0.64258,0.88086,0.519,1.427,-0.405
2026-06-17 23:43:14.986,3623334442,74986,1,-0.20703,-0.93384,-0.09595,0.313,2.183,0.321
2026-06-17 23:43:14.986,3623334442,74986,2,-0.08228,-0.64307,0.86768,0.58,1.664,-0.481
2026-06-17 23:43:36.275,3623355731,97275,2,-0.08862,-0.63696,0.87524,0.344,1.412,-0.573
2026-06-17 23:43:36.275,3623355731,97275,2,-0.08862,-0.63696,0.87524,0.344,1.412,-0.573
2026-06-17 23:43:53.892,3623373348,113891,1,-0.20996,-0.92725,-0.09375,0.695,2.267,0.366
2026-06-17 23:43:53.892,3623373348,113891,2,-0.08887,-0.64453,0.87061,0.626,1.664,-0.573
2026-06-17 23:43:53.091,3623372547,114091,1,-0.21533,-0.92236,-0.07886,0.786,2.191,0.412
2026-06-17 23:43:53.091,3623372547,114091,2,-0.06909,-0.64917,0.87744,0.672,1.664,-0.466
2026-06-17 23:43:53.291,3623372747,114291,1,-0.21313,-0.93579,-0.09033,0.626,2.405,0.496
2026-06-17 23:43:53.291,3623372747,114291,2,-0.08203,-0.65161,0.86987,0.656,1.656,-0.496
2026-06-17 23:43:54.491,3623373947,114491,1,-0.21094,-0.94116,-0.09277,0.389,2.313,0.397
2026-06-17 23:43:54.491,3623373947,114491,2,-0.07983,-0.64404,0.88159,0.496,1.557,-0.626
2026-06-17 23:43:54.723,3623374179,114723,1,-0.21191,-0.93604,-0.08716,-0.321,2.42,0.443
2026-06-17 23:43:54.723,3623374179,114723,2,-0.08594,-0.63892,0.88599,0.695,1.664,-0.366
2026-06-17 23:43:54.923,3623374379,114923,1,-0.2168,-0.93848,-0.08984,1.069,2.573,0.145
2026-06-17 23:43:54.923,3623374379,114923,2,-0.08716,-0.64014,0.88696,0.55,1.832,-0.382
2026-06-17 23:43:54.123,3623373579,115123,1,-0.21045,-0.92969,-0.0752,0.573,2.237,0.458
2026-06-17 23:43:54.123,3623373579,115123,2,-0.08081,-0.64282,0.87769,0.664,1.771,-0.458
2026-06-17 23:43:54.323,3623373779,115323,1,-0.21484,-0.93213,-0.08618,1.099,2.435,0.481
2026-06-17 23:43:54.323,3623373779,115323,2,-0.09424,-0.63501,0.88403,0.656,1.55,-0.344
2026-06-17 23:43:55.523,3623374979,115523,1,-0.19531,-0.92383,-0.10303,-2.076,2.122,0.374
2026-06-17 23:43:55.523,3623374979,115523,2,-0.0918,-0.6394,0.87354,0.45,1.832,-0.275
2026-06-17 23:43:55.723,3623375179,115723,1,-0.21655,-0.93433,-0.08008,-0.924,1.992,0.382
2026-06-17 23:43:55.723,3623375179,115723,2,-0.07373,-0.64258,0.88037,0.534,1.656,-0.55
2026-06-17 23:43:55.923,3623375379,115923,1,-0.20679,-0.94067,-0.07813,0.374,2.107,0.374
2026-06-17 23:43:55.923,3623375379,115923,2,-0.08032,-0.64331,0.87451,0.489,1.573,-0.481
2026-06-17 23:43:55.123,3623374579,116123,1,-0.20435,-0.9314,-0.08667,1.611,2.359,0.412
2026-06-17 23:43:55.123,3623374579,116123,2,-0.08765,-0.63525,0.89526,0.672,1.145,-0.542
2026-06-17 23:43:55.323,3623374779,116323,1,-0.21021,-0.93335,-0.09595,0.122,2.359,0.466
2026-06-17 23:43:55.323,3623374779,116323,2,-0.08594,-0.63745,0.88965,0.595,1.656,-0.244
2026-06-17 23:43:56.523,3623375979,116523,1,-0.20752,-0.93701,-0.09814,0.214,2.214,0.458
2026-06-17 23:43:56.523,3623375979,116523,2,-0.08203,-0.6438,0.87671,0.641,1.656,-0.504
2026-06-17 23:43:56.723,3623376179,116723,1,-0.21289,-0.93237,-0.0813,0.71,2.366,0.435
2026-06-17 23:43:56.723,3623376179,116723,2,-0.08398,-0.64502,0.86743,0.649,1.588,-0.336
2026-06-17 23:43:56.951,3623376407,116951,1,-0.21655,-0.93066,-0.03735,0.16,1.779,0.473
2026-06-17 23:43:56.951,3623376407,116951,2,-0.0813,-0.6626,0.87866,0.885,1.573,-0.252
2026-06-17 23:43:56.151,3623375607,117151,1,-0.21411,-0.93628,-0.08618,0.443,2.122,0.466
2026-06-17 23:43:56.151,3623375607,117151,2,-0.08374,-0.64331,0.87939,0.496,1.336,-0.366
2026-06-17 23:43:57.351,3623376807,117351,1,-0.21143,-0.93628,-0.09937,0.191,2.267,0.397
2026-06-17 23:43:57.351,3623376807,117351,2,-0.08887,-0.64868,0.86914,0.718,1.55,-0.359
2026-06-17 23:43:57.551,3623377007,117551,1,-0.21802,-0.94336,-0.09595,0.481,2.275,0.336
2026-06-17 23:43:57.551,3623377007,117551,2,-0.07935,-0.64282,0.88232,0.664,1.405,-0.489
2026-06-17 23:43:57.751,3623377207,117751,1,-0.21021,-0.92822,-0.07446,1.496,2.435,0.229
2026-06-17 23:43:57.751,3623377207,117751,2,-0.08667,-0.64795,0.87378,0.656,1.55,-0.542
2026-06-17 23:43:57.951,3623377407,117951,1,-0.21118,-0.92969,-0.08911,0.969,2.473,0.466
2026-06-17 23:43:57.951,3623377407,117951,2,-0.08643,-0.6521,0.87573,0.763,1.611,-0.397
2026-06-17 23:43:57.151,3623376607,118151,1,-0.21338,-0.93848,-0.0957,0.832,2.313,0.351
2026-06-17 23:43:57.151,3623376607,118151,2,-0.08203,-0.64575,0.88501,0.618,1.313,-0.557
2026-06-17 23:43:58.351,3623377807,118351,1,-0.21851,-0.94043,-0.09741,0.206,2.359,0.282
2026-06-17 23:43:58.351,3623377807,118351,2,-0.08081,-0.64063,0.88037,0.565,1.664,-0.405
2026-06-17 23:43:58.551,3623378007,118551,1,-0.2168,-0.93848,-0.09521,0.206,2.252,0.405
2026-06-17 23:43:58.551,3623378007,118551,2,-0.08545,-0.64575,0.87915,0.718,1.55,-0.405
2026-06-17 23:43:58.751,3623378207,118751,1,-0.21265,-0.93774,-0.09277,0.473,2.298,0.366
2026-06-17 23:43:58.751,3623378207,118751,2,-0.08936,-0.64404,0.87939,0.351,1.595,-0.573
2026-06-17 23:43:58.979,3623378435,118979,1,-0.20313,-0.9397,-0.08301,0.084,2.351,0.237
2026-06-17 23:43:58.979,3623378435,118979,2,-0.07983,-0.64331,0.88184,0.55,1.542,-0.397
2026-06-17 23:43:58.179,3623377635,119179,1,-0.20508,-0.92993,-0.08569,0.649,2.443,0.359
2026-06-17 23:43:58.179,3623377635,119179,2,-0.08154,-0.64063,0.87915,0.42,1.473,-0.29
2026-06-17 23:43:59.379,3623378835,119379,1,-0.21851,-0.93359,-0.07983,0.229,1.603,0.305
2026-06-17 23:43:59.379,3623378835,119379,2,-0.09058,-0.64453,0.88379,0.534,1.489,-0.519
2026-06-17 23:43:59.022,3623378478,120022,1,-0.21143,-0.92847,-0.08594,0.679,2.023,0.29
2026-06-17 23:43:59.022,3623378478,120022,2,-0.08716,-0.63745,0.87549,0.397,1.527,-0.527
2026-06-17 23:43:59.222,3623378678,120222,1,-0.21069,-0.94556,-0.08789,0.588,2.397,0.351
2026-06-17 23:43:59.222,3623378678,120222,2,-0.07813,-0.64331,0.87354,0.771,1.435,-0.473
2026-06-17 23:44:00.422,3623379878,120422,1,-0.20996,-0.91943,-0.08594,1.565,3.076,0.313
2026-06-17 23:44:00.422,3623379878,120422,2,-0.08838,-0.64185,0.86768,1.26,1.031,-0.489
2026-06-17 23:44:00.630,3623380086,120629,1,-0.21899,-0.94043,-0.09766,0.42,2.29,0.519
2026-06-17 23:44:00.630,3623380086,120629,2,-0.08105,-0.63501,0.87817,0.74,1.595,-0.534
2026-06-17 23:44:00.892,3623380348,120892,1,-0.21021,-0.93579,-0.08203,0.542,2.336,0.267
2026-06-17 23:44:00.892,3623380348,120892,2,-0.08911,-0.64331,0.87769,0.611,1.473,-0.534
2026-06-17 23:44:00.169,3623379625,121169,1,-0.21655,-0.93774,-0.08032,0.359,2.344,0.282
2026-06-17 23:44:00.169,3623379625,121169,2,-0.08496,-0.63989,0.88062,0.527,1.565,-0.344
2026-06-17 23:44:01.383,3623380839,121383,1,-0.21338,-0.93677,-0.0896,0.832,2.374,0.359
2026-06-17 23:44:01.383,3623380839,121383,2,-0.08496,-0.64331,0.87134,0.389,1.664,-0.481
2026-06-17 23:44:01.583,3623381039,121583,1,-0.21509,-0.93945,-0.09473,0.725,2.435,0.527
2026-06-17 23:44:01.583,3623381039,121583,2,-0.07935,-0.6377,0.88086,0.519,1.542,-0.405
2026-06-17 23:44:01.897,3623381353,121897,1,-0.21411,-0.93628,-0.09863,0.779,2.305,0.252
2026-06-17 23:44:01.897,3623381353,121897,2,-0.07983,-0.63843,0.8833,0.786,1.679,-0.412
2026-06-17 23:44:01.097,3623380553,122097,1,-0.21802,-0.93848,-0.08325,0.962,2.397,0.557
2026-06-17 23:44:01.097,3623380553,122097,2,-0.08545,-0.64429,0.87769,0.557,1.603,-0.496
2026-06-17 23:44:01.297,3623380753,122297,1,-0.20972,-0.93384,-0.09155,0.221,2.168,0.473
2026-06-17 23:44:01.297,3623380753,122297,2,-0.08618,-0.64209,0.88086,0.679,1.687,-0.557
2026-06-17 23:44:02.497,3623381953,122497,1,-0.21021,-0.94043,-0.08911,0.756,2.359,0.45
2026-06-17 23:44:02.497,3623381953,122497,2,-0.08569,-0.64624,0.8855,0.511,1.435,-0.565
2026-06-17 23:44:02.701,3623382157,122701,1,-0.21094,-0.93677,-0.08887,0.656,2.237,0.298
2026-06-17 23:44:02.701,3623382157,122701,2,-0.08716,-0.65063,0.87866,0.443,1.664,-0.45
2026-06-17 23:44:02.901,3623382357,122901,1,-0.21289,-0.93481,-0.08887,0.794,2.252,0.527
2026-06-17 23:44:02.901,3623382357,122901,2,-0.08398,-0.64185,0.88257,0.702,1.489,-0.618
2026-06-17 23:44:02.104,3623381560,123104,1,-0.20898,-0.93726,-0.09937,0.603,2.145,0.42
2026-06-17 23:44:02.104,3623381560,123104,2,-0.08325,-0.64233,0.87915,0.588,1.718,-0.595
2026-06-17 23:44:03.369,3623382825,123369,1,-0.21094,-0.94336,-0.08057,0.679,2.374,0.374
2026-06-17 23:44:03.369,3623382825,123369,2,-0.07544,-0.64209,0.87915,0.595,1.611,-0.382
2026-06-17 23:44:03.585,3623383041,123585,1,-0.21411,-0.93018,-0.09009,0.603,2.321,0.359
2026-06-17 23:44:03.585,3623383041,123585,2,-0.08301,-0.63525,0.8811,0.718,1.618,-0.473
2026-06-17 23:44:03.873,3623383329,123873,1,-0.21631,-0.92896,-0.08105,0.626,2.321,0.374
2026-06-17 23:44:03.873,3623383329,123873,2,-0.09424,-0.64453,0.86938,0.588,1.298,-0.534
2026-06-17 23:44:03.341,3623382797,124341,1,-0.20752,-0.93311,-0.09155,1.443,2.565,0.412
2026-06-17 23:44:03.341,3623382797,124341,2,-0.08521,-0.64819,0.88062,0.496,1.527,-0.527
2026-06-17 23:44:04.541,3623383997,124541,1,-0.21216,-0.9375,-0.08765,0.489,2.305,0.511
2026-06-17 23:44:04.541,3623383997,124541,2,-0.08813,-0.64282,0.86694,0.626,1.656,-0.466
2026-06-17 23:44:04.837,3623384293,124837,1,-0.21021,-0.93774,-0.08374,0.489,2.237,0.29
2026-06-17 23:44:04.837,3623384293,124837,2,-0.08691,-0.6416,0.88281,0.58,1.443,-0.427
2026-06-17 23:44:04.037,3623383493,125037,1,-0.21338,-0.93579,-0.08618,0.763,2.427,0.344
2026-06-17 23:44:04.037,3623383493,125037,2,-0.08911,-0.64282,0.88306,0.557,1.473,-0.519
2026-06-17 23:44:04.293,3623383749,125293,1,-0.21948,-0.93823,-0.08545,0.573,2.282,0.427
2026-06-17 23:44:04.293,3623383749,125293,2,-0.07983,-0.64038,0.88184,0.626,1.664,-0.496
2026-06-17 23:44:05.493,3623384949,125493,1,-0.2207,-0.94238,-0.09546,0.458,2.42,0.45
2026-06-17 23:44:05.493,3623384949,125493,2,-0.08789,-0.64258,0.87451,0.626,1.55,-0.382
2026-06-17 23:44:05.693,3623385149,125693,1,-0.20557,-0.93994,-0.08813,0.542,2.298,0.542
2026-06-17 23:44:05.693,3623385149,125693,2,-0.08179,-0.64404,0.89355,0.573,1.595,-0.481
2026-06-17 23:44:05.921,3623385377,125921,1,-0.21289,-0.93701,-0.08618,0.557,2.275,0.374
2026-06-17 23:44:05.921,3623385377,125921,2,-0.08862,-0.63916,0.88306,0.595,1.473,-0.473
2026-06-17 23:44:05.121,3623384577,126121,1,-0.21582,-0.94189,-0.0957,0.611,2.336,0.328
2026-06-17 23:44:05.121,3623384577,126121,2,-0.08813,-0.64136,0.88354,0.595,1.511,-0.458
2026-06-17 23:44:05.321,3623384777,126321,1,-0.21045,-0.93286,-0.09375,0.603,2.389,0.298
2026-06-17 23:44:05.321,3623384777,126321,2,-0.08301,-0.64282,0.88281,0.542,1.534,-0.489
2026-06-17 23:44:06.557,3623386013,126556,1,-0.21338,-0.93115,-0.08594,0.603,2.321,0.427
2026-06-17 23:44:06.557,3623386013,126556,2,-0.08691,-0.6416,0.88086,0.473,1.466,-0.405
2026-06-17 23:44:06.756,3623386212,126756,1,-0.21558,-0.93481,-0.09473,0.618,2.321,0.427
2026-06-17 23:44:06.756,3623386212,126756,2,-0.08252,-0.65356,0.88452,0.504,1.527,-0.42
2026-06-17 23:44:06.956,3623386412,126956,1,-0.2124,-0.93848,-0.09204,0.756,2.473,0.26
2026-06-17 23:44:06.956,3623386412,126956,2,-0.08545,-0.64893,0.88428,0.511,1.595,-0.275
2026-06-17 23:44:06.156,3623385612,127156,1,-0.21265,-0.93115,-0.08618,0.656,2.26,0.359
2026-06-17 23:44:06.156,3623385612,127156,2,-0.09009,-0.64844,0.86426,0.595,1.45,-0.504
2026-06-17 23:44:07.411,3623386867,127411,1,-0.21143,-0.93774,-0.0896,0.725,2.298,0.382
2026-06-17 23:44:07.411,3623386867,127411,2,-0.08496,-0.64404,0.88159,0.641,1.458,-0.496
2026-06-17 23:44:07.611,3623387067,127611,1,-0.21362,-0.94263,-0.09375,0.664,2.389,0.42
2026-06-17 23:44:07.611,3623387067,127611,2,-0.08057,-0.64722,0.88672,0.672,1.481,-0.374
2026-06-17 23:44:07.811,3623387267,127811,1,-0.20776,-0.93677,-0.08716,0.626,2.397,0.473
2026-06-17 23:44:07.811,3623387267,127811,2,-0.08789,-0.6377,0.88013,0.71,1.588,-0.527
2026-06-17 23:44:07.030,3623386486,128030,1,-0.20898,-0.93628,-0.09546,0.832,2.191,0.489
2026-06-17 23:44:07.030,3623386486,128030,2,-0.08594,-0.64185,0.87939,0.634,1.718,-0.557
2026-06-17 23:44:07.230,3623386686,128230,1,-0.2124,-0.93872,-0.08765,0.656,2.305,0.374
2026-06-17 23:44:07.230,3623386686,128230,2,-0.08887,-0.64697,0.87134,0.618,1.489,-0.405
2026-06-17 23:44:08.430,3623387886,128430,1,-0.21118,-0.93848,-0.08911,0.626,2.382,0.504
2026-06-17 23:44:08.430,3623387886,128430,2,-0.09009,-0.63867,0.87158,0.519,1.588,-0.412
2026-06-17 23:44:08.654,3623388110,128654,1,-0.21289,-0.93213,-0.08569,0.489,2.229,0.458
2026-06-17 23:44:08.654,3623388110,128654,2,-0.08447,-0.6377,0.87012,0.634,1.634,-0.481
2026-06-17 23:44:08.896,3623388352,128895,1,-0.20679,-0.94165,-0.08691,0.725,2.282,0.443
2026-06-17 23:44:08.896,3623388352,128895,2,-0.08496,-0.64307,0.87769,0.756,1.527,-0.672
2026-06-17 23:44:08.127,3623387583,129127,1,-0.20825,-0.9375,-0.09521,0.756,2.435,0.168
2026-06-17 23:44:08.127,3623387583,129127,2,-0.08545,-0.64575,0.88354,0.626,1.466,-0.412
2026-06-17 23:44:08.327,3623387783,129327,1,-0.21606,-0.93945,-0.0791,0.557,2.366,0.412
2026-06-17 23:44:08.327,3623387783,129327,2,-0.09351,-0.63892,0.87646,0.618,1.634,-0.603
2026-06-17 23:44:09.571,3623389027,129571,1,-0.21216,-0.93945,-0.08765,0.641,2.389,0.405
2026-06-17 23:44:09.571,3623389027,129571,2,-0.08521,-0.65088,0.87036,0.672,1.634,-0.389
2026-06-17 23:44:09.805,3623389261,129805,1,-0.21606,-0.94409,-0.09204,0.58,2.435,0.45
2026-06-17 23:44:09.805,3623389261,129805,2,-0.08765,-0.64185,0.88281,0.634,1.595,-0.42
2026-06-17 23:44:09.005,3623388461,130005,1,-0.21045,-0.92969,-0.07764,0.748,2.321,0.374
2026-06-17 23:44:09.005,3623388461,130005,2,-0.08325,-0.64575,0.88257,0.695,1.557,-0.489
2026-06-17 23:44:09.205,3623388661,130205,1,-0.21167,-0.93628,-0.08203,0.702,2.397,0.42
2026-06-17 23:44:09.205,3623388661,130205,2,-0.07959,-0.64893,0.87817,0.702,1.573,-0.359
2026-06-17 23:44:10.450,3623389906,130450,1,-0.20679,-0.93872,-0.08765,0.366,2.267,0.542
2026-06-17 23:44:10.450,3623389906,130450,2,-0.08081,-0.64014,0.88403,0.771,1.519,-0.443
2026-06-17 23:44:10.650,3623390106,130650,1,-0.21655,-0.92773,-0.08228,0.664,2.374,0.29
2026-06-17 23:44:10.650,3623390106,130650,2,-0.0769,-0.63721,0.87793,0.763,1.496,-0.626
2026-06-17 23:44:10.850,3623390306,130850,1,-0.26343,-0.90381,-0.02515,-2.534,1.527,0.656
2026-06-17 23:44:10.850,3623390306,130850,2,-0.04224,-0.66333,0.8999,0.214,2.756,-0.366
2026-06-17 23:44:10.111,3623389567,131111,1,-0.21167,-0.9353,-0.07007,4.55,2.588,0.176
2026-06-17 23:44:10.111,3623389567,131111,2,-0.08374,-0.63281,0.87939,0.679,1.809,-0.611
2026-06-17 23:44:11.363,3623390819,131363,1,-0.2063,-0.95337,-0.07251,1.931,2.221,0.374
2026-06-17 23:44:11.363,3623390819,131363,2,-0.08154,-0.63428,0.87891,0.748,1.664,-0.542
2026-06-17 23:44:11.563,3623391019,131563,1,-0.21118,-0.93311,-0.09326,1.298,2.336,0.511
2026-06-17 23:44:11.563,3623391019,131563,2,-0.08179,-0.64502,0.88403,0.763,1.511,-0.557
2026-06-17 23:44:11.763,3623391219,131763,1,-0.21265,-0.927,-0.08301,0.412,2.282,0.412
2026-06-17 23:44:11.763,3623391219,131763,2,-0.08301,-0.646,0.88135,0.695,1.534,-0.282
2026-06-17 23:44:11.019,3623390475,132018,1,-0.20752,-0.93823,-0.09277,0.382,2.099,0.45
2026-06-17 23:44:11.019,3623390475,132018,2,-0.07715,-0.64404,0.86743,0.672,1.695,-0.473
2026-06-17 23:44:11.218,3623390674,132218,1,-0.20532,-0.9397,-0.08716,-0.214,2.031,0.573
2026-06-17 23:44:11.218,3623390674,132218,2,-0.08179,-0.64331,0.88818,0.664,1.618,-0.504
2026-06-17 23:44:12.418,3623391874,132418,1,-0.21338,-0.93604,-0.08179,2.237,2.725,0.267
2026-06-17 23:44:12.418,3623391874,132418,2,-0.07861,-0.64258,0.86792,0.313,1.397,-0.542
2026-06-17 23:44:12.618,3623392074,132618,1,-0.20752,-0.94165,-0.08594,0.038,2.198,0.344
2026-06-17 23:44:12.618,3623392074,132618,2,-0.08228,-0.64136,0.87476,0.565,1.557,-0.511
2026-06-17 23:44:12.818,3623392274,132818,1,-0.21045,-0.9353,-0.07959,0.885,2.237,0.504
2026-06-17 23:44:12.818,3623392274,132818,2,-0.07178,-0.64648,0.87158,0.573,1.511,-0.618
2026-06-17 23:44:12.103,3623391559,133103,1,-0.20923,-0.93604,-0.08057,0.55,2.107,0.344
2026-06-17 23:44:12.103,3623391559,133103,2,-0.08032,-0.64551,0.88135,0.565,1.435,-0.504
2026-06-17 23:44:12.303,3623391759,133303,1,-0.21826,-0.93994,-0.08472,0.656,2.282,0.435
2026-06-17 23:44:12.303,3623391759,133303,2,-0.08911,-0.64258,0.88428,0.542,1.71,-0.443
2026-06-17 23:44:13.503,3623392959,133503,1,-0.2146,-0.93945,-0.09106,0.603,2.298,0.344
2026-06-17 23:44:13.503,3623392959,133503,2,-0.08691,-0.64453,0.88379,0.565,1.702,-0.542
2026-06-17 23:44:13.760,3623393216,133760,1,-0.21045,-0.93701,-0.08887,0.672,2.351,0.466
2026-06-17 23:44:13.760,3623393216,133760,2,-0.07935,-0.64331,0.8855,0.527,1.771,-0.542
2026-06-17 23:44:13.983,3623393439,133982,1,-0.2085,-0.93872,-0.08569,0.573,2.542,0.473
2026-06-17 23:44:13.983,3623393439,133982,2,-0.08667,-0.63428,0.88062,0.511,1.298,-0.504
2026-06-17 23:44:13.202,3623392658,134202,1,-0.20557,-0.93335,-0.10107,-1.145,1.748,0.489
2026-06-17 23:44:13.202,3623392658,134202,2,-0.07471,-0.64673,0.87354,0.55,1.695,-0.366
2026-06-17 23:44:14.433,3623393889,134433,1,-0.20825,-0.92847,-0.09448,0.687,2.382,0.427
2026-06-17 23:44:14.433,3623393889,134433,2,-0.08618,-0.63916,0.86816,0.466,1.924,-0.458
2026-06-17 23:44:14.720,3623394176,134719,1,-0.21558,-0.93677,-0.07764,0.878,2.229,0.427
2026-06-17 23:44:14.720,3623394176,134719,2,-0.08643,-0.6416,0.88477,0.588,1.55,-0.58
2026-06-17 23:44:14.951,3623394407,134951,1,-0.21143,-0.92456,-0.08228,0.542,2.107,0.481
2026-06-17 23:44:14.951,3623394407,134951,2,-0.0813,-0.64282,0.87695,0.626,1.573,-0.466
2026-06-17 23:44:14.232,3623393688,135232,1,-0.21118,-0.93555,-0.08862,0.626,2.252,0.336
2026-06-17 23:44:14.232,3623393688,135232,2,-0.08325,-0.63965,0.87769,0.664,1.527,-0.618
2026-06-17 23:44:15.432,3623394888,135432,1,-0.21143,-0.94189,-0.08716,0.427,2.29,0.351
2026-06-17 23:44:15.432,3623394888,135432,2,-0.08521,-0.6438,0.88452,0.649,1.656,-0.42
2026-06-17 23:44:15.632,3623395088,135632,1,-0.21191,-0.93579,-0.09155,0.611,2.122,0.344
2026-06-17 23:44:15.632,3623395088,135632,2,-0.09131,-0.6438,0.87817,0.496,1.42,-0.496
2026-06-17 23:44:15.836,3623395292,135836,1,-0.21558,-0.93579,-0.08472,0.695,2.427,0.557
2026-06-17 23:44:15.836,3623395292,135836,2,-0.08374,-0.646,0.87158,0.687,1.519,-0.504
2026-06-17 23:44:15.036,3623394492,136036,1,-0.20825,-0.93701,-0.09302,0.511,2.382,0.328
2026-06-17 23:44:15.036,3623394492,136036,2,-0.08423,-0.64917,0.88428,0.496,1.519,-0.534
2026-06-17 23:44:15.236,3623394692,136236,1,-0.21436,-0.93994,-0.09521,0.939,2.336,0.305
2026-06-17 23:44:15.236,3623394692,136236,2,-0.08447,-0.64185,0.875,0.45,1.45,-0.382
2026-06-17 23:44:16.474,3623395930,136474,1,-0.21191,-0.93579,-0.08569,0.794,2.382,0.466
2026-06-17 23:44:16.474,3623395930,136474,2,-0.09326,-0.64282,0.88452,0.618,1.542,-0.519
2026-06-17 23:44:16.697,3623396153,136696,1,-0.21118,-0.93872,-0.08667,0.252,2.046,0.45
2026-06-17 23:44:16.697,3623396153,136696,2,-0.08521,-0.6394,0.86816,0.641,1.58,-0.542
2026-06-17 23:44:16.896,3623396352,136896,1,-0.20947,-0.93481,-0.08057,0.725,2.489,0.344
2026-06-17 23:44:16.896,3623396352,136896,2,-0.0708,-0.65161,0.87305,0.557,1.794,-0.466
2026-06-17 23:44:16.137,3623395593,137137,1,-0.2146,-0.92017,-0.08667,0.389,2.198,0.473
2026-06-17 23:44:16.137,3623395593,137137,2,-0.0874,-0.6416,0.87842,0.603,1.687,-0.443
2026-06-17 23:44:17.346,3623396802,137346,1,-0.21802,-0.93213,-0.09839,1.099,2.305,0.328
2026-06-17 23:44:17.346,3623396802,137346,2,-0.08618,-0.64551,0.88037,0.779,1.496,-0.511
2026-06-17 23:44:17.716,3623397172,137715,1,-0.21094,-0.93237,-0.08008,0.977,2.405,0.321
2026-06-17 23:44:17.716,3623397172,137715,2,-0.08398,-0.64575,0.87671,0.695,1.412,-0.481
2026-06-17 23:44:17.924,3623397380,137924,1,-0.21069,-0.9375,-0.09033,0.527,2.573,0.282
2026-06-17 23:44:17.924,3623397380,137924,2,-0.08447,-0.646,0.87964,0.634,1.435,-0.496
2026-06-17 23:44:17.124,3623396580,138124,1,-0.20825,-0.93188,-0.08618,0.855,2.519,0.351
2026-06-17 23:44:17.124,3623396580,138124,2,-0.08398,-0.63403,0.88721,0.489,1.756,-0.374
2026-06-17 23:44:17.324,3623396780,138324,1,-0.20947,-0.92798,-0.08447,-0.153,2.099,0.55
2026-06-17 23:44:17.324,3623396780,138324,2,-0.08228,-0.64087,0.87695,0.733,1.427,-0.58
2026-06-17 23:44:18.584,3623398040,138584,1,-0.20923,-0.9375,-0.09302,0.641,2.305,0.321
2026-06-17 23:44:18.584,3623398040,138584,2,-0.08179,-0.64404,0.87866,0.664,1.55,-0.405
2026-06-17 23:44:18.784,3623398240,138784,1,-0.21826,-0.93384,-0.07471,0.061,2.198,0.435
2026-06-17 23:44:18.784,3623398240,138784,2,-0.08716,-0.64355,0.87378,0.626,1.511,-0.511
2026-06-17 23:44:18.041,3623397497,139041,1,-0.20801,-0.93408,-0.08325,0.87,2.489,0.298
2026-06-17 23:44:18.041,3623397497,139041,2,-0.08496,-0.64136,0.87036,0.618,1.55,-0.565
2026-06-17 23:44:18.251,3623397707,139251,1,-0.20947,-0.93091,-0.07861,0.305,2.282,0.42
2026-06-17 23:44:18.251,3623397707,139251,2,-0.08691,-0.64014,0.8728,0.679,1.664,-0.45
2026-06-17 23:44:19.451,3623398907,139451,1,-0.21313,-0.93774,-0.09058,0.74,2.412,0.252
2026-06-17 23:44:19.451,3623398907,139451,2,-0.08228,-0.63916,0.87939,0.687,1.664,-0.489
2026-06-17 23:44:19.651,3623399107,139651,1,-0.2146,-0.93286,-0.09277,0.122,2.122,0.328
2026-06-17 23:44:19.651,3623399107,139651,2,-0.0791,-0.64282,0.87402,0.763,1.672,-0.55
2026-06-17 23:44:19.851,3623399307,139851,1,-0.21045,-0.93018,-0.08008,0.13,2.153,0.29
2026-06-17 23:44:19.851,3623399307,139851,2,-0.08203,-0.63843,0.8728,0.611,1.588,-0.298
2026-06-17 23:44:19.068,3623398524,140068,1,-0.21167,-0.93555,-0.08643,0.534,2.298,0.374
2026-06-17 23:44:19.068,3623398524,140068,2,-0.08618,-0.64771,0.87451,0.405,1.527,-0.504
2026-06-17 23:44:19.268,3623398724,140268,1,-0.21631,-0.93335,-0.08887,1.038,2.305,0.351
2026-06-17 23:44:19.268,3623398724,140268,2,-0.08936,-0.63647,0.87695,0.58,1.557,-0.519
2026-06-17 23:44:20.468,3623399924,140468,1,-0.21387,-0.93628,-0.0874,0.58,2.389,0.412
2026-06-17 23:44:20.468,3623399924,140468,2,-0.07983,-0.63965,0.87378,0.565,1.763,-0.458
2026-06-17 23:44:20.668,3623400124,140668,1,-0.21021,-0.9314,-0.09351,-0.061,2.183,0.344
2026-06-17 23:44:20.668,3623400124,140668,2,-0.07959,-0.65625,0.87207,0.58,1.473,-0.473
2026-06-17 23:44:20.920,3623400376,140920,1,-0.21606,-0.94604,-0.08862,0.748,2.26,0.244
2026-06-17 23:44:20.920,3623400376,140920,2,-0.08545,-0.63477,0.87158,0.527,1.489,-0.473
2026-06-17 23:44:20.134,3623399590,141134,1,-0.21094,-0.93872,-0.09668,0.756,2.229,0.366
2026-06-17 23:44:20.134,3623399590,141134,2,-0.08643,-0.64307,0.88306,0.55,1.58,-0.351
2026-06-17 23:44:20.334,3623399790,141334,1,-0.2146,-0.94092,-0.08984,0.893,2.519,0.45
2026-06-17 23:44:20.334,3623399790,141334,2,-0.09058,-0.6438,0.8667,0.366,1.527,-0.634
2026-06-17 23:44:21.581,3623401037,141581,1,-0.21021,-0.93408,-0.08105,0.626,2.298,0.55
2026-06-17 23:44:21.581,3623401037,141581,2,-0.0791,-0.64111,0.88428,0.573,1.71,-0.504
2026-06-17 23:44:21.781,3623401237,141781,1,-0.2146,-0.93311,-0.09058,0.863,2.527,0.29
2026-06-17 23:44:21.781,3623401237,141781,2,-0.0874,-0.64038,0.87598,0.573,1.565,-0.473
2026-06-17 23:44:21.981,3623401437,141981,1,-0.21094,-0.9314,-0.08984,-0.649,1.962,0.519
2026-06-17 23:44:21.981,3623401437,141981,2,-0.0708,-0.65161,0.86328,0.611,1.733,-0.466
2026-06-17 23:44:21.269,3623400725,142269,1,-0.21558,-0.94116,-0.09351,1.939,2.74,0.359
2026-06-17 23:44:21.269,3623400725,142269,2,-0.0874,-0.64087,0.8689,0.534,1.595,-0.374
2026-06-17 23:44:22.510,3623401966,142510,1,-0.21631,-0.93701,-0.09204,1.122,2.206,0.298
2026-06-17 23:44:22.510,3623401966,142510,2,-0.08179,-0.64624,0.87964,0.603,1.611,-0.458
2026-06-17 23:44:22.786,3623402242,142786,1,-0.20605,-0.93799,-0.08936,-0.13,2.153,0.473
2026-06-17 23:44:22.786,3623402242,142786,2,-0.08618,-0.64648,0.87598,0.618,1.557,-0.511
2026-06-17 23:44:22.986,3623402442,142986,1,-0.2146,-0.93726,-0.08154,1.206,2.397,0.305
2026-06-17 23:44:22.986,3623402442,142986,2,-0.08887,-0.64282,0.87207,0.588,1.702,-0.565
2026-06-17 23:44:22.186,3623401642,143186,1,-0.21021,-0.93848,-0.1001,1.084,2.519,0.489
2026-06-17 23:44:22.186,3623401642,143186,2,-0.08374,-0.64038,0.88013,0.748,1.588,-0.458
2026-06-17 23:44:23.386,3623402842,143386,1,-0.21387,-0.9375,-0.0874,0.931,2.466,0.427
2026-06-17 23:44:23.386,3623402842,143386,2,-0.08154,-0.64282,0.87695,0.58,1.466,-0.427
2026-06-17 23:44:23.586,3623403042,143586,1,-0.21509,-0.93823,-0.09839,0.771,2.427,0.45
2026-06-17 23:44:23.586,3623403042,143586,2,-0.08203,-0.65381,0.87988,0.779,1.573,-0.603
2026-06-17 23:44:23.786,3623403242,143786,1,-0.21167,-0.94556,-0.08936,0.427,2.252,0.298
2026-06-17 23:44:23.786,3623403242,143786,2,-0.08545,-0.64282,0.87817,0.519,1.542,-0.534
2026-06-17 23:44:23.008,3623402464,144008,1,-0.21118,-0.94165,-0.09302,0.771,2.366,0.405
2026-06-17 23:44:23.008,3623402464,144008,2,-0.08301,-0.64893,0.87842,0.802,1.496,-0.511
2026-06-17 23:44:23.331,3623402787,144331,1,-0.21094,-0.93457,-0.08789,0.733,2.298,0.275
2026-06-17 23:44:23.331,3623402787,144331,2,-0.07935,-0.63916,0.8833,0.649,1.481,-0.519
2026-06-17 23:44:24.581,3623404037,144580,1,-0.20313,-0.93921,-0.08545,0.557,2.328,0.374
2026-06-17 23:44:24.581,3623404037,144580,2,-0.09131,-0.63892,0.8772,0.733,1.702,-0.443
2026-06-17 23:44:24.780,3623404236,144780,1,-0.20679,-0.93311,-0.09106,-0.176,1.916,0.374
2026-06-17 23:44:24.780,3623404236,144780,2,-0.0896,-0.63623,0.88306,0.557,1.435,-0.45
2026-06-17 23:44:24.980,3623404436,144980,1,-0.21753,-0.9353,-0.09033,0.511,2.183,0.466
2026-06-17 23:44:24.980,3623404436,144980,2,-0.07959,-0.64355,0.88232,0.45,1.344,-0.573
2026-06-17 23:44:24.224,3623403680,145224,1,-0.20825,-0.93823,-0.0918,0.656,2.298,0.397
2026-06-17 23:44:24.224,3623403680,145224,2,-0.08032,-0.6499,0.87671,0.603,1.626,-0.435
2026-06-17 23:44:25.424,3623404880,145424,1,-0.21094,-0.93848,-0.0918,0.389,2.412,0.504
2026-06-17 23:44:25.424,3623404880,145424,2,-0.08203,-0.64526,0.87866,0.626,1.58,-0.534
2026-06-17 23:44:25.624,3623405080,145624,1,-0.21094,-0.94116,-0.09424,1.168,2.504,0.458
2026-06-17 23:44:25.624,3623405080,145624,2,-0.08252,-0.63916,0.88062,0.626,1.565,-0.565
2026-06-17 23:44:25.932,3623405388,145932,1,-0.2146,-0.93555,-0.08423,1.069,2.656,0.366
2026-06-17 23:44:25.932,3623405388,145932,2,-0.08301,-0.64551,0.87915,0.595,1.573,-0.534
2026-06-17 23:44:25.132,3623404588,146132,1,-0.21143,-0.93774,-0.09424,0.084,2.099,0.557
2026-06-17 23:44:25.132,3623404588,146132,2,-0.08276,-0.63818,0.88623,0.519,1.611,-0.359
2026-06-17 23:44:26.381,3623405837,146381,1,-0.20728,-0.93896,-0.08716,0.573,2.305,0.42
2026-06-17 23:44:26.381,3623405837,146381,2,-0.09058,-0.6438,0.88062,0.557,1.565,-0.527
2026-06-17 23:44:26.650,3623406106,146650,1,-0.20874,-0.93774,-0.08398,0.313,2.26,0.298
2026-06-17 23:44:26.650,3623406106,146650,2,-0.08447,-0.64429,0.88403,0.618,1.466,-0.641
2026-06-17 23:44:26.850,3623406306,146850,1,-0.20801,-0.93628,-0.08154,0.603,2.336,0.519
2026-06-17 23:44:26.850,3623406306,146850,2,-0.08447,-0.64893,0.87109,0.626,1.45,-0.611
2026-06-17 23:44:26.050,3623405506,147050,1,-0.20728,-0.93921,-0.08643,0.527,2.366,0.405
2026-06-17 23:44:26.050,3623405506,147050,2,-0.08569,-0.64478,0.89746,1.13,1.382,-0.466
2026-06-17 23:44:26.250,3623405706,147250,1,-0.21313,-0.9353,-0.08545,0.718,2.435,0.397
2026-06-17 23:44:26.250,3623405706,147250,2,-0.08496,-0.6438,0.88232,0.603,1.603,-0.45
2026-06-17 23:44:27.492,3623406948,147491,1,-0.21167,-0.93726,-0.0835,0.725,2.489,0.29
2026-06-17 23:44:27.492,3623406948,147491,2,-0.0835,-0.64453,0.87012,0.58,1.565,-0.344
2026-06-17 23:44:27.691,3623407147,147691,1,-0.21265,-0.93726,-0.08887,0.603,2.206,0.282
2026-06-17 23:44:27.691,3623407147,147691,2,-0.08398,-0.64331,0.87793,0.45,1.427,-0.427
2026-06-17 23:44:27.891,3623407347,147891,1,-0.21045,-0.93774,-0.08984,0.573,2.198,0.42
2026-06-17 23:44:27.891,3623407347,147891,2,-0.08667,-0.64063,0.87769,0.626,1.519,-0.42
2026-06-17 23:44:27.091,3623406547,148091,1,-0.21313,-0.93945,-0.0835,0.511,2.511,0.458
2026-06-17 23:44:27.091,3623406547,148091,2,-0.08496,-0.64111,0.87158,0.603,1.55,-0.45
2026-06-17 23:44:28.406,3623407862,148406,1,-0.21509,-0.94336,-0.08838,0.641,2.374,0.458
2026-06-17 23:44:28.406,3623407862,148406,2,-0.07861,-0.64014,0.87695,0.71,1.489,-0.511
2026-06-17 23:44:28.606,3623408062,148606,1,-0.21362,-0.93677,-0.08667,0.649,2.252,0.397
2026-06-17 23:44:28.606,3623408062,148606,2,-0.08545,-0.64355,0.88257,0.435,1.626,-0.473
2026-06-17 23:44:28.806,3623408262,148806,1,-0.21265,-0.93506,-0.09619,0.481,2.534,0.473
2026-06-17 23:44:28.806,3623408262,148806,2,-0.07983,-0.64355,0.88184,0.626,1.695,-0.534
2026-06-17 23:44:28.006,3623407462,149006,1,-0.20972,-0.93628,-0.07446,0.794,2.382,0.313
2026-06-17 23:44:28.006,3623407462,149006,2,-0.08008,-0.65039,0.87793,0.725,1.656,-0.481
2026-06-17 23:44:28.206,3623407662,149206,1,-0.20923,-0.93115,-0.09277,0.389,2.443,0.374
2026-06-17 23:44:28.206,3623407662,149206,2,-0.08325,-0.64648,0.8811,0.435,1.603,-0.374
2026-06-17 23:44:29.514,3623408970,149514,1,-0.21436,-0.93994,-0.0874,-0.008,2.084,0.55
2026-06-17 23:44:29.514,3623408970,149514,2,-0.0835,-0.65161,0.88306,0.756,1.626,-0.534
2026-06-17 23:44:29.714,3623409170,149714,1,-0.21338,-0.93433,-0.08374,0.992,2.412,0.275
2026-06-17 23:44:29.714,3623409170,149714,2,-0.0918,-0.64502,0.8833,0.634,1.351,-0.519
2026-06-17 23:44:29.914,3623409370,149914,1,-0.21021,-0.93604,-0.08984,0.336,2.13,0.275
2026-06-17 23:44:29.914,3623409370,149914,2,-0.08105,-0.63818,0.8772,0.656,1.557,-0.42
2026-06-17 23:44:29.114,3623408570,150114,1,-0.20776,-0.94141,-0.08716,0.901,2.412,0.366
2026-06-17 23:44:29.114,3623408570,150114,2,-0.08691,-0.63989,0.88184,0.481,1.611,-0.313
2026-06-17 23:44:30.484,3623409940,150484,1,-0.21069,-0.93652,-0.08789,0.672,2.298,0.282
2026-06-17 23:44:30.484,3623409940,150484,2,-0.08228,-0.63867,0.87842,0.496,1.557,-0.466
2026-06-17 23:44:30.684,3623410140,150684,1,-0.20337,-0.92993,-0.08862,0.382,2.244,0.466
2026-06-17 23:44:30.684,3623410140,150684,2,-0.07397,-0.64307,0.88184,0.74,1.519,-0.481
2026-06-17 23:44:30.023,3623409479,151023,1,-0.21411,-0.93311,-0.08936,1.053,2.588,0.321
2026-06-17 23:44:30.023,3623409479,151023,2,-0.08716,-0.64258,0.88306,0.687,1.473,-0.389
2026-06-17 23:44:30.223,3623409679,151223,1,-0.21069,-0.93359,-0.08667,0.733,2.168,0.366
2026-06-17 23:44:30.223,3623409679,151223,2,-0.08545,-0.64697,0.87354,0.473,1.634,-0.374
2026-06-17 23:44:31.486,3623410942,151486,1,-0.21313,-0.92432,-0.08179,0.702,2.321,0.389
2026-06-17 23:44:31.486,3623410942,151486,2,-0.08569,-0.64209,0.87109,0.802,1.672,-0.344
2026-06-17 23:44:31.782,3623411238,151782,1,-0.21924,-0.93799,-0.08618,0.595,2.42,0.397
2026-06-17 23:44:31.782,3623411238,151782,2,-0.08081,-0.64502,0.88599,0.504,1.542,-0.458
2026-06-17 23:44:31.982,3623411438,151982,1,-0.21924,-0.94092,-0.08472,0.794,2.366,0.244
2026-06-17 23:44:31.982,3623411438,151982,2,-0.0813,-0.64209,0.88159,0.679,1.649,-0.534
2026-06-17 23:44:31.182,3623410638,152182,1,-0.21265,-0.93408,-0.09058,0.824,2.328,0.489
2026-06-17 23:44:31.182,3623410638,152182,2,-0.08667,-0.63745,0.87842,0.42,1.595,-0.55
2026-06-17 23:44:32.901,3623412357,152901,1,-0.21997,-0.94702,-0.07788,1.733,2.832,0.084
2026-06-17 23:44:32.901,3623412357,152901,2,-0.07495,-0.65991,0.86987,0.519,1.504,-0.221
2026-06-17 23:44:33.471,3623412927,153471,1,-0.20874,-0.9375,-0.06372,2.336,2.588,0.405
2026-06-17 23:44:33.471,3623412927,153471,2,-0.08105,-0.64624,0.87817,0.71,1.427,-0.435
2026-06-17 23:44:33.765,3623413221,153765,1,-0.21313,-0.93945,-0.073,1.55,2.763,0.389
2026-06-17 23:44:33.765,3623413221,153765,2,-0.07983,-0.64331,0.87842,0.519,1.55,-0.458
2026-06-17 23:44:33.204,3623412660,154204,1,-0.20776,-0.93628,-0.0791,0.489,2.42,0.275
2026-06-17 23:44:33.204,3623412660,154204,2,-0.08911,-0.64209,0.86377,0.687,1.656,-0.389
2026-06-17 23:44:34.404,3623413860,154404,1,-0.21191,-0.93457,-0.09106,0.557,2.443,0.313
2026-06-17 23:44:34.404,3623413860,154404,2,-0.09082,-0.64307,0.87646,0.725,1.504,-0.603
2026-06-17 23:44:34.604,3623414060,154604,1,-0.21826,-0.93433,-0.07813,0.55,2.321,0.359
2026-06-17 23:44:34.604,3623414060,154604,2,-0.08398,-0.64478,0.87915,0.847,1.412,-0.374
2026-06-17 23:44:34.804,3623414260,154804,1,-0.21216,-0.93628,-0.08691,0.649,2.305,0.229
2026-06-17 23:44:34.804,3623414260,154804,2,-0.0874,-0.64722,0.87671,0.527,1.542,-0.305
2026-06-17 23:44:34.004,3623413460,155004,1,-0.22192,-0.93384,-0.07568,0.427,2.511,0.252
2026-06-17 23:44:34.004,3623413460,155004,2,-0.07764,-0.64648,0.87671,0.802,1.496,0.038
2026-06-17 23:44:34.204,3623413660,155204,1,-0.20825,-0.93677,-0.09155,0.794,2.145,0.397
2026-06-17 23:44:34.204,3623413660,155204,2,-0.10303,-0.61572,0.89014,0.168,1.023,-0.855
2026-06-17 23:44:35.916,3623415372,155916,1,-0.21558,-0.93848,-0.08252,0.45,2.076,0.45
2026-06-17 23:44:35.916,3623415372,155916,2,-0.09009,-0.64258,0.88037,0.397,1.74,-0.496
2026-06-17 23:44:35.227,3623414683,156227,1,-0.21045,-0.92798,-0.08789,0.901,2.221,0.405
2026-06-17 23:44:35.227,3623414683,156227,2,-0.10059,-0.63306,0.88525,0.58,1.504,-0.664
2026-06-17 23:44:36.710,3623416166,156710,1,-0.22485,-0.93652,-0.09595,0.947,2.359,0.405
2026-06-17 23:44:36.710,3623416166,156710,2,-0.0835,-0.64526,0.87256,0.496,1.519,-0.466
2026-06-17 23:44:36.943,3623416399,156943,1,-0.21509,-0.93604,-0.09058,0.595,2.382,0.504
2026-06-17 23:44:36.943,3623416399,156943,2,-0.09009,-0.64111,0.88281,0.71,1.664,-0.473
2026-06-17 23:44:36.222,3623415678,157222,1,-0.20728,-0.94604,-0.08789,0.962,2.336,0.313
2026-06-17 23:44:36.222,3623415678,157222,2,-0.08472,-0.63696,0.87427,0.45,1.481,-0.45
2026-06-17 23:44:37.422,3623416878,157422,1,-0.20947,-0.93628,-0.09766,0.45,2.237,0.511
2026-06-17 23:44:37.422,3623416878,157422,2,-0.08228,-0.64087,0.87549,0.557,1.305,-0.45
2026-06-17 23:44:37.622,3623417078,157622,1,-0.20508,-0.93628,-0.10181,0.679,2.55,0.321
2026-06-17 23:44:37.622,3623417078,157622,2,-0.08545,-0.64551,0.88428,0.252,1.634,-0.405
2026-06-17 23:44:37.822,3623417278,157822,1,-0.17749,-0.93945,-0.08057,-1.924,1.603,0.565
2026-06-17 23:44:37.822,3623417278,157822,2,-0.10449,-0.64453,0.8811,0.756,1.527,-0.427
2026-06-17 23:44:37.198,3623416654,158198,1,-0.20825,-0.93921,-0.10645,0.817,2.099,0.351
2026-06-17 23:44:37.198,3623416654,158198,2,-0.08813,-0.64111,0.88672,0.405,1.55,-0.435
2026-06-17 23:44:38.549,3623418005,158548,1,-0.20654,-0.94043,-0.08398,-0.244,2.008,0.588
2026-06-17 23:44:38.549,3623418005,158548,2,-0.08643,-0.63403,0.89209,0.412,1.466,-0.443
2026-06-17 23:44:39.856,3623419312,159856,1,-0.20996,-0.93091,-0.0979,1.198,2.366,0.282
2026-06-17 23:44:39.856,3623419312,159856,2,-0.08911,-0.64258,0.88672,0.427,1.565,-0.45
2026-06-17 23:44:39.085,3623418541,160085,1,-0.20728,-0.93994,-0.09644,0.863,2.511,0.534
2026-06-17 23:44:39.085,3623418541,160085,2,-0.07715,-0.64844,0.88086,0.885,1.573,-0.626
2026-06-17 23:44:40.651,3623420107,160651,1,-0.21094,-0.93872,-0.08887,2.0,2.687,0.305
2026-06-17 23:44:40.651,3623420107,160651,2,-0.08594,-0.64209,0.88574,0.458,1.626,-0.42
2026-06-17 23:44:41.604,3623421060,161603,1,-0.177,-0.93359,0.06982,-6.901,0.13,0.611
2026-06-17 23:44:41.604,3623421060,161603,2,-0.08838,-0.64429,0.8689,0.672,1.771,-0.511
2026-06-17 23:44:42.143,3623421599,163143,1,-0.22363,-0.93921,-0.07935,-1.275,1.679,0.336
2026-06-17 23:44:42.143,3623421599,163143,2,-0.08936,-0.64746,0.88281,0.565,1.573,-0.405
2026-06-17 23:44:43.755,3623423211,163755,1,-0.2207,-0.93604,-0.0979,0.603,2.489,0.412
2026-06-17 23:44:43.755,3623423211,163755,2,-0.08496,-0.64404,0.87817,0.542,1.557,-0.618
2026-06-17 23:44:43.049,3623422505,164049,1,-0.20972,-0.93799,-0.08252,0.863,2.115,0.435
2026-06-17 23:44:43.049,3623422505,164049,2,-0.08154,-0.64746,0.88013,0.573,1.366,-0.725
2026-06-17 23:44:44.649,3623424105,164649,1,-0.20557,-0.93896,-0.09058,0.107,2.206,0.55
2026-06-17 23:44:44.649,3623424105,164649,2,-0.07715,-0.64624,0.88086,0.565,1.634,-0.58
2026-06-17 23:44:46.719,3623426175,166718,1,-0.2085,-0.93164,-0.09302,-0.176,2.13,0.427
2026-06-17 23:44:46.719,3623426175,166718,2,-0.08398,-0.64746,0.896,0.908,1.351,-0.427
2026-06-17 23:44:46.001,3623425457,167001,1,-0.20703,-0.93018,-0.10522,1.45,2.588,0.542
2026-06-17 23:44:46.001,3623425457,167001,2,-0.09204,-0.63599,0.87305,0.725,1.595,-0.489
2026-06-17 23:44:46.201,3623425657,167201,1,-0.20898,-0.9353,-0.09424,0.649,2.214,0.626
2026-06-17 23:44:46.201,3623425657,167201,2,-0.08252,-0.63696,0.87573,0.664,1.359,-0.527
2026-06-17 23:44:47.641,3623427097,167641,1,-0.21045,-0.93408,-0.08716,0.198,1.931,0.557
2026-06-17 23:44:47.641,3623427097,167641,2,-0.08984,-0.62671,0.88135,0.481,1.473,-0.595
2026-06-17 23:44:47.841,3623427297,167841,1,-0.21216,-0.93799,-0.09448,1.641,2.641,0.107
2026-06-17 23:44:47.841,3623427297,167841,2,-0.09082,-0.64355,0.88477,0.832,1.55,-0.466
2026-06-17 23:44:47.041,3623426497,168041,1,-0.20972,-0.93726,-0.09155,0.397,2.267,0.206
2026-06-17 23:44:47.041,3623426497,168041,2,-0.08447,-0.63452,0.88721,0.58,1.534,-0.26
2026-06-17 23:44:47.241,3623426697,168241,1,-0.21973,-0.93726,-0.10083,0.664,2.351,0.305
2026-06-17 23:44:47.241,3623426697,168241,2,-0.08691,-0.64331,0.87695,0.565,1.473,-0.634
2026-06-17 23:44:48.441,3623427897,168441,1,-0.20679,-0.93823,-0.07861,0.649,2.282,0.511
2026-06-17 23:44:48.441,3623427897,168441,2,-0.08154,-0.64185,0.87476,0.458,1.496,-0.534
2026-06-17 23:44:48.641,3623428097,168641,1,-0.21606,-0.94043,-0.09253,1.176,2.42,0.26
2026-06-17 23:44:48.641,3623428097,168641,2,-0.08203,-0.64209,0.88086,0.557,1.756,-0.397
2026-06-17 23:44:48.841,3623428297,168841,1,-0.21094,-0.92993,-0.08789,1.573,3.427,-0.069
2026-06-17 23:44:48.841,3623428297,168841,2,-0.08374,-0.64282,0.8999,1.122,1.053,0.015
2026-06-17 23:44:48.041,3623427497,169041,1,-0.2019,-0.93652,-0.09253,0.214,2.046,0.191
2026-06-17 23:44:48.041,3623427497,169041,2,-0.08154,-0.64551,0.87256,0.481,1.565,-0.618
2026-06-17 23:44:48.250,3623427706,169249,1,-0.21387,-0.9353,-0.08618,0.618,2.252,0.534
2026-06-17 23:44:48.250,3623427706,169249,2,-0.08008,-0.64771,0.87402,0.557,1.595,-0.733
2026-06-17 23:44:49.449,3623428905,169449,1,-0.21851,-0.93018,-0.09155,1.0,2.649,0.45
2026-06-17 23:44:49.449,3623428905,169449,2,-0.08838,-0.6543,0.89038,0.595,1.679,-0.748
2026-06-17 23:44:49.649,3623429105,169649,1,-0.20923,-0.93579,-0.0918,1.176,2.466,0.405
2026-06-17 23:44:49.649,3623429105,169649,2,-0.07813,-0.64819,0.88354,0.557,1.489,-0.557
2026-06-17 23:44:49.849,3623429305,169849,1,-0.22119,-0.93628,-0.10547,1.0,2.397,0.466
2026-06-17 23:44:49.849,3623429305,169849,2,-0.08423,-0.64697,0.8772,0.863,1.511,-0.534
2026-06-17 23:44:49.049,3623428505,170049,1,-0.21509,-0.94165,-0.07349,0.328,2.305,0.397
2026-06-17 23:44:49.049,3623428505,170049,2,-0.08154,-0.64355,0.88135,0.58,1.534,-0.534
2026-06-17 23:44:49.249,3623428705,170249,1,-0.22363,-0.95386,-0.10596,0.794,1.649,0.641
2026-06-17 23:44:49.249,3623428705,170249,2,-0.08521,-0.64746,0.88135,0.687,1.626,-0.351
2026-06-17 23:44:50.540,3623429996,170540,1,-0.21997,-0.93872,-0.08325,0.939,2.298,0.336
2026-06-17 23:44:50.540,3623429996,170540,2,-0.09009,-0.64624,0.87866,0.573,1.626,-0.603
2026-06-17 23:44:50.761,3623430217,170761,1,-0.20508,-0.93481,-0.10083,-0.71,1.931,0.511
2026-06-17 23:44:50.761,3623430217,170761,2,-0.08081,-0.64795,0.87793,0.595,1.557,-0.489
2026-06-17 23:44:50.155,3623429611,171154,1,-0.20459,-0.93286,-0.09229,0.534,2.313,0.389
2026-06-17 23:44:50.155,3623429611,171154,2,-0.08008,-0.64624,0.86987,0.435,1.557,-0.405
2026-06-17 23:44:51.361,3623430817,171361,1,-0.21362,-0.93701,-0.07495,0.893,2.282,0.359
2026-06-17 23:44:51.361,3623430817,171361,2,-0.08105,-0.64526,0.88525,0.611,1.519,-0.473
2026-06-17 23:44:51.604,3623431060,171604,1,-0.21362,-0.93604,-0.08203,1.214,2.557,0.496
2026-06-17 23:44:51.604,3623431060,171604,2,-0.07983,-0.64526,0.87769,0.664,1.641,-0.519
2026-06-17 23:44:51.162,3623430618,172162,1,-0.2124,-0.94043,-0.08105,-0.046,2.0,0.542
2026-06-17 23:44:51.162,3623430618,172162,2,-0.08252,-0.65405,0.87134,0.695,1.573,-0.389
2026-06-17 23:44:52.030,3623431486,173030,1,-0.21143,-0.93701,-0.08545,0.58,2.328,0.252
2026-06-17 23:44:52.030,3623431486,173030,2,-0.08716,-0.64648,0.87256,0.58,1.397,-0.565
2026-06-17 23:44:53.376,3623432832,173376,1,-0.21216,-0.93579,-0.08569,0.351,2.328,0.183
2026-06-17 23:44:53.376,3623432832,173376,2,-0.08374,-0.64502,0.87793,0.672,1.527,-0.427
2026-06-17 23:44:53.616,3623433072,173616,1,-0.21143,-0.92749,-0.08545,0.435,2.244,0.458
2026-06-17 23:44:53.616,3623433072,173616,2,-0.08374,-0.64648,0.87549,0.595,1.573,-0.359
2026-06-17 23:44:54.808,3623434264,174808,1,-0.21143,-0.93628,-0.08862,0.473,2.397,0.473
2026-06-17 23:44:54.808,3623434264,174808,2,-0.04492,-0.66577,0.90161,0.046,1.794,-0.855
2026-06-17 23:44:56.573,3623436029,176573,1,-0.20972,-0.94727,-0.08154,0.802,2.435,0.359
2026-06-17 23:44:56.573,3623436029,176573,2,-0.08545,-0.63843,0.88159,0.511,1.389,-0.542
2026-06-17 23:44:57.665,3623437121,177665,1,-0.20898,-0.93945,-0.08618,0.664,2.374,0.496
2026-06-17 23:44:57.665,3623437121,177665,2,-0.08081,-0.64136,0.88013,0.595,1.71,-0.443
2026-06-17 23:44:58.400,3623437856,178400,1,-0.20947,-0.93555,-0.07544,0.885,2.328,0.42
2026-06-17 23:44:58.400,3623437856,178400,2,-0.08716,-0.64209,0.87939,0.672,1.458,-0.435
2026-06-17 23:44:58.772,3623438228,178772,1,-0.21338,-0.92993,-0.09082,0.794,2.366,0.298
2026-06-17 23:44:58.772,3623438228,178772,2,-0.08398,-0.64502,0.87988,0.595,1.603,-0.481
2026-06-17 23:44:58.152,3623437608,179152,1,-0.2168,-0.9397,-0.10059,0.443,2.298,0.458
2026-06-17 23:44:58.152,3623437608,179152,2,-0.08545,-0.63989,0.8877,0.58,1.55,-0.527
2026-06-17 23:44:59.402,3623438858,179402,1,-0.21118,-0.93726,-0.09033,1.084,2.397,0.466
2026-06-17 23:44:59.402,3623438858,179402,2,-0.08545,-0.64746,0.87549,0.55,1.565,-0.618
2026-06-17 23:44:59.777,3623439233,179777,1,-0.21094,-0.93628,-0.08008,0.366,2.29,0.366
2026-06-17 23:44:59.777,3623439233,179777,2,-0.07983,-0.64697,0.88452,0.496,1.748,-0.374
2026-06-17 23:44:59.126,3623438582,180126,1,-0.21069,-0.93555,-0.07959,1.252,2.641,0.214
2026-06-17 23:44:59.126,3623438582,180126,2,-0.08008,-0.64258,0.88037,0.489,1.641,-0.244
2026-06-17 23:45:00.532,3623439988,180532,1,-0.20825,-0.94067,-0.09814,0.061,2.313,0.458
2026-06-17 23:45:00.532,3623439988,180532,2,-0.08081,-0.6438,0.87524,0.496,1.565,-0.542
2026-06-17 23:45:00.734,3623440190,180734,1,-0.21655,-0.9458,-0.08276,1.008,2.298,0.519
2026-06-17 23:45:00.734,3623440190,180734,2,-0.08789,-0.64526,0.8855,0.45,1.702,-0.336
2026-06-17 23:45:00.954,3623440410,180954,1,-0.21411,-0.92993,-0.0835,0.55,2.405,0.397
2026-06-17 23:45:00.954,3623440410,180954,2,-0.08789,-0.64502,0.88501,0.626,1.565,-0.496
2026-06-17 23:45:00.154,3623439610,181154,1,-0.21265,-0.94043,-0.10107,0.435,2.359,0.427
2026-06-17 23:45:00.154,3623439610,181154,2,-0.08252,-0.63916,0.87695,0.557,1.634,-0.435
2026-06-17 23:45:01.354,3623440810,181354,1,-0.21143,-0.93066,-0.08643,0.954,2.443,0.344
2026-06-17 23:45:01.354,3623440810,181354,2,-0.09253,-0.63965,0.88379,0.382,1.595,-0.382
2026-06-17 23:45:01.554,3623441010,181554,1,-0.20654,-0.94019,-0.0813,0.573,2.26,0.237
2026-06-17 23:45:01.554,3623441010,181554,2,-0.08105,-0.64307,0.87964,0.786,1.55,-0.466
2026-06-17 23:45:01.754,3623441210,181754,1,-0.20947,-0.93774,-0.08447,0.55,2.275,0.405
2026-06-17 23:45:01.754,3623441210,181754,2,-0.09253,-0.64111,0.88745,0.427,1.443,-0.458
2026-06-17 23:45:01.954,3623441410,181954,1,-0.20996,-0.93628,-0.0791,0.679,2.504,0.466
2026-06-17 23:45:01.954,3623441410,181954,2,-0.09106,-0.64648,0.87842,0.496,1.595,-0.534
2026-06-17 23:45:01.154,3623440610,182154,1,-0.21802,-0.93091,-0.08203,-0.779,1.634,0.412
2026-06-17 23:45:01.154,3623440610,182154,2,-0.07568,-0.65039,0.87573,0.641,1.504,-0.473
2026-06-17 23:45:02.354,3623441810,182354,1,-0.21606,-0.93311,-0.1001,0.939,2.58,0.237
2026-06-17 23:45:02.354,3623441810,182354,2,-0.08472,-0.64893,0.87744,0.565,1.58,-0.344
2026-06-17 23:45:02.568,3623442024,182568,1,-0.21021,-0.93628,-0.08447,-0.023,2.206,0.405
2026-06-17 23:45:02.568,3623442024,182568,2,-0.07813,-0.64478,0.87744,0.885,1.656,-0.542
2026-06-17 23:45:02.768,3623442224,182768,1,-0.22095,-0.9314,-0.08472,0.069,2.198,0.405
2026-06-17 23:45:02.768,3623442224,182768,2,-0.0896,-0.6416,0.87891,0.687,1.656,-0.55
2026-06-17 23:45:02.968,3623442424,182968,1,-0.21411,-0.93237,-0.09326,0.435,2.275,0.282
2026-06-17 23:45:02.968,3623442424,182968,2,-0.0791,-0.64185,0.87842,0.534,1.87,-0.45
2026-06-17 23:45:02.168,3623441624,183168,1,-0.21436,-0.93433,-0.1001,0.786,2.351,0.427
2026-06-17 23:45:02.168,3623441624,183168,2,-0.08032,-0.64893,0.87939,0.519,1.504,-0.542
2026-06-17 23:45:03.368,3623442824,183368,1,-0.20581,-0.93481,-0.08643,0.687,2.252,0.29
2026-06-17 23:45:03.368,3623442824,183368,2,-0.08105,-0.64038,0.8855,0.519,1.542,-0.405
2026-06-17 23:45:03.568,3623443024,183568,1,-0.21411,-0.93823,-0.0874,0.595,2.412,0.42
2026-06-17 23:45:03.568,3623443024,183568,2,-0.08081,-0.64819,0.88379,0.527,1.565,-0.466
2026-06-17 23:45:03.768,3623443224,183768,1,-0.21655,-0.93579,-0.08325,-0.099,2.412,0.389
2026-06-17 23:45:03.768,3623443224,183768,2,-0.0835,-0.64404,0.88208,0.382,1.634,-0.489
2026-06-17 23:45:03.968,3623443424,183968,1,-0.21362,-0.94238,-0.09473,0.473,2.076,0.527
2026-06-17 23:45:03.968,3623443424,183968,2,-0.08203,-0.65186,0.86743,0.763,1.481,-0.443
2026-06-17 23:45:03.168,3623442624,184168,1,-0.21191,-0.94019,-0.10425,0.405,1.87,0.42
2026-06-17 23:45:03.168,3623442624,184168,2,-0.0874,-0.64429,0.87598,0.595,1.672,-0.519
2026-06-17 23:45:04.368,3623443824,184368,1,-0.21362,-0.93701,-0.09473,0.443,2.282,0.389
2026-06-17 23:45:04.368,3623443824,184368,2,-0.08203,-0.64063,0.87964,0.679,1.626,-0.412
2026-06-17 23:45:04.568,3623444024,184568,1,-0.21265,-0.9353,-0.0874,1.038,2.443,0.321
2026-06-17 23:45:04.568,3623444024,184568,2,-0.07739,-0.64575,0.87866,0.71,1.397,-0.489
2026-06-17 23:45:04.768,3623444224,184768,1,-0.2124,-0.93433,-0.0874,0.351,2.252,0.511
2026-06-17 23:45:04.768,3623444224,184768,2,-0.09497,-0.64185,0.87573,0.511,1.489,-0.595
2026-06-17 23:45:04.968,3623444424,184968,1,-0.21924,-0.93848,-0.08765,1.336,2.344,0.405
2026-06-17 23:45:04.968,3623444424,184968,2,-0.08618,-0.64624,0.875,0.519,1.458,-0.45
2026-06-17 23:45:04.168,3623443624,185168,1,-0.20142,-0.92798,-0.08887,1.435,2.885,0.519
2026-06-17 23:45:04.168,3623443624,185168,2,-0.08276,-0.64087,0.87451,0.588,1.878,-0.565
2026-06-17 23:45:05.368,3623444824,185368,1,-0.2168,-0.93799,-0.07886,0.771,2.427,0.328
2026-06-17 23:45:05.368,3623444824,185368,2,-0.08057,-0.6355,0.87695,0.458,1.725,-0.55
2026-06-17 23:45:05.568,3623445024,185568,1,-0.21704,-0.93799,-0.0708,0.557,2.321,0.573
2026-06-17 23:45:05.568,3623445024,185568,2,-0.08765,-0.63989,0.88013,0.55,1.458,-0.458
2026-06-17 23:45:05.768,3623445224,185768,1,-0.21338,-0.93604,-0.09229,0.87,2.336,0.336
2026-06-17 23:45:05.768,3623445224,185768,2,-0.08594,-0.65088,0.87573,0.733,1.427,-0.55
2026-06-17 23:45:05.991,3623445447,185991,1,-0.21021,-0.93237,-0.08765,0.351,2.389,0.481
2026-06-17 23:45:05.991,3623445447,185991,2,-0.08179,-0.65088,0.88843,0.45,1.679,-0.221
2026-06-17 23:45:05.191,3623444647,186191,1,-0.2124,-0.93433,-0.08447,0.641,1.969,0.542
2026-06-17 23:45:05.191,3623444647,186191,2,-0.08691,-0.64307,0.88354,0.458,1.458,-0.389
2026-06-17 23:45:06.391,3623445847,186391,1,-0.21704,-0.93457,-0.07324,0.863,2.053,0.656
2026-06-17 23:45:06.391,3623445847,186391,2,-0.08252,-0.64038,0.88916,0.489,1.672,-0.336
2026-06-17 23:45:06.631,3623446087,186631,1,-0.20947,-0.94165,-0.09253,0.771,2.397,0.489
2026-06-17 23:45:06.631,3623446087,186631,2,-0.08496,-0.64648,0.88013,0.481,1.557,-0.351
2026-06-17 23:45:06.831,3623446287,186831,1,-0.21021,-0.93774,-0.08301,0.221,2.298,0.588
2026-06-17 23:45:06.831,3623446287,186831,2,-0.08301,-0.63989,0.86816,0.519,1.649,-0.45
2026-06-17 23:45:06.031,3623445487,187031,1,-0.21143,-0.93872,-0.08057,0.855,2.389,0.168
2026-06-17 23:45:06.031,3623445487,187031,2,-0.08203,-0.64575,0.87256,0.664,1.542,-0.328
2026-06-17 23:45:06.231,3623445687,187231,1,-0.21655,-0.93384,-0.09131,0.427,2.214,0.427
2026-06-17 23:45:06.231,3623445687,187231,2,-0.07959,-0.64551,0.87671,0.55,1.672,-0.504
2026-06-17 23:45:07.449,3623446905,187449,1,-0.21606,-0.93579,-0.08838,0.656,2.321,0.389
2026-06-17 23:45:07.449,3623446905,187449,2,-0.08032,-0.64233,0.87549,0.634,1.542,-0.45
2026-06-17 23:45:07.649,3623447105,187649,1,-0.21289,-0.93481,-0.09106,0.71,2.435,0.336
2026-06-17 23:45:07.649,3623447105,187649,2,-0.08643,-0.64307,0.87915,0.565,1.496,-0.573
2026-06-17 23:45:07.864,3623447320,187864,1,-0.21509,-0.93701,-0.08301,1.092,2.397,0.382
2026-06-17 23:45:07.864,3623447320,187864,2,-0.08789,-0.6377,0.88013,0.588,1.534,-0.489
2026-06-17 23:45:07.064,3623446520,188064,1,-0.21631,-0.9375,-0.09375,0.557,2.496,0.275
2026-06-17 23:45:07.064,3623446520,188064,2,-0.08838,-0.64087,0.88208,0.466,1.718,-0.656
2026-06-17 23:45:08.386,3623447842,188385,1,-0.21167,-0.93848,-0.07886,0.565,2.496,0.427
2026-06-17 23:45:08.386,3623447842,188385,2,-0.0896,-0.63672,0.87988,0.527,1.473,-0.366
2026-06-17 23:45:08.616,3623448072,188616,1,-0.21777,-0.93774,-0.08228,0.573,2.336,0.313
2026-06-17 23:45:08.616,3623448072,188616,2,-0.08252,-0.63794,0.87622,0.557,1.504,-0.55
2026-06-17 23:45:08.886,3623448342,188886,1,-0.21411,-0.93555,-0.09009,0.863,2.191,0.336
2026-06-17 23:45:08.886,3623448342,188886,2,-0.08179,-0.64404,0.88379,0.626,1.656,-0.397
2026-06-17 23:45:09.649,3623449105,189649,1,-0.21265,-0.93579,-0.0874,0.664,2.26,0.366
2026-06-17 23:45:09.649,3623449105,189649,2,-0.08813,-0.64917,0.87891,0.573,1.618,-0.634
2026-06-17 23:45:09.918,3623449374,189918,1,-0.21387,-0.93726,-0.08911,0.16,2.252,0.328
2026-06-17 23:45:09.918,3623449374,189918,2,-0.08105,-0.64429,0.88403,0.542,1.626,-0.489
2026-06-17 23:45:09.232,3623448688,190231,1,-0.21191,-0.93628,-0.09229,0.176,2.252,0.382
2026-06-17 23:45:09.232,3623448688,190231,2,-0.0874,-0.64966,0.87769,0.649,1.481,-0.374
2026-06-17 23:45:10.431,3623449887,190431,1,-0.21094,-0.9397,-0.09302,0.695,2.489,0.26
2026-06-17 23:45:10.431,3623449887,190431,2,-0.08618,-0.64404,0.87231,0.687,1.527,-0.534
2026-06-17 23:45:10.690,3623450146,190690,1,-0.21436,-0.94287,-0.09399,2.023,2.763,0.458
2026-06-17 23:45:10.690,3623450146,190690,2,-0.07593,-0.6521,0.88574,0.924,1.786,-0.427
2026-06-17 23:45:10.945,3623450401,190945,1,-0.22485,-0.93164,-0.0896,-2.153,1.588,0.55
2026-06-17 23:45:10.945,3623450401,190945,2,-0.08594,-0.64868,0.87036,0.71,1.603,-0.29
2026-06-17 23:45:10.145,3623449601,191145,1,-0.21143,-0.93384,-0.08032,1.031,2.336,0.382
2026-06-17 23:45:10.145,3623449601,191145,2,-0.08325,-0.6394,0.88159,0.511,1.557,-0.656
2026-06-17 23:45:10.345,3623449801,191345,1,-0.21606,-0.94165,-0.09448,0.336,2.275,0.42
2026-06-17 23:45:10.345,3623449801,191345,2,-0.07983,-0.64258,0.87988,0.496,1.58,-0.389
2026-06-17 23:45:11.548,3623451004,191547,1,-0.21045,-0.93701,-0.08447,0.321,2.092,0.458
2026-06-17 23:45:11.548,3623451004,191547,2,-0.07935,-0.6416,0.87305,0.511,1.756,-0.557
2026-06-17 23:45:11.747,3623451203,191747,1,-0.2146,-0.93799,-0.09717,0.534,2.237,0.252
2026-06-17 23:45:11.747,3623451203,191747,2,-0.08374,-0.65454,0.875,0.634,1.588,-0.58
2026-06-17 23:45:11.968,3623451424,191968,1,-0.20825,-0.93164,-0.08447,1.023,2.618,0.374
2026-06-17 23:45:11.968,3623451424,191968,2,-0.08179,-0.63477,0.8833,0.779,1.427,-0.496
2026-06-17 23:45:11.294,3623450750,192294,1,-0.20972,-0.93335,-0.08765,0.702,2.435,0.42
2026-06-17 23:45:11.294,3623450750,192294,2,-0.07715,-0.65259,0.86987,0.595,1.786,-0.397
2026-06-17 23:45:12.494,3623451950,192494,1,-0.21484,-0.94312,-0.09497,1.496,2.611,0.374
2026-06-17 23:45:12.494,3623451950,192494,2,-0.08276,-0.64526,0.87988,0.649,1.588,-0.611
2026-06-17 23:45:12.738,3623452194,192738,1,-0.2124,-0.93115,-0.08276,1.046,2.527,0.214
2026-06-17 23:45:12.738,3623452194,192738,2,-0.09131,-0.64209,0.87573,0.718,1.374,-0.565
2026-06-17 23:45:12.944,3623452400,192944,1,-0.21387,-0.93188,-0.08447,0.931,2.183,0.405
2026-06-17 23:45:12.944,3623452400,192944,2,-0.09009,-0.64258,0.87524,0.557,1.634,-0.496
2026-06-17 23:45:12.177,3623451633,193177,1,-0.2063,-0.94434,-0.09033,0.603,2.092,0.351
2026-06-17 23:45:12.177,3623451633,193177,2,-0.08984,-0.63672,0.88623,0.672,1.466,-0.504
2026-06-17 23:45:13.379,3623452835,193379,1,-0.21753,-0.93701,-0.08643,0.702,2.206,0.336
2026-06-17 23:45:13.379,3623452835,193379,2,-0.08545,-0.64551,0.87427,0.626,1.496,-0.55
2026-06-17 23:45:13.611,3623453067,193611,1,-0.20898,-0.9375,-0.08398,0.489,2.519,0.397
2026-06-17 23:45:13.611,3623453067,193611,2,-0.08813,-0.64648,0.88232,0.771,1.573,-0.344
2026-06-17 23:45:13.838,3623453294,193838,1,-0.21313,-0.92969,-0.08521,0.626,2.427,0.458
2026-06-17 23:45:13.838,3623453294,193838,2,-0.07568,-0.63916,0.88696,0.649,1.092,-0.489
2026-06-17 23:45:13.038,3623452494,194038,1,-0.20923,-0.93555,-0.09009,1.634,2.45,0.427
2026-06-17 23:45:13.038,3623452494,194038,2,-0.08008,-0.64258,0.8772,0.626,1.443,-0.534
2026-06-17 23:45:14.351,3623453807,194351,1,-0.21167,-0.93823,-0.08618,0.443,2.321,0.382
2026-06-17 23:45:14.351,3623453807,194351,2,-0.08301,-0.64429,0.87744,0.626,1.588,-0.389
2026-06-17 23:45:14.556,3623454012,194556,1,-0.21631,-0.93823,-0.08838,0.878,2.305,0.29
