datetime,epoch_ms,ts_millis,mpu_id,ax,ay,az,gx,gy,gz
2026-06-26T14:27:28.276689,,,,,,,,,
2026-06-26T14:27:46.294814,,,,,,,,,
2026-06-26T14:30:44.065865,,,,,,,,,
2026-06-26 14:30:44.381,72816541,6381,1,0.28174,-0.84375,-0.34839,1.847,2.565,1.023
2026-06-26 14:30:44.381,72816541,6381,2,0.32324,-0.97876,-0.07446,-1.275,2.374,-1.267
2026-06-26 14:30:44.581,72816741,6581,1,0.28125,-0.87036,-0.33545,0.198,2.275,0.221
2026-06-26 14:30:44.581,72816741,6581,2,0.30078,-0.98486,-0.09351,2.298,1.267,-0.237
2026-06-26 14:30:44.781,72816941,6781,1,0.26611,-0.89063,-0.36182,3.618,3.656,0.084
2026-06-26 14:30:44.781,72816941,6781,2,0.31348,-0.94922,-0.13672,8.664,1.282,7.679
2026-06-26 14:30:44.981,72817141,6981,1,0.24292,-0.77441,-0.31177,7.191,3.626,5.344
2026-06-26 14:30:44.981,72817141,6981,2,0.36304,-1.07275,-0.03589,23.924,10.771,3.237
2026-06-26 14:30:45.181,72817341,7181,1,0.22559,-0.97266,-0.37769,4.84,4.954,0.733
2026-06-26 14:30:45.181,72817341,7181,2,0.26416,-1.0105,-0.08862,5.137,0.87,-1.603
2026-06-26 14:30:45.381,72817541,7381,1,0.28223,-0.85132,-0.32886,0.847,2.962,0.45
2026-06-26 14:30:45.381,72817541,7381,2,0.31689,-0.99194,-0.07837,3.847,5.977,-0.84
2026-06-26 14:30:45.581,72817741,7581,1,0.26953,-0.87305,-0.33008,-3.412,0.901,-2.015
2026-06-26 14:30:45.581,72817741,7581,2,0.31958,-0.979,-0.06909,3.878,6.412,1.122
2026-06-26 14:30:45.781,72817941,7781,1,0.28687,-0.87427,-0.34155,0.038,1.679,0.435
2026-06-26 14:30:45.781,72817941,7781,2,0.31714,-0.96948,-0.08887,-1.366,-1.779,-2.595
2026-06-26 14:30:45.981,72818141,7981,1,0.28271,-0.86499,-0.33643,0.397,2.557,0.008
2026-06-26 14:30:45.981,72818141,7981,2,0.31909,-0.96704,-0.10059,1.557,2.58,0.328
2026-06-26 14:30:46.181,72818341,8181,1,0.27905,-0.86743,-0.3645,2.443,3.557,1.328
2026-06-26 14:30:46.181,72818341,8181,2,0.3208,-0.98218,-0.08911,2.115,3.634,0.244
2026-06-26 14:30:46.381,72818541,8381,1,0.28833,-0.86719,-0.35767,0.924,2.802,0.435
2026-06-26 14:30:46.381,72818541,8381,2,0.32495,-0.96338,-0.10107,0.214,1.046,-0.481
2026-06-26 14:30:46.581,72818741,8581,1,0.27979,-0.87378,-0.36646,1.527,2.679,0.817
2026-06-26 14:30:46.581,72818741,8581,2,0.31445,-0.97217,-0.10083,0.481,0.641,-1.237
2026-06-26 14:30:46.781,72818941,8781,1,0.28003,-0.86572,-0.3645,0.053,1.992,-0.015
2026-06-26 14:30:46.781,72818941,8781,2,0.32178,-0.96436,-0.11353,0.397,1.069,-0.198
2026-06-26 14:30:46.981,72819141,8981,1,0.28589,-0.86743,-0.36133,0.565,2.427,0.504
2026-06-26 14:30:46.981,72819141,8981,2,0.32129,-0.96997,-0.09888,0.718,1.473,-0.534
2026-06-26 14:30:47.181,72819341,9181,1,0.28491,-0.8606,-0.35303,-0.29,1.962,0.015
2026-06-26 14:30:47.181,72819341,9181,2,0.31348,-0.97363,-0.0874,1.305,1.725,-0.748
2026-06-26 14:30:47.381,72819541,9381,1,0.28076,-0.86499,-0.35571,0.542,2.305,0.435
2026-06-26 14:30:47.381,72819541,9381,2,0.31616,-0.97217,-0.0918,0.382,0.519,-1.084
2026-06-26 14:30:47.589,72819749,9589,1,0.27759,-0.86304,-0.35962,0.084,2.183,0.221
2026-06-26 14:30:47.589,72819749,9589,2,0.32056,-0.97778,-0.09058,0.626,1.786,-0.435
2026-06-26 14:30:47.789,72819949,9789,1,0.28125,-0.86206,-0.35938,0.359,2.267,0.092
2026-06-26 14:30:47.789,72819949,9789,2,0.3186,-0.97388,-0.0979,1.366,1.977,-0.641
2026-06-26 14:30:47.989,72820149,9989,1,0.28662,-0.87085,-0.35767,0.053,2.084,-0.031
2026-06-26 14:30:47.989,72820149,9989,2,0.31787,-0.97388,-0.09033,0.771,1.527,-0.397
2026-06-26 14:30:48.189,72820349,10189,1,0.28345,-0.8623,-0.35254,0.031,2.328,-0.069
2026-06-26 14:30:48.189,72820349,10189,2,0.32056,-0.97388,-0.08765,0.565,0.687,-0.954
2026-06-26 14:30:48.389,72820549,10389,1,0.28369,-0.86816,-0.36816,0.588,2.061,0.511
2026-06-26 14:30:48.389,72820549,10389,2,0.31982,-0.96216,-0.11279,0.954,1.794,0.13
2026-06-26 14:30:48.589,72820749,10589,1,0.27881,-0.86304,-0.35059,0.435,2.374,0.137
2026-06-26 14:30:48.589,72820749,10589,2,0.31567,-0.96973,-0.09424,-0.023,0.489,-0.718
2026-06-26 14:30:48.789,72820949,10789,1,0.28418,-0.86987,-0.36304,0.458,2.168,0.328
2026-06-26 14:30:48.789,72820949,10789,2,0.31787,-0.96875,-0.10474,0.038,0.504,-0.725
2026-06-26 14:30:48.989,72821149,10989,1,0.28491,-0.86987,-0.36108,0.679,2.42,0.305
2026-06-26 14:30:48.989,72821149,10989,2,0.31836,-0.97314,-0.09082,1.069,1.679,-0.878
2026-06-26 14:30:49.189,72821349,11189,1,0.28076,-0.86084,-0.35645,0.42,2.366,0.359
2026-06-26 14:30:49.189,72821349,11189,2,0.31885,-0.97095,-0.10425,0.336,1.084,-0.641
2026-06-26 14:30:49.389,72821549,11389,1,0.27563,-0.85889,-0.35962,0.069,2.298,0.13
2026-06-26 14:30:49.389,72821549,11389,2,0.32422,-0.96777,-0.09326,0.718,1.359,-0.992
2026-06-26 14:30:49.589,72821749,11589,1,0.28442,-0.86719,-0.35498,0.412,2.198,0.344
2026-06-26 14:30:49.589,72821749,11589,2,0.3208,-0.97632,-0.09473,0.595,1.29,-0.313
2026-06-26 14:30:49.789,72821949,11789,1,0.28198,-0.87158,-0.35913,0.099,2.191,0.107
2026-06-26 14:30:49.789,72821949,11789,2,0.31934,-0.96655,-0.10596,0.71,1.427,-0.229
2026-06-26 14:30:49.989,72822149,11989,1,0.28247,-0.8689,-0.35498,0.542,2.542,0.145
2026-06-26 14:30:49.989,72822149,11989,2,0.31836,-0.97876,-0.09546,1.275,2.084,-0.313
2026-06-26 14:30:50.189,72822349,12189,1,0.28149,-0.8623,-0.36035,0.031,2.26,0.099
2026-06-26 14:30:50.189,72822349,12189,2,0.31738,-0.9751,-0.0979,1.0,1.824,-0.359
2026-06-26 14:30:50.389,72822549,12389,1,0.28003,-0.86475,-0.35181,1.015,2.496,0.397
2026-06-26 14:30:50.389,72822549,12389,2,0.31958,-0.97485,-0.10669,1.176,2.229,-0.099
2026-06-26 14:30:50.589,72822749,12589,1,0.28174,-0.86353,-0.35425,0.435,2.374,0.328
2026-06-26 14:30:50.589,72822749,12589,2,0.3291,-0.97021,-0.09595,0.55,1.321,-0.656
2026-06-26 14:30:50.789,72822949,12789,1,0.28223,-0.86646,-0.35791,0.931,2.542,0.496
2026-06-26 14:30:50.789,72822949,12789,2,0.3125,-0.97339,-0.09277,1.008,1.855,-0.015
2026-06-26 14:30:50.989,72823149,12989,1,0.28687,-0.85986,-0.36401,0.824,2.496,0.511
2026-06-26 14:30:50.989,72823149,12989,2,0.31934,-0.96826,-0.09326,1.107,1.359,0.496
2026-06-26 14:30:51.189,72823349,13189,1,0.27881,-0.86206,-0.34985,0.099,2.145,
2026-06-26 14:30:51.189,72823349,13189,2,0.31445,-0.97705,-0.08179,2.412,3.573,0.183
2026-06-26 14:30:51.389,72823549,13389,1,0.28394,-0.86621,-0.35962,-0.023,1.649,0.26
2026-06-26 14:30:51.389,72823549,13389,2,0.31519,-0.96753,-0.09595,0.595,1.359,-0.092
2026-06-26 14:30:51.589,72823749,13589,1,0.28125,-0.86646,-0.35254,-0.153,2.137,-0.26
2026-06-26 14:30:51.589,72823749,13589,2,0.31812,-0.97827,-0.0769,1.626,2.252,-1.252
2026-06-26 14:30:51.789,72823949,13789,1,0.28003,-0.86987,-0.35425,-0.252,1.763,0.13
2026-06-26 14:30:51.789,72823949,13789,2,0.32031,-0.97607,-0.08789,0.366,0.954,-0.221
2026-06-26 14:30:51.989,72824149,13989,1,0.27954,-0.86865,-0.35303,-0.214,2.198,-0.305
2026-06-26 14:30:51.989,72824149,13989,2,0.31641,-0.96387,-0.11035,0.542,0.924,-0.641
2026-06-26 14:30:52.215,72824375,14215,1,0.27661,-0.86377,-0.36328,0.13,2.359,-0.069
2026-06-26 14:30:52.215,72824375,14215,2,0.31567,-0.96777,-0.09253,0.527,0.885,-1.0
2026-06-26 14:30:52.415,72824575,14415,1,0.28955,-0.87012,-0.37109,0.176,2.084,0.168
2026-06-26 14:30:52.415,72824575,14415,2,0.31543,-0.97412,-0.09766,0.45,0.794,-0.611
2026-06-26 14:30:52.615,72824775,14615,1,0.28198,-0.86597,-0.35522,0.061,2.092,0.038
2026-06-26 14:30:52.615,72824775,14615,2,0.31738,-0.97144,-0.07617,1.237,1.992,-0.824
2026-06-26 14:30:52.815,72824975,14815,1,0.28564,-0.86719,-0.35693,0.122,2.198,0.267
2026-06-26 14:30:52.815,72824975,14815,2,0.32007,-0.97656,-0.09717,1.16,1.641,-0.527
2026-06-26 14:30:52.015,72824175,15015,1,0.28638,-0.86841,-0.35474,0.115,2.099,-0.061
2026-06-26 14:30:52.015,72824175,15015,2,0.31934,-0.97534,-0.08228,1.099,1.885,-0.786
2026-06-26 14:30:53.215,72825375,15215,1,0.27539,-0.86377,-0.35864,0.58,2.298,0.443
2026-06-26 14:30:53.215,72825375,15215,2,0.31519,-0.97461,-0.10254,1.046,1.748,-0.382
2026-06-26 14:30:53.415,72825575,15415,1,0.28125,-0.86548,-0.35474,0.198,2.183,0.26
2026-06-26 14:30:53.415,72825575,15415,2,0.31641,-0.97534,-0.08789,0.878,1.473,-0.595
2026-06-26 14:30:53.615,72825775,15615,1,0.28564,-0.86743,-0.36304,0.939,2.427,0.664
2026-06-26 14:30:53.615,72825775,15615,2,0.31421,-0.97681,-0.09961,1.718,2.328,-0.031
2026-06-26 14:30:53.815,72825975,15815,1,0.28296,-0.85986,-0.35742,-1.748,1.145,-1.099
2026-06-26 14:30:53.815,72825975,15815,2,0.31934,-0.97852,-0.08813,-0.183,-0.412,-1.962
2026-06-26 14:30:53.015,72825175,16015,1,0.28589,-0.87085,-0.35425,0.634,2.359,0.389
2026-06-26 14:30:53.015,72825175,16015,2,0.32251,-0.96484,-0.10059,1.771,2.779,-0.42
2026-06-26 14:30:54.215,72826375,16215,1,0.27759,-0.86621,-0.33594,-0.359,1.992,-0.328
2026-06-26 14:30:54.215,72826375,16215,2,0.31421,-0.98047,-0.08032,1.389,2.305,-0.58
2026-06-26 14:30:54.415,72826575,16415,1,0.27539,-0.86499,-0.3623,1.298,2.695,0.84
2026-06-26 14:30:54.415,72826575,16415,2,0.31494,-0.97412,-0.09155,1.214,1.511,-1.542
2026-06-26 14:30:54.615,72826775,16615,1,0.28198,-0.86865,-0.35205,0.466,2.397,0.229
2026-06-26 14:30:54.615,72826775,16615,2,0.31836,-0.9707,-0.09253,1.069,2.305,-0.176
2026-06-26 14:30:54.815,72826975,16815,1,0.28271,-0.8689,-0.34644,1.771,2.924,0.817
2026-06-26 14:30:54.815,72826975,16815,2,0.31396,-0.98291,-0.08081,1.412,2.534,-0.397
2026-06-26 14:30:54.015,72826175,17015,1,0.28491,-0.86523,-0.35425,0.626,2.611,0.412
2026-06-26 14:30:54.015,72826175,17015,2,0.31885,-0.97241,-0.09814,0.58,1.405,
2026-06-26 14:30:55.215,72827375,17215,1,0.29004,-0.86597,-0.36133,1.443,2.87,0.84
2026-06-26 14:30:55.215,72827375,17215,2,0.33154,-0.97632,-0.09741,1.069,2.16,-0.229
2026-06-26 14:30:55.415,72827575,17415,1,0.28223,-0.86987,-0.35278,0.595,2.328,0.16
2026-06-26 14:30:55.415,72827575,17415,2,0.323,-0.9668,-0.09595,0.221,0.924,-0.45
2026-06-26 14:30:55.615,72827775,17615,1,0.28369,-0.86035,-0.35254,0.863,2.664,0.634
2026-06-26 14:30:55.615,72827775,17615,2,0.32056,-0.9729,-0.09375,0.985,1.847,-0.321
2026-06-26 14:30:55.815,72827975,17815,1,0.28345,-0.86377,-0.35938,0.115,2.061,-0.023
2026-06-26 14:30:55.815,72827975,17815,2,0.31104,-0.96997,-0.09351,0.489,0.908,-0.679
2026-06-26 14:30:55.015,72827175,18015,1,0.28296,-0.86377,-0.3606,0.489,2.267,0.206
2026-06-26 14:30:55.015,72827175,18015,2,0.31982,-0.97485,-0.09839,1.038,1.672,-0.679
2026-06-26 14:30:56.215,72828375,18215,1,0.27417,-0.86694,-0.34717,-0.214,1.962,-0.015
2026-06-26 14:30:56.215,72828375,18215,2,0.32031,-0.97705,-0.08862,0.382,0.718,-0.885
2026-06-26 14:30:56.415,72828575,18415,1,0.28149,-0.86523,-0.36377,0.489,2.443,0.351
2026-06-26 14:30:56.415,72828575,18415,2,0.32031,-0.96973,-0.10596,0.191,1.092,-0.351
2026-06-26 14:30:56.615,72828775,18615,1,0.28027,-0.86426,-0.35547,0.137,2.076,0.015
2026-06-26 14:30:56.615,72828775,18615,2,0.32104,-0.97266,-0.09521,0.618,1.359,-0.389
2026-06-26 14:30:56.815,72828975,18815,1,0.27905,-0.86938,-0.35132,0.511,2.542,0.244
2026-06-26 14:30:56.815,72828975,18815,2,0.29883,-0.98315,-0.08716,3.389,1.191,-0.053
2026-06-26 14:30:56.015,72828175,19015,1,0.27563,-0.86743,-0.35913,-1.137,1.664,-0.718
2026-06-26 14:30:56.015,72828175,19015,2,0.32129,-0.96313,-0.1167,-0.481,-1.176,-1.206
2026-06-26 14:30:57.215,72829375,19215,1,0.27881,-0.86719,-0.35059,0.206,1.863,0.145
2026-06-26 14:30:57.215,72829375,19215,2,0.31274,-0.97998,-0.09155,1.053,2.008,-0.382
2026-06-26 14:30:57.415,72829575,19415,1,0.27979,-0.86426,-0.34717,0.382,2.389,0.099
2026-06-26 14:30:57.415,72829575,19415,2,0.37354,-0.95068,-0.17358,-9.305,-1.229,0.061
2026-06-26 14:30:57.615,72829775,19615,1,0.28442,-0.86255,-0.39917,-3.603,0.237,-1.176
2026-06-26 14:30:57.615,72829775,19615,2,0.31299,-0.96973,-0.11523,-2.756,-5.718,-2.618
2026-06-26 14:30:57.815,72829975,19815,1,0.28198,-0.8645,-0.34131,-0.321,2.824,-0.55
2026-06-26 14:30:57.815,72829975,19815,2,0.31665,-0.98584,-0.04834,2.214,2.603,-2.756
2026-06-26 14:30:57.015,72829175,20015,1,0.28394,-0.87012,-0.3584,-1.893,0.878,-0.527
2026-06-26 14:30:57.015,72829175,20015,2,0.31519,-0.98438,-0.07617,-0.282,0.145,0.16
2026-06-26 14:30:58.215,72830375,20215,1,0.28418,-0.86426,-0.33643,0.832,2.496,0.115
2026-06-26 14:30:58.215,72830375,20215,2,0.32471,-0.9729,-0.10889,2.916,4.107,1.519
2026-06-26 14:30:58.428,72830588,20428,1,0.28735,-0.85693,-0.33911,5.412,5.038,2.878
2026-06-26 14:30:58.428,72830588,20428,2,0.31372,-0.99561,-0.07642,3.542,3.748,-0.756
2026-06-26 14:30:58.628,72830788,20628,1,0.29272,-0.86157,-0.35913,-1.489,1.237,-0.435
2026-06-26 14:30:58.628,72830788,20628,2,0.3186,-0.98071,-0.06494,0.55,0.695,-1.763
2026-06-26 14:30:58.934,72831094,20934,1,0.2915,-0.87085,-0.34131,1.076,2.931,0.183
2026-06-26 14:30:58.934,72831094,20934,2,0.31909,-0.9729,-0.09058,1.015,0.992,-0.817
2026-06-26 14:30:59.368,72831528,21367,1,0.28467,-0.86743,-0.35352,0.634,2.115,0.366
2026-06-26 14:30:59.368,72831528,21367,2,0.31958,-0.97461,-0.10107,1.137,2.336,0.267
2026-06-26 14:30:59.591,72831751,21591,1,0.28491,-0.86646,-0.35913,-0.435,1.817,-0.435
2026-06-26 14:30:59.591,72831751,21591,2,0.3208,-0.97876,-0.0874,0.496,0.443,-0.977
2026-06-26 14:30:59.791,72831951,21791,1,0.28027,-0.85767,-0.36841,-0.382,2.015,-0.122
2026-06-26 14:30:59.791,72831951,21791,2,0.31812,-0.97168,-0.09424,-0.145,-0.328,-1.298
2026-06-26 14:30:59.991,72832151,21991,1,0.2854,-0.85889,-0.36035,0.237,2.382,0.084
2026-06-26 14:30:59.991,72832151,21991,2,0.31982,-0.96362,-0.09326,0.672,2.0,0.374
2026-06-26 14:31:00.191,72832351,22191,1,0.28003,-0.86182,-0.36304,1.16,2.718,0.84
2026-06-26 14:31:00.191,72832351,22191,2,0.31567,-0.96851,-0.10669,1.588,2.748,0.74
2026-06-26 14:31:00.391,72832551,22391,1,0.26904,-0.85034,-0.33716,5.008,5.481,0.832
2026-06-26 14:31:00.391,72832551,22391,2,0.302,-1.01733,-0.01978,2.198,-0.382,-6.321
2026-06-26 14:31:00.591,72832751,22591,1,0.27563,-0.87891,-0.34839,9.565,6.504,4.115
2026-06-26 14:31:00.591,72832751,22591,2,0.33936,-0.93701,-0.15356,1.458,6.626,3.809
2026-06-26 14:31:00.791,72832951,22791,1,0.28442,-0.86206,-0.38501,3.611,2.733,1.977
2026-06-26 14:31:00.791,72832951,22791,2,0.31006,-0.99048,-0.10889,4.725,6.87,1.588
2026-06-26 14:31:00.026,72832186,23026,1,0.29761,-0.8562,-0.39087,1.328,2.748,1.435
2026-06-26 14:31:00.026,72832186,23026,2,0.32666,-0.95117,-0.11694,-2.244,-2.656,-0.427
2026-06-26 14:31:01.226,72833386,23226,1,0.27612,-0.8623,-0.34473,-0.282,2.473,-0.649
2026-06-26 14:31:01.226,72833386,23226,2,0.32202,-0.96973,-0.08057,-1.344,-1.916,-1.901
2026-06-26 14:31:01.592,72833752,23592,1,0.29175,-0.86865,-0.36914,0.489,1.924,0.702
2026-06-26 14:31:01.592,72833752,23592,2,0.31152,-0.96411,-0.11865,1.435,2.527,0.542
2026-06-26 14:31:01.796,72833956,23796,1,0.27856,-0.86328,-0.34961,-0.038,2.443,-0.305
2026-06-26 14:31:01.796,72833956,23796,2,0.3396,-1.02466,0.02783,3.519,6.87,3.084
2026-06-26 14:31:01.996,72834156,23996,1,0.28589,-0.87231,-0.38428,-4.977,-5.992,-0.832
2026-06-26 14:31:01.996,72834156,23996,2,0.30884,-0.97876,-0.10229,4.618,1.87,-1.008
2026-06-26 14:31:02.196,72834356,24196,1,0.28931,-0.8667,-0.36572,1.992,2.557,1.504
2026-06-26 14:31:02.196,72834356,24196,2,0.30298,-0.91187,-0.16797,-10.832,-13.298,-2.855
2026-06-26 14:31:02.415,72834575,24415,1,0.27539,-0.85913,-0.32275,-12.504,-5.702,-5.763
2026-06-26 14:31:02.415,72834575,24415,2,0.2832,-1.0022,-0.21484,-8.969,-9.718,7.794
2026-06-26 14:31:02.616,72834776,24616,1,0.30786,-0.87646,-0.43481,23.71,19.435,15.58
2026-06-26 14:31:02.616,72834776,24616,2,0.30103,-1.05737,0.01904,21.939,31.405,5.466
2026-06-26T14:32:22.182402,,,,,,,,,
2026-06-26T14:32:38.762935,,,,,,,,,
2026-06-26 14:32:39.494,72931654,5494,1,0.63916,0.16162,0.84937,0.977,2.038,0.412
2026-06-26 14:32:39.494,72931654,5494,2,0.97388,-0.20142,-0.28101,0.244,1.756,-0.397
2026-06-26 14:32:39.791,72931951,5790,1,0.64551,0.16162,0.85645,0.656,2.58,0.542
2026-06-26 14:32:39.791,72931951,5790,2,0.97754,-0.19531,-0.28394,0.809,1.336,-0.817
2026-06-26 14:32:39.044,72931204,6044,1,0.64502,0.15845,0.86011,0.458,2.092,1.061
2026-06-26 14:32:39.044,72931204,6044,2,0.96533,-0.2002,-0.28442,1.534,1.588,-0.733
2026-06-26 14:32:39.244,72931404,6244,1,0.63745,0.15479,0.86108,0.71,2.901,0.771
2026-06-26 14:32:39.244,72931404,6244,2,0.97461,-0.19824,-0.28687,0.344,1.565,-1.191
2026-06-26 14:32:40.540,72932700,6540,1,0.64404,0.14844,0.85767,0.916,2.176,1.122
2026-06-26 14:32:40.540,72932700,6540,2,0.96606,-0.19946,-0.29443,1.412,0.649,-0.947
2026-06-26 14:32:40.740,72932900,6740,1,0.64868,0.15601,0.84692,0.916,2.038,0.954
2026-06-26 14:32:40.740,72932900,6740,2,0.97485,-0.20166,-0.29077,0.74,1.565,-1.008
2026-06-26 14:32:40.000,72932160,7000,1,0.64697,0.15796,0.83618,0.496,2.954,0.534
2026-06-26 14:32:40.000,72932160,7000,2,0.97339,-0.19531,-0.28979,1.0,1.718,-0.351
2026-06-26 14:32:40.200,72932360,7200,1,0.64575,0.15625,0.84985,0.275,2.977,0.473
2026-06-26 14:32:40.200,72932360,7200,2,0.96777,-0.20459,-0.28931,-0.908,1.084,0.641
2026-06-26 14:32:40.400,72932560,7400,1,0.6438,0.15552,0.84839,0.519,2.481,0.267
2026-06-26 14:32:40.400,72932560,7400,2,0.9751,-0.1958,-0.29224,0.481,1.473,-0.466
2026-06-26 14:32:41.687,72933847,7687,1,0.63745,0.1543,0.84399,0.359,2.534,-0.122
2026-06-26 14:32:41.687,72933847,7687,2,0.97241,-0.19238,-0.28223,0.489,1.992,-0.58
2026-06-26 14:32:41.906,72934066,7906,1,0.64014,0.16431,0.86206,0.511,3.198,0.038
2026-06-26 14:32:41.906,72934066,7906,2,0.97119,-0.20093,-0.27026,0.939,2.305,-0.489
2026-06-26 14:32:41.106,72933266,8106,1,0.63452,0.1582,0.85205,0.466,2.832,0.573
2026-06-26 14:32:41.106,72933266,8106,2,0.97412,-0.2019,-0.28003,2.153,2.076,-0.397
2026-06-26 14:32:41.306,72933466,8306,1,0.63477,0.15381,0.85498,0.641,2.939,1.511
2026-06-26 14:32:41.306,72933466,8306,2,0.96875,-0.20679,-0.28564,0.015,-0.023,-0.26
2026-06-26 14:32:42.521,72934681,8521,1,0.63696,0.14844,0.84814,0.733,1.344,2.061
2026-06-26 14:32:42.521,72934681,8521,2,0.97192,-0.20972,-0.28027,0.397,0.153,-0.244
2026-06-26 14:32:42.767,72934927,8767,1,0.66724,0.15308,0.85303,-0.344,2.962,0.076
2026-06-26 14:32:42.767,72934927,8767,2,0.99292,-0.22974,-0.16235,-27.695,-20.42,1.641
2026-06-26 14:32:42.014,72934174,9014,1,0.64233,0.10522,0.8562,0.282,-3.107,-5.336
2026-06-26 14:32:42.014,72934174,9014,2,0.99194,-0.25195,-0.20874,10.176,5.115,-1.031
2026-06-26 14:32:42.214,72934374,9214,1,0.64795,0.10229,0.85498,-0.023,3.328,0.931
2026-06-26 14:32:42.214,72934374,9214,2,0.99219,-0.25122,-0.21729,1.786,1.756,-0.069
2026-06-26 14:32:43.520,72935680,9520,1,0.6416,0.10132,0.85498,0.023,2.901,1.214
2026-06-26 14:32:43.520,72935680,9520,2,0.98828,-0.25732,-0.21216,1.198,2.0,-0.481
2026-06-26 14:32:43.720,72935880,9720,1,0.63599,0.09448,0.85107,0.351,2.504,1.435
2026-06-26 14:32:43.720,72935880,9720,2,0.98999,-0.25342,-0.20874,0.618,2.55,-0.328
2026-06-26 14:32:43.955,72936115,9955,1,0.64502,0.09229,0.85107,-0.145,2.664,1.198
2026-06-26 14:32:43.955,72936115,9955,2,0.98657,-0.25269,-0.20459,0.359,3.542,-0.779
2026-06-26 14:32:43.231,72935391,10231,1,0.63892,0.07886,0.86621,0.885,2.55,0.015
2026-06-26 14:32:43.231,72935391,10231,2,0.99097,-0.25854,-0.19702,1.115,2.847,-0.649
2026-06-26 14:32:44.505,72936665,10505,1,0.63403,0.09888,0.86157,1.985,2.443,0.817
2026-06-26 14:32:44.505,72936665,10505,2,0.99268,-0.24585,-0.19409,2.023,2.718,-1.603
2026-06-26 14:32:44.812,72936972,10812,1,0.6377,0.10059,0.85693,-0.16,2.664,0.008
2026-06-26 14:32:44.812,72936972,10812,2,0.99243,-0.24487,-0.18408,0.053,2.481,0.038
2026-06-26 14:32:44.029,72936189,11029,1,0.62451,0.09399,0.85889,0.45,2.397,-0.038
2026-06-26 14:32:44.029,72936189,11029,2,0.99634,-0.25317,-0.18604,0.908,2.702,-0.092
2026-06-26 14:32:44.289,72936449,11288,1,0.63599,0.08789,0.87183,0.031,3.824,0.847
2026-06-26 14:32:44.289,72936449,11288,2,1.00073,-0.25317,-0.17578,2.237,3.244,0.351
2026-06-26 14:32:44.488,72936648,11488,1,0.62451,0.07617,0.88306,-0.137,4.992,-0.84
2026-06-26 14:32:44.488,72936648,11488,2,0.9917,-0.25977,-0.17041,0.122,2.565,-1.076
2026-06-26 14:32:45.688,72937848,11688,1,0.62109,0.0874,0.87573,0.153,3.023,-2.015
2026-06-26 14:32:45.688,72937848,11688,2,0.99023,-0.26123,-0.17383,-0.275,2.061,-0.992
2026-06-26 14:32:45.996,72938156,11996,1,0.61572,0.09741,0.88965,-1.916,2.038,-4.519
2026-06-26 14:32:45.996,72938156,11996,2,0.9939,-0.26489,-0.19043,-13.382,3.542,6.405
2026-06-26 14:32:45.242,72937402,12242,1,0.61743,0.09497,0.86963,-9.389,1.885,-14.595
2026-06-26 14:32:45.242,72937402,12242,2,0.98267,-0.26465,-0.20166,-2.618,9.427,-2.832
2026-06-26 14:32:46.628,72938788,12628,1,0.65161,0.15015,0.85498,2.282,9.389,0.519
2026-06-26 14:32:46.628,72938788,12628,2,0.96948,-0.21484,-0.18994,5.29,12.87,-2.282
2026-06-26 14:32:46.949,72939109,12949,1,0.64478,0.15674,0.83716,-1.893,11.931,5.237
2026-06-26T14:32:55.002403,,,,,,,,,
2026-06-26 14:32:46.949,72939109,12949,2,1.00024,-0.2937,-0.06982,1.0,1.176,-3.656
2026-06-26 14:32:57.743,72949903,23743,1,0.5874,0.07544,0.89819,2.718,0.42,0.038
2026-06-26 14:32:57.743,72949903,23743,2,1.02661,-0.29224,-0.08081,3.336,-0.626,-2.458
2026-06-26 14:33:00.186,72952346,27186,1,0.59497,0.10352,0.89478,-0.26,1.786,0.885
2026-06-26 14:33:00.186,72952346,27186,2,0.80005,-0.35767,0.68774,6.137,5.534,2.573
2026-06-26 14:33:00.186,72952346,27186,2,0.80005,-0.35767,0.68774,6.137,5.534,2.573
2026-06-26 14:33:11.551,72963711,37551,1,-0.74609,0.03223,0.67358,-2.122,0.374,6.931
2026-06-26 14:33:11.551,72963711,37551,2,0.25439,-0.18994,1.08105,6.817,-3.504,14.206
2026-06-26 14:33:11.751,72963911,37751,1,-0.75171,0.12695,0.63086,-6.992,-26.382,12.679
2026-06-26 14:33:11.751,72963911,37751,1,-0.75171,0.12695,0.63086,-6.992,-26.382,12.679
2026-06-26 14:33:11.751,72963911,37751,2,0.20996,-0.03906,1.13403,-1.359,4.893,1.664
2026-06-26 14:33:16.298,72968458,43298,1,-0.80322,0.03955,0.63696,-1.45,-0.634,0.809
2026-06-26 14:33:16.298,72968458,43298,2,0.26172,-0.04785,1.06201,-1.71,-3.466,6.557
2026-06-26 14:33:17.498,72969658,43498,1,-0.73413,-0.01538,0.61255,-4.863,2.779,2.198
2026-06-26 14:33:17.498,72969658,43498,2,0.22827,-0.02979,1.06055,-2.107,1.305,4.931
2026-06-26 14:33:17.698,72969858,43698,1,-0.83521,-0.11426,0.67896,-14.405,13.718,-12.183
2026-06-26 14:33:17.698,72969858,43698,2,0.22192,-0.08765,1.08447,-0.695,-7.527,0.786
2026-06-26 14:33:17.898,72970058,43898,1,-0.72461,-0.06201,0.65234,-0.756,-11.16,3.305
2026-06-26 14:33:17.898,72970058,43898,2,0.28442,-0.10449,1.11377,-2.176,-6.618,-4.153
2026-06-26 14:33:17.252,72969412,44252,1,-0.72827,-0.04175,0.68823,14.183,-13.916,1.542
2026-06-26 14:33:17.252,72969412,44252,1,-0.72827,-0.04175,0.68823,14.183,-13.916,1.542
2026-06-26 14:33:17.252,72969412,44252,2,0.72485,-0.12646,1.0769,-19.183,107.893,-10.794
2026-06-26 14:33:23.544,72975704,49544,1,-0.88965,-0.01563,0.8689,4.359,48.29,-4.489
2026-06-26 14:33:23.544,72975704,49544,2,0.37598,-0.07715,1.10376,13.618,30.878,-2.031
2026-06-26 14:33:23.800,72975960,49799,1,-0.77661,-0.01245,0.66602,-3.527,18.313,1.878
2026-06-26 14:33:23.800,72975960,49799,2,0.30469,-0.05762,1.1001,-2.634,12.397,3.786
2026-06-26 14:33:23.999,72976159,49999,1,-0.78833,-0.02661,0.65308,3.031,6.511,0.275
2026-06-26 14:33:23.999,72976159,49999,2,0.28564,-0.07397,1.08984,2.099,13.55,2.84
2026-06-26 14:33:23.199,72975359,50199,1,-0.77319,-0.02588,0.63062,1.74,7.198,-2.359
2026-06-26 14:33:23.199,72975359,50199,2,0.22534,-0.05981,1.13306,1.435,10.053,-1.275
2026-06-26 14:33:23.399,72975559,50399,1,-0.83594,0.01196,0.61597,-3.534,0.603,-2.588
2026-06-26 14:33:23.399,72975559,50399,2,0.22925,-0.07983,1.08179,-4.496,-2.42,-0.634
2026-06-26 14:33:24.599,72976759,50599,1,-0.75879,-0.0144,0.61694,0.802,5.794,3.046
2026-06-26 14:33:24.599,72976759,50599,2,0.2251,-0.06421,1.08936,0.305,2.901,0.893
2026-06-26 14:33:24.799,72976959,50799,1,-0.83057,-0.04028,0.62622,5.695,-6.015,3.481
2026-06-26 14:33:24.799,72976959,50799,2,0.20459,-0.09277,1.12354,-10.679,-8.916,-3.237
2026-06-26 14:33:24.999,72977159,50999,1,-0.71582,0.06885,0.66406,5.626,-7.389,15.71
2026-06-26 14:33:24.999,72977159,50999,2,0.32397,-0.10571,1.10498,-3.55,-7.115,2.298
2026-06-26 14:33:24.199,72976359,51199,1,-0.68823,0.06592,0.70386,5.908,-5.771,3.267
2026-06-26 14:33:24.199,72976359,51199,2,0.37476,-0.1106,1.05737,-2.031,-5.496,-1.008
2026-06-26 14:33:25.501,72977661,51501,1,-0.67236,0.06079,0.70776,-0.588,-2.244,-0.023
2026-06-26 14:33:25.501,72977661,51501,2,0.39185,-0.11816,1.05347,0.977,0.313,-1.061
2026-06-26 14:33:25.701,72977861,51701,1,-0.68823,0.06079,0.72314,1.962,4.046,-0.328
2026-06-26 14:33:25.701,72977861,51701,2,0.36597,-0.11157,1.0542,-0.344,2.473,-1.664
2026-06-26 14:33:25.901,72978061,51901,1,-0.68555,0.07593,0.73267,0.389,2.893,-0.817
2026-06-26 14:33:25.901,72978061,51901,2,0.36792,-0.11816,1.05371,0.183,4.038,-0.435
2026-06-26 14:33:25.101,72977261,52101,1,-0.68774,0.05347,0.72559,-0.511,5.626,0.16
2026-06-26 14:33:25.101,72977261,52101,2,0.34302,-0.11914,1.05322,1.809,4.908,0.656
2026-06-26 14:33:25.301,72977461,52301,1,-0.68066,0.04077,0.69287,1.74,2.252,3.336
2026-06-26 14:33:25.301,72977461,52301,2,0.32178,-0.10718,1.00146,-0.328,8.885,-0.511
2026-06-26 14:33:26.501,72978661,52501,1,-0.68896,0.03955,0.7124,-21.672,1.153,-6.565
2026-06-26 14:33:26.501,72978661,52501,2,0.302,-0.1189,1.05078,-2.443,2.366,7.588
2026-06-26 14:33:26.704,72978864,52704,1,-0.75708,0.0835,0.70068,-13.214,11.443,12.298
2026-06-26 14:33:26.704,72978864,52704,2,0.25464,-0.06592,0.93799,-41.382,-3.855,-25.504
2026-06-26 14:33:26.010,72978170,53010,1,-0.65674,-0.15796,0.65674,-9.298,-71.55,-23.748
2026-06-26 14:33:26.010,72978170,53010,2,0.35547,-0.14941,0.8855,-41.229,-87.198,1.74
2026-06-26 14:33:26.272,72978432,53272,1,-0.16138,-0.05591,0.98608,21.733,-125.626,-9.26
2026-06-26 14:33:26.272,72978432,53272,2,0.83081,-0.18652,0.68799,10.267,-93.008,-0.863
2026-06-26 14:33:26.472,72978632,53472,1,0.31616,-0.08472,1.23779,-12.634,-81.595,-15.031
2026-06-26 14:33:26.472,72978632,53472,2,1.4834,-0.42944,0.68945,-8.947,-22.771,1.603
2026-06-26 14:33:27.672,72979832,53672,1,0.24634,-0.08716,0.89307,15.359,8.672,13.031
2026-06-26 14:33:27.672,72979832,53672,2,0.7207,-0.27124,0.34448,-0.305,-7.137,-5.015
2026-06-26 14:33:27.882,72980042,53881,1,0.24731,-0.05225,1.09229,-9.137,-17.817,-10.275
2026-06-26 14:33:27.882,72980042,53881,2,1.10718,-0.37646,0.49902,-6.076,-1.198,-3.916
2026-06-26 14:33:27.198,72979358,54198,1,0.68872,-0.05762,1.33984,2.588,0.71,-23.183
2026-06-26 14:33:27.198,72979358,54198,2,0.88818,-0.35522,0.34497,23.405,10.496,10.565
2026-06-26 14:33:28.547,72980707,54547,1,0.07178,-0.0144,1.11621,-3.237,-24.198,-5.58
2026-06-26 14:33:28.547,72980707,54547,2,0.96631,-0.3606,0.3374,6.008,-40.649,1.71
2026-06-26 14:33:28.749,72980909,54749,1,0.24878,0.01196,0.94482,14.305,-29.313,12.939
2026-06-26 14:33:28.749,72980909,54749,2,0.8916,-0.31567,0.13062,-22.366,-54.511,3.176
2026-06-26 14:33:28.213,72980373,55213,1,0.56177,0.04956,0.88623,-34.351,4.168,-56.58
2026-06-26 14:33:28.213,72980373,55213,2,1.08765,-0.42432,-0.04858,-58.954,-20.534,-0.267
2026-06-26 14:33:28.436,72980596,55436,1,0.58325,0.05786,0.88257,11.511,-9.328,17.802
2026-06-26 14:33:28.436,72980596,55436,2,1.00269,-0.36011,-0.10107,-12.038,-0.74,-1.405
2026-06-26 14:33:29.636,72981796,55636,1,0.58594,0.04053,0.90112,-9.786,3.252,-14.221
2026-06-26 14:33:29.636,72981796,55636,2,0.96777,-0.37769,-0.07422,-24.145,10.985,-5.756
2026-06-26 14:33:29.836,72981996,55836,1,0.70508,-0.01221,0.9231,13.359,3.397,18.962
2026-06-26 14:33:29.836,72981996,55836,2,0.8916,-0.32153,-0.13184,22.595,-21.023,2.344
2026-06-26 14:33:29.036,72981196,56036,1,0.59888,0.09473,0.90112,4.511,3.519,18.389
2026-06-26 14:33:29.036,72981196,56036,2,1.00244,-0.29077,-0.09106,-0.237,4.771,-2.221
2026-06-26 14:33:29.302,72981462,56302,1,0.57007,0.0835,0.92505,-2.344,0.008,-3.718
2026-06-26 14:33:29.302,72981462,56302,2,1.01709,-0.3335,-0.10449,0.053,1.611,-1.771
2026-06-26 14:33:30.647,72982807,56647,1,0.62964,0.08105,0.89893,-0.099,3.603,-1.779
2026-06-26 14:33:30.647,72982807,56647,2,0.98657,-0.34155,-0.09717,-0.298,5.695,0.252
2026-06-26 14:33:30.848,72983008,56848,1,0.56152,0.05786,0.90283,-1.435,6.16,-2.985
2026-06-26 14:33:30.848,72983008,56848,2,0.9873,-0.35474,-0.07813,2.733,4.779,0.504
2026-06-26 14:33:30.048,72982208,57048,1,0.57324,0.05762,0.89722,-0.29,5.794,-0.527
2026-06-26 14:33:30.048,72982208,57048,2,0.98193,-0.36182,-0.10645,1.183,4.405,-1.565
2026-06-26 14:33:30.248,72982408,57248,1,0.56323,0.06567,0.91821,1.412,3.718,2.031
2026-06-26 14:33:30.248,72982408,57248,2,0.98999,-0.3479,-0.08203,3.313,0.611,-1.244
2026-06-26 14:33:30.448,72982608,57448,1,0.55396,0.06445,0.90625,0.595,3.313,1.427
2026-06-26 14:33:30.448,72982608,57448,2,0.99146,-0.34546,-0.07935,3.679,0.802,-0.237
2026-06-26 14:33:31.648,72983808,57648,1,0.55542,0.05322,0.9231,1.71,3.244,1.458
2026-06-26 14:33:31.648,72983808,57648,2,0.99609,-0.34473,-0.07788,0.87,-0.412,-0.405
2026-06-26 14:33:31.848,72984008,57848,1,0.5481,0.05908,0.92017,-1.26,2.305,-1.42
2026-06-26 14:33:31.848,72984008,57848,2,0.99048,-0.36011,-0.08716,2.107,4.015,-0.168
2026-06-26 14:33:31.048,72983208,58048,1,0.55591,0.05371,0.9126,-0.122,4.954,-0.626
2026-06-26 14:33:31.048,72983208,58048,2,1.00366,-0.34692,-0.0979,0.702,5.466,-0.924
2026-06-26 14:33:31.263,72983423,58263,1,0.5791,0.0625,0.91992,-0.206,8.351,-0.313
2026-06-26 14:33:31.263,72983423,58263,2,1.01196,-0.35278,-0.05542,6.29,9.847,-2.557
2026-06-26 14:33:31.485,72983645,58485,1,0.61597,0.06104,0.89478,-2.115,27.656,0.84
2026-06-26 14:33:31.485,72983645,58485,2,1.05762,-0.31299,0.07764,21.977,53.458,-7.298
2026-06-26 14:33:32.685,72984845,58685,1,0.48364,0.0603,0.79492,-11.901,88.863,0.672
2026-06-26 14:33:32.685,72984845,58685,2,0.93018,-0.24854,0.48389,41.389,92.733,-10.107
2026-06-26 14:33:32.971,72985131,58971,1,-0.26758,0.02051,0.92554,-1.832,108.374,9.733
2026-06-26 14:33:32.971,72985131,58971,2,0.70923,-0.14526,0.70728,21.74,89.718,-11.908
2026-06-26 14:33:32.180,72984340,59180,1,-0.60327,-0.07788,0.896,-9.336,78.16,-3.496
2026-06-26 14:33:32.180,72984340,59180,2,0.50146,-0.11914,0.98877,9.847,71.397,-4.298
2026-06-26 14:33:32.380,72984540,59380,1,-0.77417,-0.05762,0.84033,-4.71,39.229,-0.45
2026-06-26 14:33:32.380,72984540,59380,2,0.34692,-0.11694,1.08594,1.473,21.405,0.221
2026-06-26 14:33:33.623,72985783,59622,1,-0.75122,-0.02905,0.66235,2.405,13.076,3.634
2026-06-26 14:33:33.623,72985783,59622,2,0.28149,-0.13013,1.08789,-1.87,11.534,0.748
2026-06-26 14:33:33.873,72986033,59873,1,-0.76245,-0.01978,0.65332,-0.313,6.832,2.382
2026-06-26 14:33:33.873,72986033,59873,2,0.30078,-0.12256,1.07373,-0.611,9.031,-0.176
2026-06-26 14:33:33.073,72985233,60073,1,-0.77393,-0.03076,0.64673,-0.55,12.504,2.344
2026-06-26 14:33:33.073,72985233,60073,2,0.2373,-0.13013,1.07007,-6.664,12.443,-0.748
2026-06-26 14:33:33.273,72985433,60273,1,-0.84814,-0.04956,0.70874,-1.504,11.42,-3.687
2026-06-26 14:33:33.273,72985433,60273,2,0.22705,-0.11206,1.10059,0.595,-1.298,-0.427
2026-06-26 14:33:33.473,72985633,60473,1,-0.79175,-0.06934,0.59644,-0.977,0.076,-7.534
2026-06-26 14:33:33.473,72985633,60473,2,0.24756,-0.16406,1.07568,1.748,-5.321,-1.427
2026-06-26 14:33:34.673,72986833,60673,1,-0.76733,-0.03247,0.62866,0.87,-3.076,1.16
2026-06-26 14:33:34.673,72986833,60673,2,0.26025,-0.14478,1.08081,0.954,-3.901,1.542
2026-06-26 14:33:34.873,72987033,60873,1,-0.73657,-0.04126,0.6394,0.588,-0.069,1.412
2026-06-26 14:33:34.873,72987033,60873,2,0.27832,-0.12109,1.06958,0.649,1.015,-0.221
2026-06-26 14:33:34.073,72986233,61073,1,-0.75,-0.03857,0.65649,2.489,0.023,1.13
2026-06-26 14:33:34.073,72986233,61073,2,0.2749,-0.12769,1.07324,-0.901,0.679,-1.695
2026-06-26 14:33:34.383,72986543,61383,1,-0.73047,-0.01392,0.65942,0.695,2.115,1.42
2026-06-26 14:33:34.383,72986543,61383,2,0.28027,-0.14673,1.07251,0.626,4.069,-0.115
2026-06-26 14:33:35.648,72987808,61647,1,-0.7605,-0.0188,0.66846,2.206,3.481,1.939
2026-06-26 14:33:35.648,72987808,61647,2,0.27002,-0.13306,1.09229,0.198,1.511,-0.061
2026-06-26 14:33:35.847,72988007,61847,1,-0.75781,-0.02246,0.65527,-0.435,0.786,0.977
2026-06-26 14:33:35.847,72988007,61847,2,0.23486,-0.15991,1.08398,0.893,0.084,0.511
2026-06-26 14:33:35.047,72987207,62047,1,-0.72729,0.00806,0.68335,1.305,3.855,4.435
2026-06-26 14:33:35.047,72987207,62047,2,0.26367,-0.15601,1.06689,-2.901,2.511,1.069
2026-06-26 14:33:35.341,72987501,62340,1,-0.71997,-0.00464,0.66138,-1.435,-0.359,-0.389
2026-06-26 14:33:35.341,72987501,62340,2,0.26245,-0.10132,1.08203,0.267,-11.031,3.687
2026-06-26 14:33:36.540,72988700,62540,1,-0.7561,0.01147,0.77808,-0.771,-9.58,4.076
2026-06-26 14:33:36.540,72988700,62540,2,0.29419,-0.13062,1.17139,-4.282,-41.527,-0.542
2026-06-26 14:33:36.791,72988951,62791,1,-0.91309,-0.04614,0.83472,7.076,-69.168,2.221
2026-06-26 14:33:36.791,72988951,62791,2,0.49634,-0.21826,0.89868,-44.061,-96.145,-1.458
2026-06-26 14:33:36.991,72989151,62991,1,-0.14868,0.03638,0.79858,-5.031,-79.649,3.435
2026-06-26 14:33:36.991,72989151,62991,2,0.74805,-0.10522,0.61621,27.13,-52.87,13.878
2026-06-26 14:33:36.254,72988414,63254,1,0.03564,0.12012,1.20874,-17.458,-57.832,-31.336
2026-06-26 14:33:36.254,72988414,63254,2,0.86646,-0.32642,0.58154,-16.115,-27.763,-2.603
2026-06-26 14:33:36.454,72988614,63454,1,-0.14697,-0.02222,1.13599,-2.168,-72.427,-18.786
2026-06-26 14:33:36.454,72988614,63454,2,0.78296,-0.2688,0.32788,4.099,-58.962,2.687
2026-06-26 14:33:37.654,72989814,63654,1,0.66626,0.0061,0.89087,9.29,-74.45,-28.863
2026-06-26 14:33:37.654,72989814,63654,2,0.97388,-0.40771,0.05835,-16.878,-17.267,-12.359
2026-06-26 14:33:37.854,72990014,63854,1,0.46826,0.12646,0.95703,-11.893,-14.427,-17.244
2026-06-26 14:33:37.854,72990014,63854,2,1.0105,-0.3833,0.09766,2.298,4.229,5.153
2026-06-26 14:33:37.054,72989214,64054,1,0.46021,0.03687,0.95093,-4.702,13.084,-3.916
2026-06-26 14:33:37.054,72989214,64054,2,1.01563,-0.42383,0.0481,-4.626,23.305,-3.626
2026-06-26 14:33:37.254,72989414,64254,1,0.2373,-0.00269,0.70435,4.847,49.382,26.099
2026-06-26 14:33:37.254,72989414,64254,2,0.91309,-0.302,0.1958,16.832,34.023,4.55
2026-06-26 14:33:37.454,72989614,64454,1,0.1438,0.06714,0.78711,-2.466,67.237,-3.237
2026-06-26 14:33:37.454,72989614,64454,2,0.81445,-0.2749,0.34619,30.435,38.42,-0.573
2026-06-26 14:33:38.654,72990814,64654,1,-0.0188,0.07178,1.14282,0.71,-6.855,5.389
2026-06-26 14:33:38.654,72990814,64654,2,0.21313,-0.11865,1.01563,7.672,22.183,-3.809
2026-06-26 14:33:41.614,72993774,67614,1,-0.66455,0.07373,0.82471,1.771,-30.443,0.359
2026-06-26 14:33:41.614,72993774,67614,2,0.13794,0.0415,0.9668,-38.008,-9.084,-19.931
2026-06-26 14:33:41.884,72994044,67884,1,-0.89185,-0.07715,0.65771,10.718,-17.603,27.29
2026-06-26 14:33:41.884,72994044,67884,2,0.1875,-0.25586,1.03491,-11.466,6.489,-13.313
2026-06-26 14:33:41.215,72993375,68215,1,-0.75806,-0.10425,0.73804,5.099,23.13,11.718
2026-06-26 14:33:41.215,72993375,68215,2,0.42847,-0.06641,1.0459,5.718,-7.008,11.0
2026-06-26 14:33:41.467,72993627,68467,1,-0.75781,-0.07153,0.5957,-6.725,-9.115,-16.863
2026-06-26 14:33:41.467,72993627,68467,2,0.34644,-0.1333,1.09985,8.008,-2.634,2.267
2026-06-26 14:33:42.692,72994852,68692,1,-0.75391,0.03027,0.71997,3.916,-11.489,6.153
2026-06-26 14:33:42.692,72994852,68692,2,0.32788,-0.08569,1.09009,-5.237,-19.206,-0.672
2026-06-26 14:33:42.945,72995105,68945,1,-0.88403,0.05933,0.89014,10.87,-40.634,6.725
2026-06-26 14:33:42.945,72995105,68945,2,0.54419,-0.10376,0.9668,-21.534,-89.901,-2.618
2026-06-26 14:33:42.145,72994305,69145,1,-0.50757,0.07202,0.87231,12.046,-118.756,7.855
2026-06-26 14:33:42.145,72994305,69145,2,0.83325,-0.19214,0.60181,-53.992,-126.992,2.046
2026-06-26 14:33:42.345,72994505,69345,1,0.07153,0.11841,0.83374,5.237,-116.0,-0.359
2026-06-26 14:33:42.345,72994505,69345,2,0.97778,-0.28564,0.29712,-40.725,-93.26,-7.038
2026-06-26 14:33:43.545,72995705,69545,1,0.39673,0.14526,0.86719,4.221,-68.489,4.328
2026-06-26 14:33:43.545,72995705,69545,2,1.02588,-0.29443,-0.08618,-18.107,-41.382,2.053
2026-06-26 14:33:43.872,72996032,69872,1,0.64575,0.06421,0.84399,-4.282,-14.053,-4.695
2026-06-26 14:33:43.872,72996032,69872,2,1.00659,-0.3418,-0.20068,1.885,-6.031,-6.733
2026-06-26 14:33:43.072,72995232,70072,1,0.59399,0.08984,0.87671,0.099,-8.832,13.023
2026-06-26 14:33:43.072,72995232,70072,2,0.95947,-0.29053,-0.16479,5.176,-12.107,0.58
2026-06-26 14:33:43.272,72995432,70272,1,0.65283,0.06934,0.86304,0.863,-2.099,8.45
2026-06-26 14:33:43.272,72995432,70272,2,0.99341,-0.30762,-0.18213,2.282,-2.748,0.504
2026-06-26 14:33:43.472,72995632,70472,1,0.6499,0.06323,0.85815,-3.939,3.344,-9.046
2026-06-26 14:33:43.472,72995632,70472,2,0.9856,-0.32251,-0.20337,-9.038,2.031,3.122
2026-06-26 14:33:44.672,72996832,70672,1,0.6272,0.0835,0.86548,0.489,4.13,-3.847
2026-06-26 14:33:44.672,72996832,70672,2,0.96851,-0.30225,-0.22534,-1.847,7.947,-2.153
2026-06-26 14:33:44.872,72997032,70872,1,0.61694,0.0918,0.87354,2.031,2.527,-1.542
2026-06-26 14:33:44.872,72997032,70872,2,0.99365,-0.30273,-0.18945,-2.786,1.679,-1.443
2026-06-26 14:33:44.072,72996232,71072,1,0.64136,0.09521,0.87158,-1.885,6.435,-1.092
2026-06-26 14:33:44.072,72996232,71072,2,0.98096,-0.29712,-0.19971,-0.84,7.237,1.137
2026-06-26 14:33:44.272,72996432,71272,1,0.60376,0.07861,0.88452,-3.145,5.435,-1.16
2026-06-26 14:33:44.272,72996432,71272,2,0.98877,-0.30127,-0.17578,-3.122,6.916,0.733
2026-06-26 14:33:44.472,72996632,71472,1,0.59082,0.06641,0.89429,-1.26,6.473,-0.237
2026-06-26 14:33:44.472,72996632,71472,2,0.98413,-0.31006,-0.15894,3.176,4.679,-1.55
2026-06-26 14:33:45.672,72997832,71672,1,0.57813,0.07764,0.90454,0.26,6.756,-1.748
2026-06-26 14:33:45.672,72997832,71672,2,0.97681,-0.31934,-0.1748,7.71,-4.618,1.71
2026-06-26 14:33:45.872,72998032,71872,1,0.57031,0.06348,0.91309,1.557,2.366,2.618
2026-06-26 14:33:45.872,72998032,71872,2,0.99463,-0.32031,-0.15942,-0.84,-0.74,-2.511
2026-06-26 14:33:45.072,72997232,72072,1,0.56885,0.08447,0.90771,1.977,1.771,0.366
2026-06-26 14:33:45.072,72997232,72072,2,0.98462,-0.31714,-0.15039,2.244,-0.221,-2.26
2026-06-26 14:33:45.272,72997432,72272,1,0.58032,0.07031,0.91895,1.29,2.664,1.55
2026-06-26 14:33:45.272,72997432,72272,2,0.98975,-0.31006,-0.16382,3.038,3.183,-1.725
2026-06-26 14:33:45.472,72997632,72472,1,0.57129,0.08447,0.9126,1.397,3.779,2.046
2026-06-26 14:33:45.472,72997632,72472,2,0.98926,-0.31006,-0.15356,1.435,2.351,-0.878
2026-06-26 14:33:46.672,72998832,72672,1,0.56714,0.08569,0.90503,-1.481,3.29,1.985
2026-06-26 14:33:46.672,72998832,72672,2,1.021,-0.31567,-0.15308,11.015,8.702,-0.634
2026-06-26 14:33:46.173,72998333,73173,1,0.50439,0.06592,0.927,-2.893,10.71,3.473
2026-06-26 14:33:46.173,72998333,73173,2,1.02173,-0.29712,-0.12598,4.0,4.786,-0.191
2026-06-26 14:33:46.411,72998571,73411,1,0.48657,0.05396,0.94824,-2.466,9.794,-2.489
2026-06-26 14:33:46.411,72998571,73411,2,1.00513,-0.31787,-0.06714,2.405,7.099,4.511
2026-06-26 14:33:47.644,72999804,73644,1,0.46509,0.01367,0.95068,-9.634,13.649,-6.847
2026-06-26 14:33:47.644,72999804,73644,1,0.46509,0.01367,0.95068,-9.634,13.649,-6.847
2026-06-26 14:33:47.644,72999804,73644,2,0.98999,-0.31958,-0.19385,5.55,-3.504,3.244
2026-06-26 14:33:47.644,72999804,73644,2,0.98999,-0.31958,-0.19385,5.55,-3.504,3.244
2026-06-26 14:34:07.006,73019166,94006,1,0.63232,0.0564,0.86963,0.198,2.924,0.481
2026-06-26 14:34:07.006,73019166,94006,1,0.63232,0.0564,0.86963,0.198,2.924,0.481
2026-06-26 14:34:07.006,73019166,94006,2,0.9624,-0.3811,-0.18921,-7.641,8.939,9.221
2026-06-26 14:34:07.006,73019166,94006,2,0.9624,-0.3811,-0.18921,-7.641,8.939,9.221
2026-06-26 14:34:22.197,73034357,109197,1,0.5957,0.10303,0.89014,-0.053,3.504,1.153
2026-06-26 14:34:22.197,73034357,109197,2,0.97461,-0.3208,-0.19385,5.298,1.038,-0.832
2026-06-26 14:34:22.397,73034557,109397,1,0.60327,0.09961,0.8894,3.748,2.008,3.076
2026-06-26 14:34:22.397,73034557,109397,2,0.96997,-0.3186,-0.19751,5.176,0.145,-1.679
2026-06-26 14:34:23.597,73035757,109597,1,0.60107,0.10864,0.88037,2.725,1.878,3.382
2026-06-26 14:34:23.597,73035757,109597,2,0.97388,-0.3147,-0.1958,5.893,-0.664,-3.557
2026-06-26 14:34:23.868,73036028,109868,1,0.59839,0.10278,0.88135,2.794,0.229,2.954
2026-06-26 14:34:23.868,73036028,109868,2,0.98047,-0.31763,-0.20313,2.885,-2.672,-3.053
2026-06-26 14:34:23.068,73035228,110068,1,0.61133,0.10205,0.87891,3.947,-0.267,1.626
2026-06-26 14:34:23.068,73035228,110068,2,0.97485,-0.30835,-0.22681,1.725,-3.076,-2.641
2026-06-26 14:34:23.268,73035428,110268,1,0.63184,0.12012,0.86133,1.366,-1.275,-0.351
2026-06-26 14:34:23.268,73035428,110268,2,0.97046,-0.29883,-0.23682,1.366,-1.511,-1.191
2026-06-26 14:34:23.468,73035628,110468,1,0.62915,0.11743,0.86621,1.557,1.649,-0.603
2026-06-26 14:34:23.468,73035628,110468,2,0.9729,-0.30298,-0.22534,3.634,0.366,-0.534
2026-06-26 14:34:24.668,73036828,110668,1,0.62524,0.11426,0.86572,1.389,3.244,0.573
2026-06-26 14:34:24.668,73036828,110668,2,0.97192,-0.3103,-0.20703,0.718,2.832,-0.985
2026-06-26 14:34:24.200,73036360,111200,1,0.61206,0.12085,0.87939,0.397,3.878,-1.023
2026-06-26 14:34:24.200,73036360,111200,2,0.97559,-0.30737,-0.20923,-1.443,2.557,0.771
2026-06-26 14:34:25.527,73037687,111527,1,0.60327,0.11646,0.88086,-1.282,2.397,-0.924
2026-06-26 14:34:25.527,73037687,111527,2,0.97729,-0.30127,-0.19604,0.214,2.244,-0.954
2026-06-26 14:34:25.015,73037175,112015,1,0.59668,0.11548,0.88428,-0.107,2.557,0.015
2026-06-26 14:34:25.015,73037175,112015,2,0.98242,-0.30786,-0.17725,-1.206,1.885,-0.069
2026-06-26 14:34:25.223,73037383,112223,1,0.61353,0.11621,0.8833,-0.733,3.985,-0.397
2026-06-26 14:34:25.223,73037383,112223,2,0.99756,-0.29663,-0.18799,-1.687,6.344,-1.779
2026-06-26 14:34:25.423,73037583,112423,1,0.63892,0.13892,0.8728,-0.145,16.763,-4.489
2026-06-26 14:34:25.423,73037583,112423,2,1.08667,-0.17944,-0.15088,-5.496,47.626,-2.557
2026-06-26 14:34:26.682,73038842,112682,1,0.50244,0.2168,0.89868,-21.458,48.763,-34.344
2026-06-26 14:34:26.682,73038842,112682,2,0.95874,-0.24829,0.08765,-34.511,99.649,3.878
2026-06-26 14:34:26.984,73039144,112984,1,0.0708,-0.19385,0.83496,-46.221,92.435,-77.298
2026-06-26 14:34:26.984,73039144,112984,2,0.64185,-0.20557,0.76074,40.718,91.122,-0.359
2026-06-26 14:34:26.464,73038624,113464,1,-0.77051,-0.07397,0.90674,12.122,58.992,14.16
2026-06-26 14:34:26.464,73038624,113464,2,0.50073,-0.18945,1.0686,15.26,37.542,-3.687
2026-06-26 14:34:27.664,73039824,113664,1,-0.74316,-0.05981,0.85059,-2.305,11.756,-1.061
2026-06-26 14:34:27.664,73039824,113664,2,0.45752,-0.20874,1.03638,-3.13,-2.786,1.145
2026-06-26 14:34:27.864,73040024,113864,1,-0.64917,-0.09277,0.77856,0.687,0.13,1.191
2026-06-26 14:34:27.864,73040024,113864,2,0.46094,-0.19531,1.00366,-4.527,-3.718,-2.87
2026-06-26 14:34:27.132,73039292,114132,1,-0.63721,-0.07495,0.75269,2.435,3.038,3.015
2026-06-26 14:34:27.132,73039292,114132,2,0.45337,-0.21045,1.00952,0.969,1.405,-0.13
2026-06-26 14:34:27.456,73039616,114456,1,-0.64063,-0.08569,0.7644,0.221,0.916,0.489
2026-06-26 14:34:27.456,73039616,114456,2,0.46338,-0.2124,1.00195,3.298,2.924,-0.389
2026-06-26 14:34:28.826,73040986,114826,1,-0.74609,-0.07373,0.8269,3.977,-8.031,1.359
2026-06-26 14:34:28.826,73040986,114826,2,0.46484,-0.21069,1.06958,-5.183,-28.824,0.992
2026-06-26 14:34:28.035,73040195,115035,1,-0.76343,-0.07617,0.9314,6.344,-61.656,2.74
2026-06-26 14:34:28.035,73040195,115035,2,0.60327,-0.25342,0.93823,-23.702,-79.336,2.718
2026-06-26 14:34:28.426,73040586,115426,1,0.22437,0.04443,0.75439,10.695,-107.779,6.351
2026-06-26 14:34:28.426,73040586,115426,2,1.01611,-0.43164,0.00879,-10.16,-53.847,1.664
2026-06-26 14:34:29.739,73041899,115739,1,0.60156,0.06665,0.87256,6.985,-38.29,-1.122
2026-06-26 14:34:29.739,73041899,115739,2,0.99878,-0.43652,-0.1438,-13.214,-11.695,-1.718
2026-06-26 14:34:29.010,73041170,116010,1,0.68628,0.05566,0.83887,4.443,-4.015,4.397
2026-06-26 14:34:29.010,73041170,116010,2,0.9519,-0.3877,-0.17871,-0.229,-1.389,-3.252
2026-06-26 14:34:29.222,73041382,116221,1,0.67285,0.06689,0.84277,1.824,2.298,-0.115
2026-06-26 14:34:29.222,73041382,116221,2,0.9585,-0.38208,-0.17944,2.397,1.931,-2.107
2026-06-26 14:34:29.421,73041581,116421,1,0.63403,0.07104,0.85742,1.664,6.16,-0.298
2026-06-26 14:34:29.421,73041581,116421,2,0.94824,-0.37598,-0.17725,3.229,-1.954,-0.481
2026-06-26 14:34:30.621,73042781,116621,1,0.64502,0.07983,0.85742,3.954,1.931,3.267
2026-06-26 14:34:30.621,73042781,116621,2,0.96143,-0.36914,-0.18213,0.878,0.977,-3.229
2026-06-26 14:34:30.837,73042997,116837,1,0.64307,0.08569,0.84937,0.237,2.527,0.901
2026-06-26 14:34:30.837,73042997,116837,2,0.95874,-0.37085,-0.19458,2.427,-0.389,-1.412
2026-06-26 14:34:30.037,73042197,117037,1,0.65723,0.08765,0.86084,1.702,3.626,0.389
2026-06-26 14:34:30.037,73042197,117037,2,0.96045,-0.35913,-0.18335,5.679,3.496,-1.565
2026-06-26 14:34:30.237,73042397,117237,1,0.63452,0.09229,0.84814,1.351,4.122,0.366
2026-06-26 14:34:30.237,73042397,117237,2,0.9624,-0.36719,-0.16992,2.13,2.305,0.603
2026-06-26 14:34:31.534,73043694,117534,1,0.62744,0.08252,0.86938,-0.015,2.855,1.084
2026-06-26 14:34:31.534,73043694,117534,2,0.96191,-0.38037,-0.16772,1.87,1.733,0.168
2026-06-26 14:34:31.886,73044046,117886,1,0.63721,0.073,0.86328,0.29,2.718,1.137
2026-06-26 14:34:31.886,73044046,117886,2,0.96094,-0.37207,-0.16357,-0.267,1.664,-0.55
2026-06-26 14:34:31.391,73043551,118391,1,0.6355,0.07227,0.86304,-1.527,0.977,0.618
2026-06-26 14:34:31.391,73043551,118391,2,0.94995,-0.38818,-0.16064,-0.13,-3.595,-0.87
2026-06-26 14:34:32.764,73044924,118764,1,0.76196,0.03979,0.84375,-8.977,7.733,7.359
2026-06-26 14:34:32.764,73044924,118764,2,0.93311,-0.39087,-0.19067,0.45,8.45,-2.985
2026-06-26 14:34:32.227,73044387,119227,1,0.59229,0.04541,0.89429,1.863,7.977,1.718
2026-06-26 14:34:32.227,73044387,119227,2,0.96606,-0.37769,-0.16138,-20.878,16.427,-2.198
2026-06-26 14:34:33.726,73045886,119726,1,0.5791,0.06421,0.91797,-0.221,2.351,2.359
2026-06-26 14:34:33.726,73045886,119726,1,0.5791,0.06421,0.91797,-0.221,2.351,2.359
2026-06-26 14:34:33.726,73045886,119726,2,0.97876,-0.43091,-0.0874,0.321,-1.542,-8.824
2026-06-26 14:34:38.950,73051110,124950,1,0.60571,-0.00049,0.87939,16.863,7.26,19.603
2026-06-26 14:34:38.950,73051110,124950,2,0.90234,-0.4375,-0.17358,17.427,-14.786,-3.031
2026-06-26 14:34:38.950,73051110,124950,2,0.90234,-0.4375,-0.17358,17.427,-14.786,-3.031
2026-06-26 14:34:43.089,73055249,130088,1,0.50269,0.03369,0.95923,-31.267,-10.42,-32.153
2026-06-26 14:34:43.089,73055249,130088,2,0.95264,-0.50977,-0.05347,13.947,10.58,1.015
2026-06-26 14:34:43.372,73055532,130372,1,0.55371,-0.08838,0.90503,15.191,3.84,26.252
2026-06-26 14:34:43.372,73055532,130372,2,0.95117,-0.49316,-0.13062,60.511,-25.405,-17.13
2026-06-26 14:34:44.695,73056855,130695,1,0.57324,0.02612,0.96606,41.015,15.481,54.939
2026-06-26 14:34:44.695,73056855,130695,2,0.99805,-0.32568,-0.05347,44.26,-7.832,-17.176
2026-06-26 14:34:44.695,73056855,130695,2,0.99805,-0.32568,-0.05347,44.26,-7.832,-17.176
2026-06-26 14:34:54.882,73067042,140882,1,0.60327,0.06079,0.88159,0.084,1.954,-2.794
2026-06-26 14:34:54.882,73067042,140882,1,0.60327,0.06079,0.88159,0.084,1.954,-2.794
2026-06-26 14:34:54.882,73067042,140882,2,0.98193,-0.31006,-0.13599,6.687,2.038,-2.366
2026-06-26 14:34:54.882,73067042,140882,2,0.98193,-0.31006,-0.13599,6.687,2.038,-2.366
2026-06-26 14:35:04.457,73076617,151457,1,0.59937,0.04395,0.90112,1.168,2.71,0.786
2026-06-26 14:35:04.457,73076617,151457,2,0.98828,-0.29346,-0.14575,1.107,1.878,-0.366
2026-06-26 14:35:05.657,73077817,151657,1,0.59595,0.04297,0.896,0.893,3.893,0.931
2026-06-26 14:35:05.657,73077817,151657,2,0.9939,-0.30518,-0.15015,1.214,2.198,-0.397
2026-06-26 14:35:05.857,73078017,151857,1,0.58765,0.05127,0.9043,1.626,3.069,-0.031
2026-06-26 14:35:05.857,73078017,151857,2,0.99341,-0.29956,-0.13647,0.969,2.237,-0.695
2026-06-26 14:35:05.057,73077217,152057,1,0.58521,0.05542,0.90454,1.13,2.496,1.153
2026-06-26 14:35:05.057,73077217,152057,2,0.99243,-0.30225,-0.1355,1.244,1.099,-0.458
2026-06-26 14:35:05.280,73077440,152280,1,0.59302,0.05225,0.89868,0.389,2.198,1.0
2026-06-26 14:35:05.280,73077440,152280,1,0.59302,0.05225,0.89868,0.389,2.198,1.0
2026-06-26 14:35:05.280,73077440,152280,2,0.97168,-0.32104,-0.21362,-0.885,8.389,1.298
2026-06-26 14:35:11.668,73083828,157668,1,0.62476,0.06006,0.86792,-1.115,6.122,0.809
2026-06-26 14:35:11.668,73083828,157668,2,0.97412,-0.32446,-0.16772,-1.855,5.382,0.298
2026-06-26 14:35:11.909,73084069,157909,1,0.62256,0.0647,0.87866,0.656,2.214,-0.008
2026-06-26 14:35:11.909,73084069,157909,2,0.97681,-0.32739,-0.1626,-1.695,3.191,-0.893
2026-06-26 14:35:11.109,73083269,158109,1,0.60059,0.06494,0.88574,2.733,0.71,0.443
2026-06-26 14:35:11.109,73083269,158109,2,0.98267,-0.35059,-0.17871,7.496,-2.679,1.466
2026-06-26 14:35:12.506,73084666,158506,1,0.61426,0.07373,0.88062,-1.504,6.618,4.198
2026-06-26 14:35:12.506,73084666,158506,2,0.96411,-0.35083,-0.19043,10.679,0.031,2.282
2026-06-26 14:35:12.706,73084866,158706,1,0.61938,0.04761,0.88135,-2.298,5.26,5.794
2026-06-26 14:35:12.706,73084866,158706,2,0.98535,-0.34253,-0.18896,-0.26,3.656,-4.794
2026-06-26 14:35:12.906,73085066,158906,1,0.62695,0.05811,0.87573,4.908,8.756,6.374
2026-06-26 14:35:12.906,73085066,158906,2,0.98193,-0.30615,-0.19629,7.84,5.763,-10.824
2026-06-26 14:35:12.130,73084290,159130,1,0.59155,0.07861,0.89771,9.221,8.832,0.45
2026-06-26 14:35:12.130,73084290,159130,2,0.99023,-0.27954,-0.18701,4.221,4.725,-9.534
2026-06-26 14:35:12.332,73084492,159332,1,0.56812,0.11108,0.89526,2.076,2.756,-4.511
2026-06-26 14:35:12.332,73084492,159332,2,1.00098,-0.29907,-0.14673,2.618,-3.344,-0.977
2026-06-26 14:35:13.532,73085692,159532,1,0.58594,0.08447,0.89502,-0.481,4.656,-2.977
2026-06-26 14:35:13.532,73085692,159532,2,0.97437,-0.31421,-0.15747,-2.344,7.588,-2.053
2026-06-26 14:35:13.732,73085892,159732,1,0.54126,0.08301,0.92578,-4.74,5.947,0.58
2026-06-26 14:35:13.732,73085892,159732,2,0.98633,-0.31128,-0.14307,9.069,3.221,3.664
2026-06-26 14:35:13.976,73086136,159976,1,0.55176,0.04834,0.91821,-3.901,5.565,2.664
2026-06-26 14:35:13.976,73086136,159976,2,0.98828,-0.32275,-0.12256,-1.573,4.237,1.458
2026-06-26 14:35:13.176,73085336,160176,1,0.52856,0.03125,0.93018,-1.718,5.328,-0.618
2026-06-26 14:35:13.176,73085336,160176,2,0.99121,-0.33081,-0.11401,1.969,-0.038,1.229
2026-06-26 14:35:13.376,73085536,160376,1,0.48047,0.08105,0.99927,-15.137,-0.885,-5.924
2026-06-26 14:35:13.376,73085536,160376,2,0.99829,-0.34448,-0.15479,-3.061,-1.908,2.885
2026-06-26 14:35:14.580,73086740,160580,1,0.54834,-0.0127,0.9043,-8.221,-8.198,-15.611
2026-06-26 14:35:14.580,73086740,160580,2,0.95654,-0.3457,-0.17432,-0.664,-0.466,-0.481
2026-06-26 14:35:14.780,73086940,160780,1,0.58569,-0.00195,0.90698,10.405,-5.084,-8.771
2026-06-26 14:35:14.780,73086940,160780,2,0.95947,-0.37402,-0.15356,-12.153,-7.099,-2.061
2026-06-26 14:35:14.980,73087140,160980,1,0.59473,0.06201,0.90454,6.947,0.855,-5.458
2026-06-26 14:35:14.980,73087140,160980,2,0.9729,-0.33862,-0.21094,-1.137,0.626,-5.939
2026-06-26 14:35:14.215,73086375,161215,1,0.58643,0.10986,0.90137,3.092,2.298,-1.832
2026-06-26 14:35:14.215,73086375,161215,2,0.97021,-0.31836,-0.22681,4.29,0.924,-3.794
2026-06-26 14:35:15.501,73087661,161501,1,0.58301,0.10376,0.90649,9.153,4.305,6.687
2026-06-26 14:35:15.501,73087661,161501,2,0.97095,-0.3103,-0.22681,2.374,4.344,-4.214
2026-06-26 14:35:15.807,73087967,161807,1,0.57642,0.1438,0.88428,5.389,8.855,10.71
2026-06-26 14:35:15.807,73087967,161807,2,0.98877,-0.28662,-0.21289,12.634,7.359,-4.855
2026-06-26 14:35:15.122,73087282,162121,1,0.56885,0.20215,0.88843,4.847,21.756,20.191
2026-06-26 14:35:15.122,73087282,162121,2,1.00659,-0.19507,-0.17383,8.405,20.771,-0.756
2026-06-26 14:35:15.339,73087499,162339,1,0.50562,0.18799,0.89722,3.153,14.649,14.779
2026-06-26 14:35:15.339,73087499,162339,2,1.04565,-0.23657,-0.09937,6.565,0.511,-1.641
2026-06-26 14:35:16.539,73088699,162539,1,0.49243,-0.00293,0.94678,3.626,8.214,14.321
2026-06-26 14:35:16.539,73088699,162539,2,1.03076,-0.20972,0.02734,-4.458,-4.397,-26.519
2026-06-26 14:35:16.837,73088997,162837,1,0.46411,0.06519,1.01904,-10.695,5.313,1.466
2026-06-26 14:35:16.837,73088997,162837,2,0.96167,-0.35083,-0.06323,23.298,-13.855,14.855
2026-06-26 14:35:16.037,73088197,163037,1,0.53784,-0.00195,0.91504,-8.908,-1.29,8.176
2026-06-26 14:35:16.037,73088197,163037,2,0.94629,-0.36035,-0.12695,31.084,-12.504,3.359
2026-06-26 14:35:16.257,73088417,163257,1,0.58081,-0.00513,0.89917,17.084,-2.947,25.641
2026-06-26 14:35:16.257,73088417,163257,2,1.00439,-0.26416,-0.19751,2.214,2.061,-6.023
2026-06-26 14:35:16.457,73088617,163457,1,0.64429,0.08618,1.1311,-19.443,-0.947,-29.344
2026-06-26 14:35:16.457,73088617,163457,2,0.89014,-0.35913,-0.00464,-10.229,-9.443,10.13
2026-06-26 14:35:17.657,73089817,163657,1,0.49487,0.13257,1.03174,-7.863,11.16,-16.092
2026-06-26 14:35:17.657,73089817,163657,2,1.0481,-0.2522,-0.10156,-69.817,43.542,-7.908
2026-06-26 14:35:17.657,73089817,163657,2,1.0481,-0.2522,-0.10156,-69.817,43.542,-7.908
2026-06-26 14:35:27.879,73100039,173879,1,0.65039,0.05981,0.84204,0.687,2.733,1.305
2026-06-26 14:35:27.879,73100039,173879,1,0.65039,0.05981,0.84204,0.687,2.733,1.305
2026-06-26 14:35:27.879,73100039,173879,2,0.88892,-0.40186,-0.34644,-1.092,1.634,-0.969
2026-06-26 14:35:32.325,73104485,179325,1,0.74829,0.0459,0.77783,0.069,4.076,-0.58
2026-06-26 14:35:32.325,73104485,179325,1,0.74829,0.0459,0.77783,0.069,4.076,-0.58
2026-06-26 14:35:32.325,73104485,179325,2,0.93237,-0.37183,-0.26343,-6.374,4.542,3.389
2026-06-26 14:35:32.325,73104485,179325,2,0.93237,-0.37183,-0.26343,-6.374,4.542,3.389
2026-06-26 14:35:43.980,73116140,189980,1,0.60791,-0.00366,0.88452,-22.061,-4.672,-43.015
2026-06-26 14:35:43.980,73116140,189980,2,0.96899,-0.40503,-0.18823,-33.695,10.153,2.42
2026-06-26 14:35:43.253,73115413,190253,1,0.64453,0.0647,0.89893,-18.183,-1.702,-28.382
2026-06-26 14:35:43.253,73115413,190253,2,0.90894,-0.34009,-0.20142,-15.916,8.55,6.939
2026-06-26 14:35:43.253,73115413,190253,2,0.90894,-0.34009,-0.20142,-15.916,8.55,6.939
2026-06-26 14:35:49.506,73121666,195506,1,0.66699,0.13354,0.84375,5.244,-0.321,2.328
2026-06-26 14:35:49.506,73121666,195506,1,0.66699,0.13354,0.84375,5.244,-0.321,2.328
2026-06-26 14:35:49.506,73121666,195506,2,0.96582,-0.29688,-0.2522,0.336,0.969,0.382
2026-06-26 14:35:54.270,73126430,201269,1,0.65771,0.11792,0.85229,1.244,0.275,0.687
2026-06-26 14:35:54.270,73126430,201269,2,0.96167,-0.29468,-0.25049,1.496,0.947,-1.076
2026-06-26 14:35:54.469,73126629,201469,1,0.6521,0.1167,0.84448,2.985,1.863,1.71
2026-06-26 14:35:54.469,73126629,201469,2,0.96118,-0.2959,-0.24902,0.458,1.565,-1.061
2026-06-26 14:35:54.469,73126629,201469,2,0.96118,-0.2959,-0.24902,0.458,1.565,-1.061
2026-06-26 14:36:00.610,73132770,206610,1,0.48975,0.2478,0.91113,10.237,9.489,-1.855
2026-06-26 14:36:00.610,73132770,206610,2,0.90698,-0.20313,-0.14136,-21.832,-3.076,13.618
2026-06-26 14:36:00.961,73133121,206961,1,0.77222,0.07861,1.18286,-62.092,1.511,-61.565
2026-06-26 14:36:00.961,73133121,206961,2,0.85767,-0.18628,0.06274,-56.305,17.496,-5.382
2026-06-26 14:36:00.161,73132321,207161,1,0.50415,-0.05835,1.01758,-10.794,2.954,-33.908
2026-06-26 14:36:00.161,73132321,207161,2,0.93628,-0.38062,-0.07446,13.565,-6.588,10.519
2026-06-26 14:36:00.428,73132588,207427,1,0.59302,-0.03833,0.80469,-3.603,2.718,9.504
2026-06-26 14:36:00.428,73132588,207427,2,1.19849,-0.48511,-0.34937,-57.107,-50.954,-0.069
2026-06-26 14:36:01.785,73133945,207785,1,0.57007,0.20215,0.90137,9.336,6.672,6.092
2026-06-26 14:36:01.785,73133945,207785,2,0.91382,-0.19385,-0.13208,4.183,4.13,4.046
2026-06-26 14:36:01.096,73133256,208096,1,0.56372,0.14941,0.83325,-20.573,-10.351,-22.16
2026-06-26 14:36:01.096,73133256,208096,2,1.00806,-0.31152,-0.14087,-7.237,25.893,8.053
2026-06-26 14:36:01.359,73133519,208359,1,0.56763,-0.03491,0.78882,-34.008,40.198,-42.038
2026-06-26 14:36:01.359,73133519,208359,2,0.82593,-0.39648,-0.00269,-87.0,32.84,9.466
2026-06-26 14:36:01.359,73133519,208359,2,0.82593,-0.39648,-0.00269,-87.0,32.84,9.466
2026-06-26 14:36:07.730,73139890,213730,1,0.66846,0.05103,0.83667,1.42,3.107,3.649
2026-06-26 14:36:07.730,73139890,213730,2,0.94824,-0.37524,-0.19922,2.55,2.771,-1.29
2026-06-26 14:36:07.021,73139181,214021,1,0.66357,0.05493,0.84546,0.977,3.16,0.893
2026-06-26 14:36:07.021,73139181,214021,2,0.94922,-0.37305,-0.19238,0.069,2.115,-0.328
2026-06-26 14:36:07.292,73139452,214292,1,0.66821,0.05273,0.84302,0.603,2.336,0.939
2026-06-26 14:36:07.292,73139452,214292,2,0.95313,-0.38062,-0.20068,-3.947,0.771,1.29
2026-06-26 14:36:08.492,73140652,214492,1,0.6792,0.0603,0.81641,0.176,-1.511,1.153
2026-06-26 14:36:08.492,73140652,214492,2,0.96338,-0.38037,-0.21069,-5.374,0.298,0.145
2026-06-26 14:36:08.692,73140852,214692,1,0.65967,0.05542,0.82642,-1.466,4.069,-0.115
2026-06-26 14:36:08.692,73140852,214692,2,0.96069,-0.3772,-0.18701,-1.832,1.45,0.931
2026-06-26 14:36:08.084,73140244,215084,1,0.66724,0.05591,0.83447,-3.153,2.389,-1.756
2026-06-26 14:36:08.084,73140244,215084,2,0.95459,-0.37915,-0.21118,-1.687,3.779,1.244
2026-06-26 14:36:08.284,73140444,215284,1,0.68701,0.03809,0.83081,-3.931,1.916,-3.87
2026-06-26 14:36:08.284,73140444,215284,2,0.9502,-0.37891,-0.21484,-3.588,4.092,0.267
2026-06-26 14:36:09.516,73141676,215516,1,0.64258,0.02344,0.85669,-3.168,6.908,-3.176
2026-06-26 14:36:09.516,73141676,215516,2,0.94238,-0.38354,-0.19214,-0.298,2.901,-0.008
2026-06-26 14:36:09.883,73142043,215883,1,0.65796,0.01904,0.85571,-0.115,0.771,1.16
2026-06-26 14:36:09.883,73142043,215883,2,0.94995,-0.3877,-0.18799,1.74,0.534,0.137
2026-06-26 14:36:09.088,73141248,216088,1,0.6582,0.02075,0.84985,-0.489,2.489,1.282
2026-06-26 14:36:09.088,73141248,216088,2,0.94971,-0.39771,-0.18335,2.611,1.168,0.145
2026-06-26 14:36:09.389,73141549,216389,1,0.646,0.01465,0.85498,3.26,2.641,2.382
2026-06-26 14:36:09.389,73141549,216389,2,0.95264,-0.3877,-0.18066,-1.779,-0.107,-2.916
2026-06-26 14:36:10.650,73142810,216650,1,0.64551,0.02588,0.85815,0.344,-0.214,-0.84
2026-06-26 14:36:10.650,73142810,216650,2,0.95923,-0.39063,-0.20654,1.863,3.847,-0.29
2026-06-26 14:36:10.850,73143010,216850,1,0.65234,0.02197,0.85986,0.702,0.473,-2.359
2026-06-26 14:36:10.850,73143010,216850,2,0.95044,-0.39185,-0.18823,1.588,0.771,-0.603
2026-06-26 14:36:10.101,73142261,217101,1,0.64893,0.02393,0.8584,0.832,3.29,0.962
2026-06-26 14:36:10.101,73142261,217101,2,0.95142,-0.38062,-0.18677,2.0,1.84,-0.634
2026-06-26 14:36:10.336,73142496,217336,1,0.64355,0.0249,0.86694,0.84,2.13,0.076
2026-06-26 14:36:10.336,73142496,217336,2,0.95825,-0.39331,-0.17651,1.153,1.595,-0.931
2026-06-26 14:36:11.616,73143776,217616,1,0.64771,0.02393,0.85913,-1.183,6.374,0.74
2026-06-26 14:36:11.616,73143776,217616,2,0.98682,-0.35254,-0.20801,-1.679,8.901,-5.786
2026-06-26 14:36:11.850,73144010,217850,1,0.65015,0.00757,0.86597,-0.557,17.282,-11.168
2026-06-26 14:36:11.850,73144010,217850,2,0.95728,-0.45264,-0.11597,3.802,19.397,-0.786
2026-06-26 14:36:11.050,73143210,218050,1,0.59546,-0.07666,0.91797,9.076,10.58,12.099
2026-06-26 14:36:11.050,73143210,218050,2,1.02148,-0.38696,-0.07324,3.351,-1.305,-10.473
2026-06-26 14:36:11.273,73143433,218273,1,0.50317,0.10132,0.87891,19.847,-14.565,11.878
2026-06-26 14:36:11.273,73143433,218273,2,1.00757,-0.27881,-0.10278,14.206,-24.168,-8.45
2026-06-26 14:36:11.473,73143633,218473,1,0.6355,0.14063,0.85645,15.779,-7.229,14.282
2026-06-26 14:36:11.473,73143633,218473,2,1.01245,-0.28638,-0.15991,18.351,-7.863,-9.389
2026-06-26 14:36:12.673,73144833,218673,1,0.66772,0.11255,0.84863,10.061,4.908,14.489
2026-06-26 14:36:12.673,73144833,218673,2,1.04834,-0.30078,-0.13599,9.511,18.29,-10.672
2026-06-26 14:36:12.889,73145049,218889,1,0.63428,0.13745,0.87134,12.908,36.046,6.908
2026-06-26 14:36:12.889,73145049,218889,2,1.03662,-0.15601,-0.04199,26.038,38.718,-4.412
2026-06-26 14:36:12.160,73144320,219160,1,0.38379,0.2793,0.96045,-11.183,33.366,-10.939
2026-06-26 14:36:12.160,73144320,219160,2,1.09106,-0.14868,0.09302,-20.832,34.443,10.198
2026-06-26 14:36:12.360,73144520,219360,1,0.25586,0.02979,1.01074,-41.481,35.206,-39.977
2026-06-26 14:36:12.360,73144520,219360,2,0.9541,-0.32739,0.25464,-24.237,35.023,6.641
2026-06-26 14:36:13.560,73145720,219560,1,0.19141,-0.0083,1.07788,-15.985,4.748,-17.672
2026-06-26 14:36:13.560,73145720,219560,2,0.95166,-0.43701,0.18652,-19.595,-5.74,16.473
2026-06-26 14:36:13.760,73145920,219760,1,0.3269,-0.10229,1.01245,-14.298,-2.366,1.985
2026-06-26 14:36:13.760,73145920,219760,2,0.97778,-0.4585,0.18799,-13.679,-6.58,10.771
2026-06-26 14:36:13.960,73146120,219960,1,0.35962,-0.16406,0.97681,-7.885,1.489,6.405
2026-06-26 14:36:13.960,73146120,219960,2,0.96313,-0.46484,0.16797,19.382,-1.282,2.817
2026-06-26 14:36:13.160,73145320,220160,1,0.31665,-0.19092,1.03687,0.809,-5.947,7.947
2026-06-26 14:36:13.160,73145320,220160,2,0.91992,-0.46436,0.13818,16.305,-16.969,-1.099
2026-06-26 14:36:13.360,73145520,220360,1,0.30981,-0.13062,0.99585,13.71,-11.244,3.496
2026-06-26 14:36:13.360,73145520,220360,2,0.95142,-0.48145,0.07031,-0.878,-22.145,-6.87
2026-06-26 14:36:14.560,73146720,220560,1,0.43286,-0.15918,0.93335,16.504,-21.183,5.198
2026-06-26 14:36:14.560,73146720,220560,2,0.91333,-0.44629,-0.00952,7.183,-25.26,-12.298
2026-06-26 14:36:14.760,73146920,220760,1,0.43799,0.04053,0.94116,23.092,33.237,13.473
2026-06-26 14:36:14.760,73146920,220760,2,1.0564,-0.33594,-0.03467,2.382,-11.328,-5.504
2026-06-26 14:36:14.018,73146178,221017,1,0.52051,0.06274,0.90845,16.786,-4.916,-6.947
2026-06-26 14:36:14.018,73146178,221017,2,1.02075,-0.26489,-0.125,3.313,-5.611,-14.145
2026-06-26 14:36:14.217,73146377,221217,1,0.56274,0.19067,0.91895,13.504,-5.069,-4.458
2026-06-26 14:36:14.217,73146377,221217,2,1.02783,-0.21753,-0.10889,10.977,-2.504,-5.206
2026-06-26 14:36:14.422,73146582,221422,1,0.5105,0.29077,0.91138,3.55,-7.29,-5.771
2026-06-26 14:36:14.422,73146582,221422,2,1.03125,-0.19092,-0.18555,-29.489,-7.229,0.336
2026-06-26 14:36:15.622,73147782,221622,1,0.5979,0.1521,0.86353,-12.282,-0.74,-11.679
2026-06-26 14:36:15.622,73147782,221622,2,0.99438,-0.30078,-0.14575,-3.053,-0.947,1.931
2026-06-26 14:36:15.822,73147982,221822,1,0.60303,0.12939,0.86401,-8.977,-3.733,7.618
2026-06-26 14:36:15.822,73147982,221822,2,0.97729,-0.28149,-0.21289,0.496,2.588,4.313
2026-06-26 14:36:15.070,73147230,222070,1,0.63672,0.06445,0.87109,-10.45,-3.588,-6.947
2026-06-26 14:36:15.070,73147230,222070,2,0.97437,-0.39893,-0.1853,-11.351,7.626,11.641
2026-06-26 14:36:15.283,73147443,222282,1,0.65259,-0.00903,0.8606,-14.42,5.313,-13.832
2026-06-26 14:36:15.283,73147443,222282,2,0.91675,-0.45508,-0.22534,7.71,0.58,2.786
2026-06-26 14:36:16.496,73148656,222496,1,0.64648,-0.07251,0.8396,3.588,0.008,9.954
2026-06-26 14:36:16.496,73148656,222496,2,0.89893,-0.38599,-0.22827,6.916,13.786,-7.053
2026-06-26 14:36:16.703,73148863,222703,1,0.64282,-0.00317,0.89404,7.015,-0.053,1.084
2026-06-26 14:36:16.703,73148863,222703,2,0.99365,-0.36743,-0.16431,8.0,9.092,-9.282
2026-06-26 14:36:16.903,73149063,222903,1,0.58423,0.12549,0.89087,19.679,11.855,13.26
2026-06-26 14:36:16.903,73149063,222903,2,1.03613,-0.18311,-0.1084,22.198,12.489,-17.099
2026-06-26 14:36:16.103,73148263,223103,1,0.47852,0.30786,0.86353,9.282,7.412,2.947
2026-06-26 14:36:16.103,73148263,223103,2,1.11353,-0.48389,-0.10205,-6.878,-36.763,31.298
2026-06-26 14:36:16.314,73148474,223314,1,0.59814,0.03491,0.86328,-1.473,-10.855,17.962
2026-06-26 14:36:16.314,73148474,223314,2,1.01611,-0.34839,-0.13916,-31.924,3.878,1.038
2026-06-26 14:36:17.531,73149691,223531,1,0.62891,0.0542,0.87012,-4.786,-0.168,-6.305
2026-06-26 14:36:17.531,73149691,223531,2,0.9646,-0.35522,-0.16968,-3.084,0.344,0.069
2026-06-26 14:36:17.731,73149891,223731,1,0.66748,0.05444,0.854,1.58,0.794,3.786
2026-06-26 14:36:17.731,73149891,223731,2,0.96753,-0.36157,-0.19604,6.855,-0.298,-0.977
2026-06-26 14:36:17.931,73150091,223931,1,0.65186,0.07202,0.85864,3.496,2.168,7.679
2026-06-26 14:36:17.931,73150091,223931,2,0.97705,-0.33887,-0.19141,5.84,2.71,-0.725
2026-06-26 14:36:17.131,73149291,224131,1,0.61841,0.0708,0.8623,2.382,4.305,2.901
2026-06-26 14:36:17.131,73149291,224131,2,0.97559,-0.31128,-0.16943,1.13,-0.282,-1.092
2026-06-26 14:36:17.331,73149491,224331,1,0.63086,0.09155,0.84985,1.466,-0.863,0.176
2026-06-26 14:36:17.331,73149491,224331,2,0.97314,-0.31274,-0.18555,-2.916,2.863,-0.542
2026-06-26 14:36:18.531,73150691,224531,1,0.64673,0.07495,0.84961,-2.885,-0.359,-2.939
2026-06-26 14:36:18.531,73150691,224531,2,0.97876,-0.33032,-0.16675,-8.389,3.763,1.939
2026-06-26 14:36:18.764,73150924,224764,1,0.6438,0.06836,0.84717,-1.168,0.74,-2.382
2026-06-26 14:36:18.764,73150924,224764,2,0.96655,-0.33521,-0.17725,-1.115,2.45,-0.832
2026-06-26 14:36:18.043,73150203,225043,1,0.64966,0.0708,0.86133,-0.244,2.725,-0.794
2026-06-26 14:36:18.043,73150203,225043,2,0.97339,-0.34155,-0.18579,1.359,1.267,-0.786
2026-06-26 14:36:18.243,73150403,225243,1,0.63403,0.0874,0.85889,2.16,3.603,1.649
2026-06-26 14:36:18.243,73150403,225243,2,0.96851,-0.33203,-0.17603,1.115,2.153,-1.115
2026-06-26 14:36:18.443,73150603,225443,1,0.63379,0.07617,0.85645,0.084,3.611,1.328
2026-06-26 14:36:18.443,73150603,225443,2,0.97534,-0.33496,-0.17896,3.992,1.305,-0.206
2026-06-26 14:36:19.672,73151832,225672,1,0.62158,0.06934,0.87476,1.351,6.282,0.931
2026-06-26 14:36:19.672,73151832,225672,2,0.96655,-0.34033,-0.16406,1.924,3.885,-0.863
2026-06-26 14:36:19.930,73152090,225929,1,0.62524,0.06494,0.86719,0.504,3.771,0.221
2026-06-26 14:36:19.930,73152090,225929,2,0.9668,-0.34814,-0.17017,3.573,0.412,-0.359
2026-06-26 14:36:19.129,73151289,226129,1,0.62354,0.06665,0.85938,1.847,1.557,0.763
2026-06-26 14:36:19.129,73151289,226129,2,0.97681,-0.34155,-0.16284,0.198,-0.397,-0.588
2026-06-26 14:36:19.337,73151497,226336,1,0.62183,0.07788,0.86743,1.672,0.603,0.931
2026-06-26 14:36:19.337,73151497,226336,2,0.97607,-0.3396,-0.17505,-0.466,1.153,-0.779
2026-06-26 14:36:20.536,73152696,226536,1,0.63818,0.07959,0.86328,0.183,2.748,0.053
2026-06-26 14:36:20.536,73152696,226536,2,0.97876,-0.33887,-0.19141,3.298,3.992,0.229
2026-06-26 14:36:20.736,73152896,226736,1,0.6145,0.06689,0.8623,1.321,1.023,3.42
2026-06-26 14:36:20.736,73152896,226736,2,0.97778,-0.33618,-0.15625,1.435,0.893,0.733
2026-06-26 14:36:20.942,73153102,226942,1,0.62915,0.06714,0.86768,1.16,2.298,0.267
2026-06-26 14:36:20.942,73153102,226942,2,0.97632,-0.34229,-0.18018,1.107,0.466,-0.855
2026-06-26 14:36:20.142,73152302,227142,1,0.64111,0.06982,0.87061,0.374,2.679,0.26
2026-06-26 14:36:20.142,73152302,227142,2,0.97314,-0.33691,-0.16064,1.038,2.908,-0.626
2026-06-26 14:36:20.342,73152502,227342,1,0.61768,0.07593,0.86743,-0.687,3.206,-0.855
2026-06-26 14:36:20.342,73152502,227342,2,0.97168,-0.34863,-0.15503,0.557,0.336,0.511
2026-06-26 14:36:21.582,73153742,227582,1,0.625,0.06812,0.86938,0.16,2.214,0.496
2026-06-26 14:36:21.582,73153742,227582,2,0.96826,-0.35303,-0.16431,-0.145,1.611,-0.534
2026-06-26 14:36:21.782,73153942,227782,1,0.62793,0.06396,0.87793,1.069,2.939,0.656
2026-06-26 14:36:21.782,73153942,227782,2,0.96509,-0.35229,-0.18018,1.901,1.565,-1.038
2026-06-26 14:36:21.982,73154142,227982,1,0.62402,0.06348,0.87207,0.893,1.977,0.176
2026-06-26 14:36:21.982,73154142,227982,2,0.97437,-0.3501,-0.16479,0.405,1.595,-1.221
2026-06-26 14:36:21.182,73153342,228182,1,0.61792,0.06982,0.88452,0.969,2.733,0.382
2026-06-26 14:36:21.182,73153342,228182,2,0.97437,-0.34497,-0.17285,2.901,1.26,-0.763
2026-06-26 14:36:21.389,73153549,228389,1,0.61694,0.07617,0.87842,1.527,1.817,1.466
2026-06-26 14:36:21.389,73153549,228389,2,0.98242,-0.34497,-0.17065,0.527,0.382,-0.504
2026-06-26 14:36:22.589,73154749,228589,1,0.61377,0.07788,0.88037,0.244,1.122,0.748
2026-06-26 14:36:22.589,73154749,228589,2,0.96411,-0.34351,-0.16821,-1.885,-0.473,-0.099
2026-06-26 14:36:22.789,73154949,228789,1,0.6626,0.06104,0.86304,-2.74,2.603,-1.015
2026-06-26 14:36:22.789,73154949,228789,2,0.95752,-0.34399,-0.18506,0.168,2.702,-0.939
2026-06-26 14:36:22.014,73154174,229014,1,0.64453,0.06177,0.86304,1.13,2.282,-0.282
2026-06-26 14:36:22.014,73154174,229014,2,0.95728,-0.34937,-0.17432,0.336,1.473,0.122
2026-06-26 14:36:22.248,73154408,229247,1,0.62476,0.06152,0.8667,1.321,1.458,0.435
2026-06-26 14:36:22.248,73154408,229247,2,0.96948,-0.3396,-0.17822,0.763,2.435,-1.336
2026-06-26 14:36:22.447,73154607,229447,1,0.63379,0.06543,0.8689,1.214,1.977,0.794
2026-06-26 14:36:22.447,73154607,229447,2,0.97827,-0.34473,-0.18652,1.389,1.115,-1.061
2026-06-26 14:36:23.647,73155807,229647,1,0.65259,0.07837,0.86084,1.534,5.176,1.756
2026-06-26 14:36:23.647,73155807,229647,2,0.97485,-0.34399,-0.1748,3.275,4.084,-0.328
2026-06-26 14:36:23.856,73156016,229856,1,0.61548,0.06226,0.87134,1.519,2.023,0.588
2026-06-26 14:36:23.856,73156016,229856,2,0.96606,-0.35205,-0.1665,1.191,1.053,-0.931
2026-06-26 14:36:23.056,73155216,230056,1,0.62622,0.07495,0.86304,2.145,1.397,1.954
2026-06-26 14:36:23.056,73155216,230056,2,0.97339,-0.34326,-0.17822,0.878,0.718,-0.656
2026-06-26 14:36:23.256,73155416,230256,1,0.63745,0.07153,0.86279,-0.145,1.435,-0.229
2026-06-26 14:36:23.256,73155416,230256,2,0.97681,-0.35254,-0.16724,1.519,0.832,-0.832
2026-06-26 14:36:23.456,73155616,230456,1,0.625,0.07471,0.86597,0.55,1.427,0.687
2026-06-26 14:36:23.456,73155616,230456,2,0.9707,-0.34326,-0.16846,0.977,0.031,-0.053
2026-06-26 14:36:24.656,73156816,230656,1,0.62036,0.06592,0.87231,-4.893,3.496,0.603
2026-06-26 14:36:24.656,73156816,230656,2,0.9646,-0.36279,-0.17749,6.557,0.962,-2.023
2026-06-26 14:36:24.929,73157089,230929,1,0.65625,0.08081,0.84546,10.0,-4.519,3.191
2026-06-26 14:36:24.929,73157089,230929,2,0.9707,-0.34302,-0.19897,-8.176,-2.267,2.252
2026-06-26 14:36:24.195,73156355,231195,1,0.62744,0.08887,0.86426,-3.115,-5.588,-9.153
2026-06-26 14:36:24.195,73156355,231195,2,0.97485,-0.37817,-0.18652,-10.466,-4.443,0.924
2026-06-26 14:36:24.395,73156555,231395,1,0.70776,0.08594,0.8291,-12.954,3.351,-4.282
2026-06-26 14:36:24.395,73156555,231395,2,0.9585,-0.34009,-0.23535,-2.412,5.878,4.687
2026-06-26 14:36:25.595,73157755,231595,1,0.6687,0.06006,0.82007,1.802,2.397,0.275
2026-06-26 14:36:25.595,73157755,231595,2,0.95679,-0.36572,-0.21118,2.71,1.794,-0.405
2026-06-26 14:36:25.795,73157955,231795,1,0.64111,0.08398,0.83276,1.45,4.405,6.16
2026-06-26 14:36:25.795,73157955,231795,2,0.95972,-0.36157,-0.21191,2.74,2.389,-0.115
2026-06-26 14:36:25.025,73157185,232025,1,0.64429,0.06274,0.84058,-1.084,2.183,0.008
2026-06-26 14:36:25.025,73157185,232025,2,0.96191,-0.37329,-0.18311,2.534,1.221,-0.191
2026-06-26 14:36:25.225,73157385,232225,1,0.6582,0.07178,0.84814,0.084,5.595,1.489
2026-06-26 14:36:25.225,73157385,232225,2,0.95435,-0.36499,-0.19507,3.595,3.015,0.015
2026-06-26 14:36:25.425,73157585,232425,1,0.65161,0.05298,0.86133,1.534,4.611,4.481
2026-06-26 14:36:25.425,73157585,232425,2,0.96729,-0.34888,-0.18384,5.046,1.779,-3.656
2026-06-26 14:36:26.675,73158835,232675,1,0.6355,0.06104,0.86084,2.382,1.656,1.008
2026-06-26 14:36:26.675,73158835,232675,2,0.95703,-0.34448,-0.19067,-0.267,0.687,-1.466
2026-06-26 14:36:26.875,73159035,232875,1,0.66113,0.07104,0.85107,-4.183,1.313,-0.702
2026-06-26 14:36:26.875,73159035,232875,2,0.96313,-0.37744,-0.18286,0.985,3.031,-0.534
2026-06-26 14:36:26.075,73158235,233075,1,0.6543,0.06421,0.84888,9.786,0.267,0.015
2026-06-26 14:36:26.075,73158235,233075,2,0.96533,-0.34155,-0.21191,-4.321,-1.137,3.626
2026-06-26 14:36:26.275,73158435,233275,1,0.67822,0.09546,0.8291,-3.305,-0.618,-9.069
2026-06-26 14:36:26.275,73158435,233275,2,0.94995,-0.37109,-0.19678,-5.794,8.137,0.168
2026-06-26 14:36:27.521,73159681,233521,1,0.68091,0.04028,0.82739,-4.771,2.359,-2.221
2026-06-26 14:36:27.521,73159681,233521,2,0.95215,-0.35742,-0.19775,4.985,1.534,0.115
2026-06-26 14:36:27.721,73159881,233721,1,0.66553,0.07397,0.83765,6.16,5.679,6.55
2026-06-26 14:36:27.721,73159881,233721,2,0.96558,-0.35278,-0.18701,4.45,2.794,-1.504
2026-06-26 14:36:27.921,73160081,233921,1,0.65479,0.07251,0.82568,2.779,3.634,2.191
2026-06-26 14:36:27.921,73160081,233921,2,0.96045,-0.35425,-0.18774,2.389,0.015,-0.809
2026-06-26 14:36:27.217,73159377,234216,1,0.66138,0.0686,0.85181,0.435,1.962,0.679
2026-06-26 14:36:27.217,73159377,234216,2,0.96069,-0.36035,-0.18604,3.351,0.229,-1.45
2026-06-26 14:36:27.435,73159595,234435,1,0.65356,0.06519,0.84937,3.061,2.885,1.489
2026-06-26 14:36:27.435,73159595,234435,2,0.96606,-0.35864,-0.18481,1.817,1.366,-2.26
2026-06-26 14:36:28.635,73160795,234635,1,0.66064,0.0769,0.84131,0.634,1.641,0.351
2026-06-26 14:36:28.635,73160795,234635,2,0.95947,-0.34375,-0.19678,1.733,0.527,-1.183
2026-06-26 14:36:28.835,73160995,234835,1,0.66748,0.07837,0.84155,-0.42,2.824,0.076
2026-06-26 14:36:28.835,73160995,234835,2,0.96606,-0.34253,-0.19824,1.611,0.87,-0.641
2026-06-26 14:36:28.035,73160195,235035,1,0.66968,0.06714,0.8396,0.168,2.557,0.71
2026-06-26 14:36:28.035,73160195,235035,2,0.96338,-0.35596,-0.20581,-0.038,0.992,-0.618
2026-06-26 14:36:28.236,73160396,235236,1,0.66016,0.06323,0.84277,0.061,1.908,-0.023
2026-06-26 14:36:28.236,73160396,235236,2,0.96387,-0.35352,-0.20142,0.168,1.099,-0.702
2026-06-26 14:36:28.436,73160596,235436,1,0.6665,0.06812,0.83716,1.405,2.695,1.069
2026-06-26 14:36:28.436,73160596,235436,2,0.96411,-0.34888,-0.20288,1.527,1.534,-0.977
2026-06-26 14:36:29.646,73161806,235646,1,0.65601,0.06982,0.84058,1.756,2.618,1.145
2026-06-26 14:36:29.646,73161806,235646,2,0.96655,-0.34937,-0.19214,1.336,1.107,-0.901
2026-06-26 14:36:29.846,73162006,235846,1,0.66138,0.06738,0.83936,1.885,2.511,1.573
2026-06-26 14:36:29.846,73162006,235846,2,0.96533,-0.34326,-0.20044,1.664,1.13,-1.16
2026-06-26 14:36:29.046,73161206,236046,1,0.65967,0.07495,0.84448,1.641,3.069,0.855
2026-06-26 14:36:29.046,73161206,236046,2,0.96753,-0.34497,-0.18921,-1.336,1.725,-0.573
2026-06-26 14:36:29.285,73161445,236285,1,0.62183,0.06982,0.86377,1.611,1.405,-0.786
2026-06-26 14:36:29.285,73161445,236285,2,0.96484,-0.33228,-0.17285,2.076,-4.519,-1.664
2026-06-26 14:36:29.485,73161645,236485,1,0.71143,0.06934,0.8396,-0.992,5.603,4.603
2026-06-26 14:36:29.485,73161645,236485,2,0.97168,-0.32764,-0.2063,10.298,5.626,-0.45
2026-06-26 14:36:30.685,73162845,236685,1,0.64331,0.08179,0.84082,0.84,7.191,-0.351
2026-06-26 14:36:30.685,73162845,236685,2,0.97266,-0.33716,-0.1875,-6.305,3.802,-0.046
2026-06-26 14:36:30.885,73163045,236885,1,0.63965,0.08789,0.87842,0.733,5.893,1.45
2026-06-26 14:36:30.885,73163045,236885,2,0.94897,-0.34741,-0.19751,17.771,2.947,4.534
2026-06-26 14:36:30.129,73162289,237129,1,0.64819,0.02515,0.84668,-8.992,-5.489,-6.893
2026-06-26 14:36:30.129,73162289,237129,2,0.96362,-0.38452,-0.17432,-8.328,2.359,1.534
2026-06-26 14:36:30.349,73162509,237349,1,0.64966,0.02148,0.84741,1.092,1.55,-1.282
2026-06-26 14:36:30.349,73162509,237349,2,0.96191,-0.37231,-0.18091,,0.885,-0.58
2026-06-26 14:36:31.565,73163725,237565,1,0.66089,0.04102,0.84448,4.42,2.809,2.214
2026-06-26 14:36:31.565,73163725,237565,2,0.97168,-0.35571,-0.19507,6.153,3.954,-4.359
2026-06-26 14:36:31.765,73163925,237765,1,0.66211,0.06592,0.83838,7.412,6.107,3.458
2026-06-26 14:36:31.765,73163925,237765,2,0.96777,-0.34521,-0.19922,-6.45,2.809,-8.466
2026-06-26 14:36:31.965,73164125,237965,1,0.64746,0.06128,0.86304,-2.038,2.832,-2.26
2026-06-26 14:36:31.965,73164125,237965,2,0.97827,-0.33447,-0.17603,4.031,5.817,-3.954
2026-06-26 14:36:31.165,73163325,238165,1,0.63037,0.06836,0.854,4.618,1.924,1.557
2026-06-26 14:36:31.165,73163325,238165,2,0.99243,-0.30005,-0.16602,7.458,0.198,-5.45
2026-06-26 14:36:31.365,73163525,238365,1,0.63672,0.06396,0.85425,1.13,2.252,-1.198
2026-06-26 14:36:31.365,73163525,238365,2,0.9895,-0.34155,-0.16699,2.229,-2.015,-2.214
2026-06-26 14:36:32.565,73164725,238565,1,0.62427,0.08887,0.86914,-0.191,3.87,-0.672
2026-06-26 14:36:32.565,73164725,238565,2,0.98071,-0.31812,-0.16284,-2.031,-0.87,2.695
2026-06-26 14:36:32.782,73164942,238782,1,0.63477,0.05273,0.86743,-2.664,-0.16,-0.45
2026-06-26 14:36:32.782,73164942,238782,2,0.98022,-0.33423,-0.17749,-2.916,0.122,0.275
2026-06-26 14:36:32.982,73165142,238982,1,0.64429,0.06079,0.86304,0.16,1.916,-2.092
2026-06-26 14:36:32.982,73165142,238982,2,0.98291,-0.32788,-0.17578,-0.168,1.076,-0.473
2026-06-26 14:36:32.290,73164450,239290,1,0.64185,0.06885,0.85938,0.947,2.664,-0.069
2026-06-26 14:36:32.290,73164450,239290,2,0.96704,-0.33154,-0.18213,0.344,1.252,-0.473
2026-06-26 14:36:32.490,73164650,239490,1,0.64771,0.05713,0.85767,0.748,2.13,1.137
2026-06-26 14:36:32.490,73164650,239490,2,0.97607,-0.32568,-0.18481,1.321,1.634,-1.29
2026-06-26 14:36:33.690,73165850,239690,1,0.64746,0.07324,0.85449,0.863,2.084,0.641
2026-06-26 14:36:33.690,73165850,239690,2,0.97534,-0.32373,-0.17993,0.496,0.198,-0.137
2026-06-26 14:36:33.037,73165197,240036,1,0.64868,0.06323,0.86035,0.107,1.611,-0.061
2026-06-26 14:36:33.037,73165197,240036,2,0.97388,-0.33472,-0.18311,-0.069,3.473,-1.023
2026-06-26 14:36:33.236,73165396,240236,1,0.64233,0.06519,0.85327,0.267,3.489,0.573
2026-06-26 14:36:33.236,73165396,240236,2,0.97485,-0.33081,-0.19702,1.435,2.084,-0.565
2026-06-26 14:36:33.436,73165596,240436,1,0.64429,0.06372,0.86816,1.031,3.038,0.359
2026-06-26 14:36:33.436,73165596,240436,2,0.9729,-0.3269,-0.17505,0.443,2.382,-0.74
2026-06-26 14:36:34.636,73166796,240636,1,0.63892,0.06567,0.8562,0.115,2.191,-1.046
2026-06-26 14:36:34.636,73166796,240636,2,0.97461,-0.3291,-0.18628,-1.45,1.084,-0.366
2026-06-26 14:36:34.836,73166996,240836,1,0.64014,0.06519,0.84888,2.0,3.252,0.832
2026-06-26 14:36:34.836,73166996,240836,2,0.97729,-0.3335,-0.18188,1.053,1.137,-0.687
2026-06-26 14:36:34.143,73166303,241143,1,0.63965,0.06738,0.86035,0.641,2.389,1.092
2026-06-26 14:36:34.143,73166303,241143,2,0.97607,-0.33008,-0.18042,1.405,1.168,-0.901
2026-06-26 14:36:34.343,73166503,241343,1,0.64307,0.06592,0.85522,0.557,1.962,0.702
2026-06-26 14:36:34.343,73166503,241343,2,0.9751,-0.32642,-0.177,1.336,0.87,-0.45
2026-06-26 14:36:35.543,73167703,241543,1,0.65137,0.06787,0.854,0.687,1.679,0.427
2026-06-26 14:36:35.543,73167703,241543,2,0.9729,-0.32861,-0.18433,1.221,2.237,-0.634
2026-06-26 14:36:35.743,73167903,241743,1,0.64185,0.06592,0.85596,1.282,3.382,0.557
2026-06-26 14:36:35.743,73167903,241743,2,0.96777,-0.3252,-0.18262,0.87,2.0,-0.458
2026-06-26 14:36:35.943,73168103,241943,1,0.6416,0.06152,0.85962,0.489,2.344,0.435
2026-06-26 14:36:35.943,73168103,241943,2,0.97388,-0.33032,-0.17969,0.359,1.71,-0.763
2026-06-26 14:36:35.143,73167303,242143,1,0.64526,0.05762,0.85132,0.672,2.237,0.198
2026-06-26 14:36:35.143,73167303,242143,2,0.97388,-0.32837,-0.19507,0.282,1.992,-0.817
2026-06-26 14:36:35.343,73167503,242343,1,0.6499,0.05859,0.85278,1.115,2.13,0.237
2026-06-26 14:36:35.343,73167503,242343,2,0.97339,-0.32422,-0.18774,-0.527,3.87,-2.107
2026-06-26 14:36:36.543,73168703,242543,1,0.65015,0.0708,0.85669,-0.076,2.084,-0.046
2026-06-26 14:36:36.543,73168703,242543,2,0.97607,-0.32495,-0.18262,0.634,0.588,0.481
2026-06-26 14:36:36.764,73168924,242764,1,0.64111,0.06885,0.84912,0.176,2.863,0.298
2026-06-26 14:36:36.764,73168924,242764,2,0.97534,-0.32495,-0.18213,0.366,-0.885,1.0
2026-06-26 14:36:36.964,73169124,242964,1,0.64941,0.06348,0.85547,0.214,1.916,-0.046
2026-06-26 14:36:36.964,73169124,242964,2,0.97217,-0.32983,-0.1853,0.282,0.74,-0.504
2026-06-26 14:36:36.164,73168324,243164,1,0.64331,0.06909,0.85107,0.779,1.969,0.122
2026-06-26 14:36:36.164,73168324,243164,2,0.97632,-0.32715,-0.18628,3.183,3.053,-1.718
2026-06-26 14:36:37.658,73169818,243658,1,0.64795,0.07446,0.85376,1.145,2.725,0.061
2026-06-26 14:36:37.658,73169818,243658,2,0.97461,-0.32544,-0.18872,-0.74,1.145,-0.466
2026-06-26 14:36:37.858,73170018,243858,1,0.6499,0.07202,0.85571,0.924,2.206,1.382
2026-06-26 14:36:37.858,73170018,243858,2,0.97534,-0.32617,-0.19141,-0.252,0.557,0.313
2026-06-26 14:36:37.062,73169222,244061,1,0.64868,0.06836,0.85083,-0.099,2.275,0.947
2026-06-26 14:36:37.062,73169222,244061,2,0.97314,-0.32788,-0.18921,0.779,0.458,0.282
2026-06-26 14:36:37.261,73169421,244261,1,0.64941,0.06104,0.8562,0.038,1.718,0.412
2026-06-26 14:36:37.261,73169421,244261,2,0.97314,-0.32397,-0.18701,-0.176,1.58,-0.298
2026-06-26 14:36:37.461,73169621,244461,1,0.64355,0.06641,0.85449,0.87,2.71,0.008
2026-06-26 14:36:37.461,73169621,244461,2,0.96973,-0.32202,-0.18237,0.374,0.87,-0.557
2026-06-26 14:36:38.661,73170821,244661,1,0.64771,0.06592,0.84229,0.611,3.221,0.305
2026-06-26 14:36:38.661,73170821,244661,2,0.97754,-0.32764,-0.19507,1.603,2.298,-0.863
2026-06-26 14:36:38.863,73171023,244863,1,0.65063,0.06738,0.86108,0.794,3.366,0.389
2026-06-26 14:36:38.863,73171023,244863,2,0.9668,-0.32739,-0.18408,1.168,2.282,-0.58
2026-06-26 14:36:38.063,73170223,245063,1,0.64966,0.0686,0.85718,0.038,2.565,-0.634
2026-06-26 14:36:38.063,73170223,245063,2,0.97803,-0.32983,-0.18359,-0.061,1.496,-0.679
2026-06-26 14:36:38.263,73170423,245263,1,0.64868,0.07544,0.85059,1.145,3.389,1.389
2026-06-26 14:36:38.263,73170423,245263,2,0.97583,-0.32446,-0.18726,1.015,2.405,-0.855
2026-06-26 14:36:38.263,73170423,245263,2,0.97583,-0.32446,-0.18726,1.015,2.405,-0.855
2026-06-26 14:36:43.394,73175554,250394,1,0.63965,0.07349,0.86011,0.137,2.756,0.695
2026-06-26 14:36:43.394,73175554,250394,2,0.97339,-0.33301,-0.18066,1.115,0.29,0.122
2026-06-26 14:36:44.594,73176754,250594,1,0.64429,0.06177,0.85132,0.87,2.527,0.916
2026-06-26 14:36:44.594,73176754,250594,2,0.97144,-0.32593,-0.18359,0.321,2.45,-0.954
2026-06-26 14:36:44.794,73176954,250794,1,0.63892,0.06567,0.86328,0.565,3.282,0.87
2026-06-26 14:36:44.794,73176954,250794,2,0.96436,-0.32568,-0.18433,2.069,0.847,-0.817
2026-06-26 14:36:44.994,73177154,250994,1,0.63403,0.06934,0.86938,1.878,0.733,1.053
2026-06-26 14:36:44.994,73177154,250994,2,0.98584,-0.32007,-0.18066,3.557,-2.145,-0.26
2026-06-26 14:36:44.194,73176354,251194,1,0.63867,0.0542,0.85596,-1.649,-0.084,-3.183
2026-06-26 14:36:44.194,73176354,251194,2,0.9668,-0.34253,-0.19556,-2.618,0.595,0.076
2026-06-26 14:36:44.421,73176581,251421,1,0.63086,0.07275,0.85181,1.618,3.641,0.71
2026-06-26 14:36:44.421,73176581,251421,2,0.97388,-0.33276,-0.19946,5.252,-1.954,0.573
2026-06-26 14:36:45.621,73177781,251621,1,0.65332,0.04517,0.85547,-3.29,6.198,-2.473
2026-06-26 14:36:45.621,73177781,251621,2,0.96094,-0.33276,-0.19409,0.351,0.924,-1.191
2026-06-26 14:36:45.046,73177206,252045,1,0.63721,0.08423,0.86475,1.504,3.069,0.183
2026-06-26 14:36:45.046,73177206,252045,2,0.96997,-0.33276,-0.18994,1.473,2.656,-0.901
2026-06-26 14:36:45.245,73177405,252245,1,0.62256,0.06982,0.86914,-0.565,-0.16,1.328
2026-06-26 14:36:45.245,73177405,252245,2,0.97949,-0.3335,-0.17749,-2.847,2.344,0.695
2026-06-26 14:36:45.445,73177605,252445,1,0.63965,0.06836,0.87231,0.58,1.969,3.397
2026-06-26 14:36:45.445,73177605,252445,2,0.96533,-0.33179,-0.18848,2.45,-0.298,1.0
2026-06-26 14:36:46.645,73178805,252645,1,0.63403,0.04663,0.8623,0.092,1.924,1.832
2026-06-26 14:36:46.645,73178805,252645,2,0.96973,-0.34399,-0.18774,0.802,2.618,-0.588
2026-06-26 14:36:46.845,73179005,252845,1,0.64111,0.05176,0.86963,2.115,2.702,0.885
2026-06-26 14:36:46.845,73179005,252845,2,0.9751,-0.34155,-0.1748,0.351,1.908,-1.496
2026-06-26 14:36:46.045,73178205,253045,1,0.63086,0.06201,0.87305,2.183,4.29,0.519
2026-06-26 14:36:46.045,73178205,253045,2,0.97583,-0.34204,-0.18164,0.718,2.29,-1.55
2026-06-26 14:36:46.045,73178205,253045,2,0.97583,-0.34204,-0.18164,0.718,2.29,-1.55
2026-06-26 14:36:51.185,73183345,258185,1,0.62427,0.06982,0.86523,1.351,2.466,1.42
2026-06-26 14:36:51.185,73183345,258185,1,0.62427,0.06982,0.86523,1.351,2.466,1.42
2026-06-26 14:36:51.185,73183345,258185,2,0.97485,-0.32959,-0.18042,0.45,1.237,-0.382
2026-06-26 14:36:57.507,73189667,263507,1,0.63818,0.0686,0.85376,0.542,2.191,0.092
2026-06-26 14:36:57.507,73189667,263507,2,0.97241,-0.3252,-0.19336,0.87,1.878,-0.58
2026-06-26 14:36:57.707,73189867,263707,1,0.63574,0.06104,0.86108,0.626,2.443,0.267
2026-06-26 14:36:57.707,73189867,263707,2,0.97339,-0.32593,-0.20068,1.634,1.924,-0.855
2026-06-26 14:36:57.907,73190067,263907,1,0.63184,0.06128,0.8667,0.466,2.603,0.603
2026-06-26 14:36:57.907,73190067,263907,1,0.63184,0.06128,0.8667,0.466,2.603,0.603
2026-06-26 14:36:57.907,73190067,263907,2,0.96899,-0.32593,-0.18506,1.282,1.198,-1.099
2026-06-26 14:37:02.118,73194278,269118,1,0.63013,0.08447,0.86621,0.679,0.916,-0.26
2026-06-26 14:37:02.118,73194278,269118,2,0.98047,-0.32642,-0.19434,1.328,1.542,-0.405
2026-06-26 14:37:02.318,73194478,269318,1,0.64575,0.07324,0.85864,2.481,3.244,1.656
2026-06-26 14:37:02.318,73194478,269318,2,0.98071,-0.31982,-0.19067,3.336,0.977,-0.359
2026-06-26 14:37:03.536,73195696,269536,1,0.64111,0.06689,0.86865,0.321,1.817,0.527
2026-06-26 14:37:03.536,73195696,269536,2,0.96655,-0.33862,-0.1814,0.275,2.046,-0.695
2026-06-26 14:37:03.736,73195896,269736,1,0.64478,0.06177,0.86279,0.405,1.084,-0.13
2026-06-26 14:37:03.736,73195896,269736,2,0.97217,-0.32666,-0.18408,4.565,2.542,-0.908
2026-06-26 14:37:03.936,73196096,269936,1,0.63232,0.06421,0.86328,1.588,2.809,1.344
2026-06-26 14:37:03.936,73196096,269936,2,0.96826,-0.3291,-0.19165,2.351,1.641,-0.595
2026-06-26 14:37:03.159,73195319,270159,1,0.62695,0.06909,0.86426,-0.153,4.023,0.863
2026-06-26 14:37:03.159,73195319,270159,2,0.97412,-0.33154,-0.19336,-0.588,1.519,-0.832
2026-06-26 14:37:03.359,73195519,270359,1,0.6333,0.05176,0.86743,-1.55,1.496,-3.137
2026-06-26 14:37:03.359,73195519,270359,2,0.96997,-0.31396,-0.18945,-0.321,1.206,-0.214
2026-06-26 14:37:04.559,73196719,270559,1,0.63013,0.05444,0.86914,0.74,1.443,1.458
2026-06-26 14:37:04.559,73196719,270559,2,0.97632,-0.32617,-0.19116,0.42,0.534,-0.176
2026-06-26 14:37:04.759,73196919,270759,1,0.63525,0.05737,0.85596,1.496,1.939,1.412
2026-06-26 14:37:04.759,73196919,270759,2,0.98193,-0.33325,-0.19165,-0.504,1.252,-0.824
2026-06-26 14:37:04.002,73196162,271002,1,0.63892,0.07056,0.86841,-1.84,1.679,-2.588
2026-06-26 14:37:04.002,73196162,271002,2,0.97461,-0.32373,-0.19263,-0.519,2.679,-0.45
2026-06-26 14:37:04.202,73196362,271202,1,0.63696,0.07056,0.85474,-0.206,2.824,-1.802
2026-06-26 14:37:04.202,73196362,271202,2,0.96362,-0.34155,-0.19287,-0.466,0.779,0.382
2026-06-26 14:37:04.402,73196562,271402,1,0.63818,0.05835,0.86328,1.924,1.168,0.771
2026-06-26 14:37:04.402,73196562,271402,2,0.96973,-0.32544,-0.19238,2.038,0.679,-1.397
2026-06-26 14:37:05.622,73197782,271621,1,0.62817,0.07178,0.87012,1.008,2.71,0.565
2026-06-26 14:37:05.622,73197782,271621,2,0.97778,-0.32666,-0.18921,-1.282,2.038,0.107
2026-06-26 14:37:05.902,73198062,271902,1,0.62866,0.08228,0.86133,1.221,2.924,0.466
2026-06-26 14:37:05.902,73198062,271902,2,0.97241,-0.3313,-0.18652,0.092,2.374,-0.679
2026-06-26 14:37:05.118,73197278,272118,1,0.63281,0.07227,0.86743,-0.244,2.496,0.992
2026-06-26 14:37:05.118,73197278,272118,2,0.96997,-0.3186,-0.19727,6.282,2.718,-2.229
2026-06-26 14:37:05.318,73197478,272318,1,0.62329,0.07446,0.86426,2.214,3.427,0.679
2026-06-26 14:37:05.318,73197478,272318,2,0.97876,-0.32324,-0.1958,3.588,1.542,-1.366
2026-06-26 14:37:06.518,73198678,272518,1,0.62842,0.06616,0.86694,-0.427,3.076,-0.695
2026-06-26 14:37:06.518,73198678,272518,2,0.97241,-0.33643,-0.20605,-2.122,0.305,0.885
2026-06-26 14:37:06.763,73198923,272763,1,0.63159,0.06104,0.86377,1.0,-0.626,-1.038
2026-06-26 14:37:06.763,73198923,272763,2,0.97437,-0.33203,-0.20166,0.71,2.473,-2.115
2026-06-26 14:37:06.963,73199123,272963,1,0.63916,0.0835,0.86011,-2.023,3.008,-3.252
2026-06-26 14:37:06.963,73199123,272963,2,0.97119,-0.32983,-0.2019,2.718,0.679,1.237
2026-06-26 14:37:06.163,73198323,273163,1,0.63721,0.06079,0.86816,2.031,3.809,3.481
2026-06-26 14:37:06.163,73198323,273163,2,0.96631,-0.32861,-0.18726,0.702,4.244,-2.313
2026-06-26 14:37:06.363,73198523,273363,1,0.62671,0.09106,0.87061,-0.786,0.45,0.031
2026-06-26 14:37:06.363,73198523,273363,2,0.97119,-0.33032,-0.20044,0.542,-0.679,2.282
2026-06-26 14:37:07.563,73199723,273563,1,0.64697,0.02808,0.85059,-0.817,2.183,-1.137
2026-06-26 14:37:07.563,73199723,273563,2,0.97876,-0.35718,-0.2063,16.305,-5.534,-6.733
2026-06-26 14:37:07.959,73200119,273958,1,0.65186,0.05908,0.86084,11.366,4.824,9.389
2026-06-26 14:37:07.959,73200119,273958,2,0.96509,-0.33374,-0.20313,17.282,-2.481,-7.389
2026-06-26 14:37:07.210,73199370,274209,1,0.62231,0.1106,0.85376,11.099,5.252,12.977
2026-06-26 14:37:07.210,73199370,274209,2,0.98047,-0.31885,-0.1792,22.397,-4.748,-0.206
2026-06-26 14:37:07.409,73199569,274409,1,0.60938,0.18677,0.8728,5.099,9.527,13.687
2026-06-26 14:37:07.409,73199569,274409,2,0.98828,-0.21777,-0.21753,-7.641,1.977,5.084
2026-06-26 14:37:08.627,73200787,274627,1,0.65112,0.15674,0.86011,-14.893,-7.534,-15.137
2026-06-26 14:37:08.627,73200787,274627,2,1.03369,-0.35254,-0.20215,-8.099,-8.985,13.107
2026-06-26 14:37:08.834,73200994,274834,1,0.62891,0.05762,0.84863,-7.015,5.511,-12.947
2026-06-26 14:37:08.834,73200994,274834,2,0.9646,-0.31934,-0.21143,-22.076,14.244,-2.038
2026-06-26 14:37:08.034,73200194,275034,1,0.63647,0.06909,0.85693,-13.405,-3.313,-21.405
2026-06-26 14:37:08.034,73200194,275034,2,0.97021,-0.35425,-0.16846,-18.832,6.382,4.351
2026-06-26 14:37:08.234,73200394,275234,1,0.64795,0.05005,0.85864,-9.061,2.618,-14.0
2026-06-26 14:37:08.234,73200394,275234,2,0.96338,-0.37598,-0.17651,-13.756,9.076,5.893
2026-06-26 14:37:08.442,73200602,275441,1,0.64355,-0.00391,0.86084,-11.481,6.237,-12.542
2026-06-26 14:37:08.442,73200602,275441,2,0.92334,-0.4397,-0.19653,-12.985,4.45,5.718
2026-06-26 14:37:09.641,73201801,275641,1,0.63452,-0.05591,0.85498,0.267,-1.756,5.87
2026-06-26 14:37:09.641,73201801,275641,2,0.91504,-0.44214,-0.21338,8.626,-11.122,-4.695
2026-06-26 14:37:09.841,73202001,275841,1,0.64038,0.05933,0.8208,12.908,15.16,18.336
2026-06-26 14:37:09.841,73202001,275841,2,0.94141,-0.37866,-0.17212,6.901,-19.954,3.229
2026-06-26 14:37:09.057,73201217,276057,1,0.64233,0.03101,0.83667,14.55,3.282,17.992
2026-06-26 14:37:09.057,73201217,276057,2,0.97754,-0.33301,-0.20117,11.099,3.794,-11.099
2026-06-26 14:37:09.257,73201417,276257,1,0.646,0.07324,0.85181,9.13,3.817,7.061
2026-06-26 14:37:09.257,73201417,276257,2,0.98364,-0.33618,-0.20142,14.206,-5.092,-1.107
2026-06-26 14:37:09.457,73201617,276457,1,0.6311,0.14502,0.84839,9.466,8.931,9.092
2026-06-26 14:37:09.457,73201617,276457,2,0.97412,-0.19385,-0.19604,23.863,3.885,-2.725
2026-06-26 14:37:10.657,73202817,276657,1,0.67749,0.16528,0.88599,0.008,-12.802,-9.634
2026-06-26 14:37:10.657,73202817,276657,2,0.99365,-0.36108,-0.19409,-3.015,-3.733,7.962
2026-06-26 14:37:10.857,73203017,276857,1,0.68359,0.05688,0.83154,-15.244,-0.756,-13.855
2026-06-26 14:37:10.857,73203017,276857,2,0.94824,-0.35376,-0.20264,-15.931,9.198,8.641
2026-06-26 14:37:10.057,73202217,277057,1,0.6311,0.00024,0.8418,-8.42,2.702,-6.336
2026-06-26 14:37:10.057,73202217,277057,2,0.95288,-0.38257,-0.18115,-6.603,4.038,2.634
2026-06-26 14:37:10.257,73202417,277257,1,0.65503,-0.00464,0.85498,0.412,1.748,-1.275
2026-06-26 14:37:10.257,73202417,277257,2,0.95605,-0.37427,-0.18164,0.527,-1.489,-2.229
2026-06-26 14:37:10.457,73202617,277457,1,0.66064,0.03052,0.85767,6.206,2.45,1.282
2026-06-26 14:37:10.457,73202617,277457,2,0.9563,-0.32617,-0.19849,0.695,-0.176,-4.16
2026-06-26 14:37:11.686,73203846,277686,1,0.64209,0.06177,0.83716,6.397,0.168,1.221
2026-06-26 14:37:11.686,73203846,277686,2,0.97754,-0.31982,-0.18872,3.321,-0.435,-4.031
2026-06-26 14:37:11.906,73204066,277906,1,0.6687,0.07349,0.82983,2.45,1.763,3.443
2026-06-26 14:37:11.906,73204066,277906,2,0.96558,-0.30884,-0.21289,-2.603,1.947,-1.061
2026-06-26 14:37:11.106,73203266,278106,1,0.65894,0.07471,0.83545,0.71,1.916,3.0
2026-06-26 14:37:11.106,73203266,278106,2,0.98486,-0.29712,-0.22583,1.305,0.214,0.122
2026-06-26 14:37:11.306,73203466,278306,1,0.65845,0.06323,0.84863,0.588,2.634,1.847
2026-06-26 14:37:11.306,73203466,278306,2,0.96948,-0.31079,-0.22119,1.16,-0.618,1.58
2026-06-26 14:37:12.506,73204666,278506,1,0.67041,0.06055,0.83887,-0.183,2.061,-0.13
2026-06-26 14:37:12.506,73204666,278506,2,0.97119,-0.32861,-0.20947,1.58,1.206,1.641
2026-06-26 14:37:12.809,73204969,278808,1,0.66431,0.0564,0.8457,-0.092,5.313,2.145
2026-06-26 14:37:12.809,73204969,278808,2,0.96631,-0.33081,-0.20288,3.809,2.344,0.458
2026-06-26 14:37:12.008,73204168,279008,1,0.64673,0.03735,0.84863,0.267,4.397,1.099
2026-06-26 14:37:12.008,73204168,279008,2,0.96094,-0.3457,-0.19873,0.313,0.412,-0.687
2026-06-26 14:37:12.252,73204412,279252,1,0.64185,0.05298,0.8457,1.863,2.191,-1.206
2026-06-26 14:37:12.252,73204412,279252,2,0.97583,-0.34814,-0.21777,-0.038,1.237,-2.687
2026-06-26 14:37:13.522,73205682,279522,1,0.64575,0.07324,0.85376,2.153,2.214,-0.206
2026-06-26 14:37:13.522,73205682,279522,2,0.96606,-0.33203,-0.20386,-2.779,1.061,-0.359
2026-06-26 14:37:13.722,73205882,279722,1,0.6543,0.06738,0.85913,-2.473,0.679,-2.557
2026-06-26 14:37:13.722,73205882,279722,2,0.96826,-0.34131,-0.20947,-0.771,-0.466,2.038
2026-06-26 14:37:13.922,73206082,279922,1,0.65649,0.06396,0.84814,-2.26,1.298,-0.962
2026-06-26 14:37:13.922,73206082,279922,2,0.95801,-0.34204,-0.20703,0.176,4.107,0.069
2026-06-26 14:37:13.122,73205282,280122,1,0.6626,0.05933,0.85547,,2.626,0.534
2026-06-26 14:37:13.122,73205282,280122,2,0.96436,-0.34399,-0.20605,1.985,0.718,-0.115
2026-06-26 14:37:13.324,73205484,280323,1,0.64819,0.04395,0.8562,2.237,2.16,2.107
2026-06-26 14:37:13.324,73205484,280323,2,0.96558,-0.35132,-0.21143,1.031,1.382,-2.145
2026-06-26 14:37:14.523,73206683,280523,1,0.66187,0.05078,0.84692,2.74,3.053,2.458
2026-06-26 14:37:14.523,73206683,280523,2,0.96436,-0.33911,-0.20142,1.939,1.206,-1.122
2026-06-26 14:37:14.723,73206883,280723,1,0.65503,0.05664,0.85449,1.679,3.626,1.084
2026-06-26 14:37:14.723,73206883,280723,2,0.95923,-0.33472,-0.20166,0.481,1.168,-1.321
2026-06-26 14:37:14.962,73207122,280962,1,0.65527,0.05933,0.84692,2.557,2.366,0.863
2026-06-26 14:37:14.962,73207122,280962,2,0.95752,-0.34399,-0.21362,1.16,1.634,-1.015
2026-06-26 14:37:14.162,73206322,281162,1,0.65527,0.04761,0.8418,3.565,3.359,1.939
2026-06-26 14:37:14.162,73206322,281162,2,0.96704,-0.34644,-0.21118,6.29,1.695,-2.718
2026-06-26 14:37:14.362,73206522,281362,1,0.64917,0.05737,0.84473,5.481,3.962,4.015
2026-06-26 14:37:14.362,73206522,281362,2,0.96826,-0.36353,-0.19482,4.305,-0.122,-2.092
2026-06-26 14:37:15.562,73207722,281562,1,0.64038,0.04175,0.85547,3.351,2.481,4.718
2026-06-26 14:37:15.562,73207722,281562,2,0.96216,-0.35645,-0.20239,7.939,-1.405,-3.168
2026-06-26 14:37:15.762,73207922,281762,1,0.63574,0.0686,0.85376,6.435,4.496,6.183
2026-06-26 14:37:15.762,73207922,281762,2,0.95215,-0.35352,-0.20361,10.092,-2.71,-0.183
2026-06-26 14:37:15.962,73208122,281962,1,0.64819,0.0603,0.85913,2.588,3.74,6.336
2026-06-26 14:37:15.962,73208122,281962,2,0.96533,-0.32642,-0.19092,7.458,3.824,-0.496
2026-06-26 14:37:15.162,73207322,282162,1,0.64575,0.0835,0.854,2.45,6.122,4.802
2026-06-26 14:37:15.162,73207322,282162,2,0.98535,-0.29785,-0.20166,11.16,1.0,-6.351
2026-06-26 14:37:16.536,73208696,282536,1,0.66748,0.09985,0.84277,3.771,-0.496,4.16
2026-06-26 14:37:16.536,73208696,282536,2,0.99561,-0.28711,-0.19165,17.198,-6.214,-1.489
2026-06-26 14:37:16.736,73208896,282736,1,0.66309,0.15552,0.82788,7.786,-0.779,9.206
2026-06-26 14:37:16.736,73208896,282736,2,0.979,-0.25562,-0.23755,-9.748,1.496,-2.908
2026-06-26 14:37:16.974,73209134,282974,1,0.68555,0.1272,0.8396,-4.74,-4.908,-10.893
2026-06-26 14:37:16.974,73209134,282974,2,0.9917,-0.34229,-0.23999,-4.985,-1.618,-2.275
2026-06-26 14:37:16.174,73208334,283174,1,0.6582,0.09888,0.82788,-1.71,4.679,-3.198
2026-06-26 14:37:16.174,73208334,283174,2,0.95142,-0.35449,-0.23828,-2.122,-0.153,1.71
2026-06-26 14:37:16.374,73208534,283374,1,0.67114,0.0481,0.87354,-0.061,4.893,0.672
2026-06-26 14:37:16.374,73208534,283374,2,0.97729,-0.34106,-0.19482,-3.092,11.695,0.076
2026-06-26 14:37:17.580,73209740,283580,1,0.59424,0.06909,0.87085,-4.58,2.26,-1.84
2026-06-26 14:37:17.580,73209740,283580,2,0.95825,-0.37451,-0.19434,4.069,-2.718,3.191
2026-06-26 14:37:17.780,73209940,283780,1,0.67261,0.09106,0.8291,1.26,1.649,3.565
2026-06-26 14:37:17.780,73209940,283780,2,0.96143,-0.33154,-0.22485,5.885,4.786,2.008
2026-06-26 14:37:17.980,73210140,283980,1,0.6687,0.08838,0.82642,3.015,6.519,5.794
2026-06-26 14:37:17.980,73210140,283980,2,0.95044,-0.33374,-0.25635,7.756,-0.504,3.069
2026-06-26 14:37:17.220,73209380,284220,1,0.67163,0.09473,0.83618,-0.443,3.435,1.641
2026-06-26 14:37:17.220,73209380,284220,2,0.95117,-0.33691,-0.2417,-1.359,3.053,-1.702
2026-06-26 14:37:17.427,73209587,284426,1,0.65967,0.10303,0.82593,1.275,0.885,-2.794
2026-06-26 14:37:17.427,73209587,284426,2,0.94019,-0.32007,-0.26587,-9.26,1.969,-3.756
2026-06-26 14:37:18.626,73210786,284626,1,0.67969,0.10791,0.81445,-0.756,-7.756,-8.855
2026-06-26 14:37:18.626,73210786,284626,2,0.94141,-0.32202,-0.27808,-5.595,-6.969,-1.794
2026-06-26 14:37:18.826,73210986,284826,1,0.70337,0.11206,0.81348,2.656,-6.733,-5.817
2026-06-26 14:37:18.826,73210986,284826,2,0.93628,-0.33569,-0.29492,-5.786,-5.298,-3.817
2026-06-26 14:37:18.035,73210195,285035,1,0.72314,0.11353,0.79224,5.656,-1.183,0.336
2026-06-26 14:37:18.035,73210195,285035,2,0.95166,-0.32202,-0.29614,5.802,-3.565,-4.87
2026-06-26 14:37:18.235,73210395,285235,1,0.6687,0.16699,0.81616,6.939,4.145,6.901
2026-06-26 14:37:18.235,73210395,285235,2,0.93555,-0.29028,-0.28101,7.702,-3.924,2.969
2026-06-26 14:37:18.435,73210595,285435,1,0.66455,0.1582,0.82471,-7.824,5.908,-2.145
2026-06-26 14:37:18.435,73210595,285435,2,0.96289,-0.28345,-0.31763,-6.153,1.786,1.183
2026-06-26 14:37:19.635,73211795,285635,1,0.70142,0.14258,0.77417,0.519,0.534,1.443
2026-06-26 14:37:19.635,73211795,285635,2,0.88403,-0.30786,-0.32495,8.611,-3.992,3.649
2026-06-26 14:37:19.835,73211995,285835,1,0.72876,0.12378,0.76074,6.626,-5.008,13.42
2026-06-26 14:37:19.835,73211995,285835,2,0.91846,-0.31519,-0.36963,9.244,-5.092,-1.038
2026-06-26 14:37:19.131,73211291,286131,1,0.78857,0.09863,0.72656,2.26,1.023,4.649
2026-06-26 14:37:19.131,73211291,286131,2,0.88379,-0.33984,-0.36987,7.87,-1.649,-2.244
2026-06-26 14:37:19.331,73211491,286331,1,0.80054,0.07593,0.75,3.084,1.382,5.282
2026-06-26 14:37:19.331,73211491,286331,2,0.9126,-0.29028,-0.35767,-5.427,7.359,-5.305
2026-06-26 14:37:20.566,73212726,286566,1,0.78687,0.09375,0.74146,4.099,5.985,2.733
2026-06-26 14:37:20.566,73212726,286566,2,0.91382,-0.32373,-0.34814,-0.985,8.321,-2.878
2026-06-26 14:37:20.766,73212926,286766,1,0.76172,0.10962,0.74951,2.046,9.664,-1.466
2026-06-26 14:37:20.766,73212926,286766,2,0.92383,-0.29395,-0.32983,0.153,10.382,-6.092
2026-06-26 14:37:20.966,73213126,286966,1,0.74048,0.10254,0.76294,9.672,4.565,5.26
2026-06-26 14:37:20.966,73213126,286966,2,0.94434,-0.31201,-0.31836,9.588,0.473,-7.763
2026-06-26 14:37:20.193,73212353,287192,1,0.74927,0.11523,0.76465,8.893,6.328,9.076
2026-06-26 14:37:20.193,73212353,287192,2,0.93384,-0.29541,-0.30469,19.954,0.588,-8.885
2026-06-26 14:37:20.392,73212552,287392,1,0.72217,0.14453,0.79248,13.374,7.634,9.855
2026-06-26 14:37:20.392,73212552,287392,2,0.95923,-0.26636,-0.28003,-3.557,5.87,-3.023
2026-06-26 14:37:21.592,73213752,287592,1,0.68872,0.13647,0.79395,-1.137,3.443,-2.855
2026-06-26 14:37:21.592,73213752,287592,2,0.95508,-0.28125,-0.28662,-7.466,7.962,-0.809
2026-06-26 14:37:21.792,73213952,287792,1,0.70972,0.14502,0.7915,0.71,1.626,-4.878
2026-06-26 14:37:21.792,73213952,287792,2,0.99487,-0.27808,-0.25903,-4.58,6.55,-1.71
2026-06-26 14:37:21.992,73214152,287992,1,0.64697,0.15015,0.81909,4.427,6.824,-0.939
2026-06-26 14:37:21.992,73214152,287992,2,0.96167,-0.25146,-0.2439,6.061,-4.969,1.099
2026-06-26 14:37:21.192,73213352,288192,1,0.71021,0.22363,0.77832,-1.847,-0.916,0.031
2026-06-26 14:37:21.192,73213352,288192,2,0.94995,-0.27979,-0.27905,-5.794,0.557,3.16
2026-06-26 14:37:21.416,73213576,288416,1,0.72534,0.15112,0.78247,-4.031,-3.863,-5.351
2026-06-26 14:37:21.416,73213576,288416,2,0.94775,-0.2854,-0.29102,-2.947,-3.733,4.763
2026-06-26 14:37:22.616,73214776,288616,1,0.73071,0.13989,0.77002,-1.809,-2.176,-4.527
2026-06-26 14:37:22.616,73214776,288616,2,0.93701,-0.29395,-0.31665,1.382,-3.603,2.26
2026-06-26 14:37:22.816,73214976,288816,1,0.73926,0.16724,0.76709,-3.832,-0.053,-3.588
2026-06-26 14:37:22.816,73214976,288816,2,0.93579,-0.28149,-0.33105,-2.275,-1.328,1.618
2026-06-26 14:37:22.039,73214199,289039,1,0.73633,0.1709,0.7666,-0.939,-1.305,-1.076
2026-06-26 14:37:22.039,73214199,289039,2,0.92505,-0.29126,-0.33008,-0.466,-2.473,2.084
2026-06-26 14:37:22.239,73214399,289239,1,0.75708,0.16016,0.75415,-2.443,2.031,0.13
2026-06-26 14:37:22.239,73214399,289239,2,0.92163,-0.28271,-0.35718,-1.779,2.336,1.221
2026-06-26 14:37:22.439,73214599,289439,1,0.74731,0.15234,0.7605,2.267,3.557,0.519
2026-06-26 14:37:22.439,73214599,289439,1,0.74731,0.15234,0.7605,2.267,3.557,0.519
2026-06-26 14:37:22.439,73214599,289439,2,0.89819,-0.33569,-0.3667,-0.702,3.733,-2.221
2026-06-26 14:37:28.618,73220778,294618,1,0.75415,0.11548,0.76318,-3.466,5.336,-5.718
2026-06-26 14:37:28.618,73220778,294618,2,0.90601,-0.31226,-0.34497,-10.168,10.198,-2.725
2026-06-26 14:37:28.835,73220995,294835,1,0.75293,0.12476,0.75806,-6.389,2.916,-5.511
2026-06-26 14:37:28.835,73220995,294835,2,0.91943,-0.31006,-0.32837,-4.405,7.672,-2.863
2026-06-26 14:37:28.037,73220197,295036,1,0.76978,0.12769,0.77832,-4.687,6.42,-3.748
2026-06-26 14:37:28.037,73220197,295036,2,0.93188,-0.2832,-0.33594,-4.145,10.481,-1.519
2026-06-26 14:37:28.443,73220603,295443,1,0.69824,0.10693,0.80005,-7.069,14.336,-3.328
2026-06-26 14:37:28.443,73220603,295443,2,0.93774,-0.32495,-0.22974,-3.458,14.389,3.374
2026-06-26 14:37:29.744,73221904,295744,1,0.58716,0.05664,0.86572,7.565,0.756,5.878
2026-06-26 14:37:29.744,73221904,295744,2,0.9707,-0.31006,-0.19751,-2.557,-5.885,0.458
2026-06-26 14:37:29.944,73222104,295944,1,0.75659,0.05786,0.81201,8.084,1.87,-2.374
2026-06-26 14:37:29.944,73222104,295944,2,1.00439,-0.34961,-0.27856,0.695,4.771,-5.45
2026-06-26 14:37:29.179,73221339,296179,1,0.65601,0.09375,0.84717,2.718,-0.328,-5.687
2026-06-26 14:37:29.179,73221339,296179,2,0.96558,-0.31714,-0.19702,-4.45,2.87,-2.916
2026-06-26 14:37:29.460,73221620,296460,1,0.68896,0.1272,0.84204,-0.031,7.847,2.038
2026-06-26 14:37:29.460,73221620,296460,2,0.98218,-0.22729,-0.2063,13.725,10.282,-3.397
2026-06-26 14:37:30.712,73222872,296711,1,0.62085,0.2207,0.87354,-5.504,2.824,-3.183
2026-06-26 14:37:30.712,73222872,296711,2,0.98535,-0.16602,-0.20361,-10.924,8.557,2.809
2026-06-26 14:37:30.911,73223071,296911,1,0.66064,0.16113,0.84155,-17.618,-9.779,-15.809
2026-06-26 14:37:30.911,73223071,296911,2,0.95752,-0.31543,-0.21289,-30.519,25.725,-0.55
2026-06-26 14:37:30.147,73222307,297147,1,0.64087,0.08325,0.87061,-9.756,1.611,-12.267
2026-06-26 14:37:30.147,73222307,297147,2,1.00122,-0.3103,-0.125,-16.695,20.824,1.542
2026-06-26 14:37:30.359,73222519,297359,1,0.58691,0.0498,0.87671,-17.412,22.389,-21.252
2026-06-26 14:37:30.359,73222519,297359,2,1.00317,-0.44189,-0.09644,-26.435,20.45,13.939
2026-06-26 14:37:31.559,73223719,297559,1,0.56616,-0.09253,0.87671,-7.122,8.427,1.649
2026-06-26 14:37:31.559,73223719,297559,2,0.94287,-0.5354,-0.13574,10.427,-13.481,3.115
2026-06-26 14:37:31.759,73223919,297759,1,0.56226,,0.96143,26.038,31.29,38.786
2026-06-26 14:37:31.759,73223919,297759,2,0.8479,-0.38867,-0.07153,-23.015,-16.779,-8.168
2026-06-26 14:37:31.966,73224126,297966,1,0.54126,0.06519,0.89697,22.16,11.962,27.748
2026-06-26 14:37:31.966,73224126,297966,2,1.05029,-0.16675,-0.09521,29.489,-2.069,0.267
2026-06-26 14:37:31.288,73223448,298288,1,0.57324,0.18579,0.92285,-3.519,-23.069,-5.122
2026-06-26 14:37:31.288,73223448,298288,2,0.9873,-0.30859,-0.10522,-12.321,-11.275,0.275
2026-06-26 14:37:32.651,73224811,298651,1,0.58325,0.01392,0.90381,-9.221,-2.427,-7.931
2026-06-26 14:37:32.651,73224811,298651,2,0.95166,-0.37744,-0.13403,-9.878,-0.588,3.305
2026-06-26 14:37:32.856,73225016,298856,1,0.59229,0.01733,0.89478,2.565,-1.466,0.87
2026-06-26 14:37:32.856,73225016,298856,2,0.96265,-0.3667,-0.15649,0.672,-3.542,-4.313
2026-06-26 14:37:32.056,73224216,299056,1,0.61157,0.06055,0.87915,5.519,-1.42,4.679
2026-06-26 14:37:32.056,73224216,299056,2,0.98022,-0.34277,-0.18042,4.336,-0.29,-2.84
2026-06-26 14:37:32.257,73224417,299257,1,0.60596,0.07739,0.87012,2.664,0.565,2.725
2026-06-26 14:37:32.257,73224417,299257,2,0.98193,-0.33252,-0.1897,-0.626,0.473,1.336
2026-06-26 14:37:32.457,73224617,299457,1,0.6394,0.06299,0.87231,1.252,4.244,-0.664
2026-06-26 14:37:32.457,73224617,299457,2,0.96948,-0.32861,-0.1687,0.015,1.855,-0.359
2026-06-26 14:37:33.734,73225894,299734,1,0.6228,0.06079,0.8728,-0.214,1.939,-1.534
2026-06-26 14:37:33.734,73225894,299734,2,0.9873,-0.34058,-0.16577,-1.076,2.985,-0.16
2026-06-26 14:37:33.934,73226094,299934,1,0.61938,0.0542,0.86499,0.366,4.802,0.511
2026-06-26 14:37:33.934,73226094,299934,2,0.97388,-0.33569,-0.16235,0.771,3.885,0.015
2026-06-26 14:37:33.134,73225294,300134,1,0.60132,0.05298,0.87524,2.489,1.885,1.786
2026-06-26 14:37:33.134,73225294,300134,2,0.98633,-0.33374,-0.14893,-0.664,2.511,-0.817
2026-06-26 14:37:33.361,73225521,300361,1,0.60645,0.06714,0.8811,1.786,1.008,1.008
2026-06-26 14:37:33.361,73225521,300361,2,0.98755,-0.33936,-0.17432,4.405,1.45,-0.87
2026-06-26 14:37:34.561,73226721,300561,1,0.62598,0.06616,0.88013,2.649,0.076,2.664
2026-06-26 14:37:34.561,73226721,300561,2,0.98438,-0.33032,-0.16333,1.748,0.153,-1.534
2026-06-26 14:37:34.761,73226921,300761,1,0.61548,0.07593,0.86914,1.176,2.023,1.74
2026-06-26 14:37:34.761,73226921,300761,2,0.97925,-0.33325,-0.18384,1.733,1.962,-1.092
2026-06-26 14:37:34.961,73227121,300961,1,0.62695,0.07861,0.86743,0.565,2.824,0.321
2026-06-26 14:37:34.961,73227121,300961,2,0.97876,-0.3291,-0.16016,-0.405,0.71,-1.0
2026-06-26 14:37:34.161,73226321,301161,1,0.61499,0.07056,0.86963,1.153,0.87,-0.336
2026-06-26 14:37:34.161,73226321,301161,2,0.98047,-0.3291,-0.16089,0.115,-0.74,0.031
2026-06-26 14:37:34.361,73226521,301361,1,0.62354,0.07251,0.87158,0.168,0.084,-0.221
2026-06-26 14:37:34.361,73226521,301361,2,0.98145,-0.33154,-0.17676,-2.099,-0.359,-0.168
2026-06-26 14:37:35.561,73227721,301561,1,0.62939,0.06982,0.86548,-1.0,1.328,0.397
2026-06-26 14:37:35.561,73227721,301561,2,0.98584,-0.3374,-0.17505,0.573,0.046,-0.473
2026-06-26 14:37:35.761,73227921,301761,1,0.6355,0.06665,0.86401,0.015,2.687,0.313
2026-06-26 14:37:35.761,73227921,301761,2,0.97461,-0.3313,-0.18481,1.412,2.038,-0.626
2026-06-26 14:37:35.961,73228121,301961,1,0.62939,0.06714,0.86426,-0.344,3.534,-0.511
2026-06-26 14:37:35.961,73228121,301961,2,0.96533,-0.32446,-0.18994,0.145,1.901,-0.42
2026-06-26 14:37:35.161,73227321,302161,1,0.62915,0.07129,0.86108,0.58,2.878,0.198
2026-06-26 14:37:35.161,73227321,302161,2,0.97827,-0.3313,-0.1958,0.763,0.718,-0.206
2026-06-26 14:37:35.361,73227521,302361,1,0.63403,0.06274,0.86597,1.031,2.595,0.389
2026-06-26 14:37:35.361,73227521,302361,2,0.96655,-0.32764,-0.19263,-0.053,2.374,-0.817
2026-06-26 14:37:36.561,73228721,302561,1,0.63696,0.06396,0.85547,1.176,2.74,-0.076
2026-06-26 14:37:36.561,73228721,302561,2,0.97681,-0.32886,-0.16382,1.366,2.687,-1.344
2026-06-26 14:37:36.761,73228921,302761,1,0.62109,0.07886,0.87793,1.221,2.55,0.55
2026-06-26 14:37:36.761,73228921,302761,2,0.97583,-0.3252,-0.17603,1.504,0.84,-0.672
2026-06-26 14:37:36.961,73229121,302961,1,0.62207,0.06909,0.86084,0.885,2.275,0.611
2026-06-26 14:37:36.961,73229121,302961,2,0.97583,-0.33252,-0.16479,-0.656,1.221,-0.214
2026-06-26 14:37:36.161,73228321,303161,1,0.62915,0.07129,0.85913,-0.061,2.374,-0.176
2026-06-26 14:37:36.161,73228321,303161,2,0.96899,-0.32495,-0.17773,0.603,1.931,-0.137
2026-06-26 14:37:36.361,73228521,303361,1,0.63037,0.06982,0.87183,0.702,2.908,0.443
2026-06-26 14:37:36.361,73228521,303361,2,0.97095,-0.3252,-0.17285,-0.382,1.26,-0.321
2026-06-26 14:37:37.561,73229721,303561,1,0.62256,0.0708,0.86548,1.076,3.053,0.023
2026-06-26 14:37:37.561,73229721,303561,2,0.97778,-0.32593,-0.18164,0.916,1.496,-0.504
2026-06-26 14:37:37.785,73229945,303785,1,0.6311,0.07007,0.87207,0.634,2.519,0.435
2026-06-26 14:37:37.785,73229945,303785,2,0.98022,-0.33057,-0.18604,2.0,2.038,-0.412
2026-06-26 14:37:37.054,73229214,304054,1,0.61084,0.06885,0.87646,0.489,2.702,0.802
2026-06-26 14:37:37.054,73229214,304054,2,0.97925,-0.3291,-0.18262,1.71,0.908,-0.046
2026-06-26 14:37:37.266,73229426,304265,1,0.6189,0.0603,0.87451,0.817,2.0,1.031
2026-06-26 14:37:37.266,73229426,304265,2,0.98291,-0.33594,-0.17651,1.313,1.427,-0.718
2026-06-26 14:37:37.481,73229641,304481,1,0.62476,0.06323,0.87354,0.756,2.641,0.229
2026-06-26 14:37:37.481,73229641,304481,2,0.97266,-0.32813,-0.17896,1.511,2.023,-1.015
2026-06-26 14:37:38.681,73230841,304681,1,0.62598,0.073,0.87085,0.275,3.29,-0.389
2026-06-26 14:37:38.681,73230841,304681,2,0.98071,-0.33154,-0.16748,1.748,1.794,-0.763
2026-06-26 14:37:38.006,73230166,305006,1,0.61743,0.06445,0.87695,0.092,3.298,-0.16
2026-06-26 14:37:38.006,73230166,305006,2,0.97168,-0.33521,-0.1687,0.015,2.244,-0.321
2026-06-26 14:37:38.244,73230404,305244,1,0.61377,0.06787,0.87207,0.908,2.573,0.695
2026-06-26 14:37:38.244,73230404,305244,2,0.97729,-0.3374,-0.1687,0.939,0.733,-0.481
2026-06-26 14:37:38.461,73230621,305461,1,0.61719,0.06494,0.8772,1.405,2.672,1.13
2026-06-26 14:37:38.461,73230621,305461,2,0.97729,-0.34692,-0.1604,-0.008,1.466,-0.947
2026-06-26 14:37:39.883,73232043,305883,1,0.62988,0.06079,0.87793,0.962,1.687,0.397
2026-06-26 14:37:39.883,73232043,305883,2,0.97363,-0.33496,-0.17358,-0.45,1.092,-0.511
2026-06-26 14:37:39.182,73231342,306182,1,0.61792,0.07544,0.86719,-0.015,2.305,-0.55
2026-06-26 14:37:39.182,73231342,306182,2,0.97388,-0.33203,-0.16968,-0.931,1.023,0.229
2026-06-26 14:37:39.382,73231542,306382,1,0.62842,0.06885,0.87793,-0.282,2.099,-0.939
2026-06-26 14:37:39.382,73231542,306382,2,0.97095,-0.33325,-0.17041,-0.779,1.809,0.221
2026-06-26 14:37:40.582,73232742,306582,1,0.62012,0.06567,0.87842,-0.176,2.115,-0.794
2026-06-26 14:37:40.582,73232742,306582,2,0.98169,-0.34009,-0.17944,-0.466,1.863,-0.328
2026-06-26 14:37:40.782,73232942,306782,1,0.62207,0.0603,0.86719,0.275,2.84,0.053
2026-06-26 14:37:40.782,73232942,306782,2,0.9729,-0.33911,-0.17993,1.344,1.527,-0.565
2026-06-26 14:37:40.982,73233142,306982,1,0.61719,0.06689,0.85889,0.84,2.221,0.809
2026-06-26 14:37:40.982,73233142,306982,2,0.97314,-0.33936,-0.17432,1.092,0.924,-0.435
2026-06-26 14:37:40.182,73232342,307182,1,0.6272,0.07324,0.86548,0.863,2.336,0.779
2026-06-26 14:37:40.182,73232342,307182,2,0.97583,-0.33472,-0.16602,0.702,1.481,-0.534
2026-06-26 14:37:40.382,73232542,307382,1,0.61646,0.06519,0.87134,1.565,2.634,0.802
2026-06-26 14:37:40.382,73232542,307382,2,0.97559,-0.32935,-0.17603,1.382,0.802,-0.443
2026-06-26 14:37:41.582,73233742,307582,1,0.62671,0.06836,0.87622,1.168,1.977,0.794
2026-06-26 14:37:41.582,73233742,307582,2,0.97412,-0.33618,-0.17822,0.626,1.389,-0.55
2026-06-26 14:37:41.782,73233942,307782,1,0.62793,0.06982,0.86694,0.824,2.405,0.656
2026-06-26 14:37:41.782,73233942,307782,2,0.97241,-0.33374,-0.18481,1.435,1.237,0.046
2026-06-26 14:37:41.985,73234145,307985,1,0.62207,0.07373,0.87109,0.405,2.565,0.153
2026-06-26 14:37:41.985,73234145,307985,2,0.97656,-0.33569,-0.18896,-0.756,1.29,-0.351
2026-06-26 14:37:41.208,73233368,308208,1,0.62329,0.07642,0.87085,-0.069,1.977,-0.511
2026-06-26 14:37:41.208,73233368,308208,2,0.96899,-0.34009,-0.17114,0.076,1.908,0.038
2026-06-26 14:37:41.430,73233590,308430,1,0.61768,0.06763,0.86792,0.702,2.519,0.099
2026-06-26 14:37:41.430,73233590,308430,2,0.96851,-0.34399,-0.17432,-0.076,1.344,-0.382
2026-06-26 14:37:42.630,73234790,308630,1,0.625,0.06348,0.87012,0.55,2.412,-0.221
2026-06-26 14:37:42.630,73234790,308630,2,0.97485,-0.3396,-0.18506,0.969,1.565,-0.779
2026-06-26 14:37:42.911,73235071,308911,1,0.61816,0.07666,0.87231,1.359,2.305,0.046
2026-06-26 14:37:42.911,73235071,308911,2,0.97314,-0.33252,-0.17871,0.435,1.099,-0.855
2026-06-26 14:37:42.111,73234271,309111,1,0.62354,0.073,0.86475,0.87,2.0,0.427
2026-06-26 14:37:42.111,73234271,309111,2,0.97949,-0.33765,-0.18091,1.672,1.969,-1.122
2026-06-26 14:37:42.329,73234489,309329,1,0.62451,0.06763,0.86475,0.84,2.824,0.435
2026-06-26 14:37:42.329,73234489,309329,2,0.9751,-0.34253,-0.1731,0.313,1.718,-0.473
2026-06-26 14:37:43.529,73235689,309529,1,0.62451,0.07275,0.86841,0.168,2.366,0.244
2026-06-26 14:37:43.529,73235689,309529,2,0.96729,-0.33667,-0.16846,0.939,1.893,-0.527
2026-06-26 14:37:43.729,73235889,309729,1,0.61694,0.06689,0.87402,0.458,1.267,0.328
2026-06-26 14:37:43.729,73235889,309729,2,0.97681,-0.33887,-0.18604,-0.069,1.16,-0.496
2026-06-26 14:37:43.936,73236096,309936,1,0.62061,0.06567,0.87109,0.878,1.618,0.42
2026-06-26 14:37:43.936,73236096,309936,2,0.98267,-0.33521,-0.1814,2.481,1.962,-1.191
2026-06-26 14:37:43.200,73235360,310200,1,0.63086,0.08032,0.86621,-0.802,-0.374,-1.176
2026-06-26 14:37:43.200,73235360,310200,2,0.97217,-0.32617,-0.19287,-1.588,-0.145,0.237
2026-06-26 14:37:43.400,73235560,310400,1,0.64185,0.08936,0.85059,-4.412,-3.16,-0.359
2026-06-26 14:37:43.400,73235560,310400,2,0.97729,-0.30127,-0.1814,-3.206,-5.969,-0.191
2026-06-26 14:37:44.668,73236828,310668,1,0.62646,0.09106,0.86157,-3.382,-6.588,-5.565
2026-06-26 14:37:44.668,73236828,310668,2,0.96118,-0.32642,-0.2063,-9.237,-1.824,1.275
2026-06-26 14:37:44.868,73237028,310868,1,0.69897,0.05737,0.81787,-3.176,-8.244,-1.45
2026-06-26 14:37:44.868,73237028,310868,2,0.95313,-0.35645,-0.25903,-5.076,-3.534,-3.939
2026-06-26 14:37:44.068,73236228,311068,1,0.7124,0.04858,0.8186,1.389,0.794,0.947
2026-06-26 14:37:44.068,73236228,311068,2,0.96265,-0.32617,-0.25488,-1.595,-1.84,-2.107
2026-06-26 14:37:44.275,73236435,311274,1,0.69873,0.04858,0.82471,-0.489,1.931,-1.183
2026-06-26 14:37:44.275,73236435,311274,2,0.95898,-0.34595,-0.24536,3.496,0.878,2.939
2026-06-26 14:37:45.622,73237782,311622,1,0.69287,0.04688,0.82251,-0.893,6.008,3.29
2026-06-26 14:37:45.622,73237782,311622,2,0.94824,-0.33105,-0.24341,4.557,3.687,-0.748
2026-06-26 14:37:45.822,73237982,311822,1,0.67969,0.04712,0.83057,-0.45,3.87,0.015
2026-06-26 14:37:45.822,73237982,311822,2,0.94702,-0.34497,-0.23853,2.511,2.427,-0.13
2026-06-26 14:37:45.022,73237182,312022,1,0.66821,0.03931,0.83325,1.008,4.198,-0.786
2026-06-26 14:37:45.022,73237182,312022,2,0.96094,-0.34985,-0.22974,1.489,0.916,-1.74
2026-06-26 14:37:45.225,73237385,312225,1,0.65796,0.0542,0.84668,0.794,2.84,-0.122
2026-06-26 14:37:45.225,73237385,312225,2,0.9585,-0.34253,-0.22437,0.985,1.595,-0.244
2026-06-26 14:37:45.425,73237585,312425,1,0.67358,0.05762,0.84668,-0.603,4.687,-2.962
2026-06-26 14:37:45.425,73237585,312425,2,0.95679,-0.35278,-0.22778,-0.527,3.603,1.099
2026-06-26 14:37:46.652,73238812,312652,1,0.64478,0.05615,0.85083,-0.313,3.863,0.183
2026-06-26 14:37:46.652,73238812,312652,2,0.95093,-0.35205,-0.21484,1.0,2.397,-0.443
2026-06-26 14:37:46.914,73239074,312914,1,0.66138,0.05469,0.84204,0.42,2.519,1.008
2026-06-26 14:37:46.914,73239074,312914,2,0.96094,-0.34912,-0.21167,0.687,2.038,-1.687
2026-06-26 14:37:46.114,73238274,313114,1,0.6543,0.0459,0.84961,0.359,3.206,-0.069
2026-06-26 14:37:46.114,73238274,313114,2,0.95776,-0.34863,-0.20703,1.885,0.55,-0.863
2026-06-26 14:37:46.351,73238511,313350,1,0.64868,0.04639,0.85938,1.794,3.489,0.473
2026-06-26 14:37:46.351,73238511,313350,2,0.9624,-0.34839,-0.21704,2.069,1.947,-0.824
2026-06-26 14:37:47.550,73239710,313550,1,0.6499,0.05176,0.84888,0.344,2.687,0.244
2026-06-26 14:37:47.550,73239710,313550,2,0.95313,-0.34741,-0.21582,0.389,1.786,-0.969
2026-06-26 14:37:47.750,73239910,313750,1,0.64648,0.05151,0.85352,0.397,2.26,-0.489
2026-06-26 14:37:47.750,73239910,313750,2,0.95435,-0.34985,-0.20703,0.137,1.45,-0.725
2026-06-26 14:37:47.950,73240110,313950,1,0.65869,0.0542,0.84814,0.832,1.809,0.687
2026-06-26 14:37:47.950,73240110,313950,2,0.96411,-0.35547,-0.21533,,1.947,-0.626
2026-06-26 14:37:47.150,73239310,314150,1,0.65576,0.04468,0.84155,0.405,3.351,1.053
2026-06-26 14:37:47.150,73239310,314150,2,0.94946,-0.35327,-0.20581,1.076,0.634,0.183
2026-06-26 14:37:47.350,73239510,314350,1,0.65186,0.0415,0.86035,0.779,1.924,0.924
2026-06-26 14:37:47.350,73239510,314350,2,0.95752,-0.35327,-0.21167,1.137,1.496,-1.092
2026-06-26 14:37:48.550,73240710,314550,1,0.65088,0.04907,0.84473,0.832,1.198,1.13
2026-06-26 14:37:48.550,73240710,314550,2,0.95923,-0.34863,-0.2063,0.176,0.885,-0.107
2026-06-26 14:37:48.754,73240914,314754,1,0.65796,0.04956,0.84814,0.542,1.573,-0.466
2026-06-26 14:37:48.754,73240914,314754,2,0.95923,-0.34888,-0.20581,1.366,1.252,-0.412
2026-06-26 14:37:48.954,73241114,314954,1,0.65845,0.05371,0.84888,0.84,2.427,0.427
2026-06-26 14:37:48.954,73241114,314954,2,0.96094,-0.35669,-0.20752,0.298,1.756,-0.618
2026-06-26 14:37:48.154,73240314,315154,1,0.65234,0.0498,0.84521,0.939,2.466,0.275
2026-06-26 14:37:48.154,73240314,315154,2,0.96143,-0.35645,-0.21509,0.573,1.031,-0.458
2026-06-26 14:37:48.154,73240314,315154,2,0.96143,-0.35645,-0.21509,0.573,1.031,-0.458
2026-06-26 14:37:53.411,73245571,320411,1,0.65503,0.04712,0.85327,1.137,2.992,0.466
2026-06-26 14:37:53.411,73245571,320411,2,0.9585,-0.35059,-0.20947,1.229,1.794,-1.298
2026-06-26 14:37:54.611,73246771,320611,1,0.64844,0.05225,0.85767,1.305,2.779,0.443
2026-06-26 14:37:54.611,73246771,320611,1,0.64844,0.05225,0.85767,1.305,2.779,0.443
2026-06-26 14:37:54.611,73246771,320611,2,0.95923,-0.34424,-0.22314,1.58,1.153,-1.809
2026-06-26 14:37:59.140,73251300,326140,1,0.6626,0.05249,0.83691,1.649,3.13,-0.16
2026-06-26 14:37:59.140,73251300,326140,2,0.95532,-0.35107,-0.22876,1.924,1.725,-1.359
2026-06-26 14:37:59.340,73251500,326340,1,0.66455,0.05762,0.8479,1.023,2.374,0.466
2026-06-26 14:37:59.340,73251500,326340,2,0.9563,-0.3457,-0.22559,1.725,1.725,-1.328
2026-06-26 14:38:00.540,73252700,326540,1,0.66211,0.05444,0.84814,0.664,2.344,0.397
2026-06-26 14:38:00.540,73252700,326540,2,0.9585,-0.34399,-0.22437,-0.015,1.878,-0.519
2026-06-26 14:38:00.740,73252900,326740,1,0.65747,0.05469,0.85059,0.847,2.351,0.046
2026-06-26 14:38:00.740,73252900,326740,2,0.96021,-0.33496,-0.22437,0.244,1.733,-0.893
2026-06-26 14:38:00.740,73252900,326740,2,0.96021,-0.33496,-0.22437,0.244,1.733,-0.893
2026-06-26 14:38:05.942,73258102,331942,1,0.64258,0.07202,0.85229,-1.748,-3.55,-7.198
2026-06-26 14:38:05.942,73258102,331942,2,0.99512,-0.31519,-0.20239,-6.13,-0.786,5.496
2026-06-26 14:38:05.145,73257305,332145,1,0.68115,0.04102,0.8418,-7.053,6.588,-13.092
2026-06-26 14:38:05.145,73257305,332145,2,0.94751,-0.35205,-0.22363,-11.267,10.206,-0.298
2026-06-26 14:38:05.345,73257505,332345,1,0.6521,0.08301,0.84912,-5.198,5.511,-10.168
2026-06-26 14:38:05.345,73257505,332345,2,0.95972,-0.35327,-0.19067,-10.015,10.13,2.511
2026-06-26 14:38:06.545,73258705,332545,1,0.62646,0.02808,0.87036,-4.878,6.13,0.023
2026-06-26 14:38:06.545,73258705,332545,2,0.94482,-0.38403,-0.19629,6.42,0.618,2.328
2026-06-26 14:38:06.745,73258905,332745,1,0.62085,0.03491,0.86548,4.214,2.13,7.71
2026-06-26 14:38:06.745,73258905,332745,2,0.95898,-0.34326,-0.18701,6.908,-1.038,-2.252
2026-06-26 14:38:06.945,73259105,332945,1,0.64502,0.05542,0.85254,5.015,0.237,7.168
2026-06-26 14:38:06.945,73259105,332945,2,0.97827,-0.34106,-0.20532,6.084,-4.885,-1.878
2026-06-26 14:38:06.145,73258305,333145,1,0.64966,0.05859,0.84204,4.252,2.626,5.412
2026-06-26 14:38:06.145,73258305,333145,2,0.9729,-0.34082,-0.20166,6.122,0.824,-3.908
2026-06-26 14:38:06.345,73258505,333345,1,0.62329,0.06177,0.88477,5.954,2.618,4.397
2026-06-26 14:38:06.345,73258505,333345,2,0.9834,-0.32349,-0.18188,3.573,2.481,-4.191
2026-06-26 14:38:07.545,73259705,333545,1,0.63306,0.08569,0.86963,2.725,6.588,2.725
2026-06-26 14:38:07.545,73259705,333545,2,0.97046,-0.31885,-0.20117,3.695,3.985,-2.053
2026-06-26 14:38:07.745,73259905,333745,1,0.62646,0.06372,0.86743,0.748,4.588,0.924
2026-06-26 14:38:07.745,73259905,333745,2,0.97217,-0.32593,-0.1709,1.534,3.855,-0.527
2026-06-26 14:38:07.145,73259305,334145,1,0.63672,0.04858,0.85645,-4.122,1.389,-6.214
2026-06-26 14:38:07.145,73259305,334145,2,0.96948,-0.354,-0.18872,-1.466,0.672,2.374
2026-06-26 14:38:07.345,73259505,334345,1,0.60889,0.05273,0.86304,3.099,2.763,0.534
2026-06-26 14:38:07.345,73259505,334345,2,0.96997,-0.33691,-0.17969,-2.542,4.771,-3.115
2026-06-26 14:38:08.557,73260717,334556,1,0.61743,0.06445,0.87036,-0.221,2.107,0.71
2026-06-26 14:38:08.557,73260717,334556,2,0.97803,-0.33472,-0.18799,0.817,-0.702,-1.473
2026-06-26 14:38:08.767,73260927,334767,1,0.63354,0.06006,0.85938,2.893,1.405,2.878
2026-06-26 14:38:08.767,73260927,334767,2,0.98022,-0.31958,-0.19019,0.618,0.382,-1.489
2026-06-26 14:38:08.967,73261127,334967,1,0.64258,0.07373,0.8623,0.183,1.687,0.115
2026-06-26 14:38:08.967,73261127,334967,2,0.97241,-0.32397,-0.19165,-0.527,0.893,0.626
2026-06-26 14:38:08.173,73260333,335173,1,0.63965,0.05273,0.85962,-0.947,1.985,0.038
