datetime,epoch_ms,ts_millis,mpu_id,ax,ay,az,gx,gy,gz
2026-06-10 16:07:23.681,2991183137,7681,1,0.52051,0.89624,0.07715,0.603,2.321,0.595
2026-06-10 16:07:23.681,2991183137,7681,2,0.20557,0.79028,0.65967,0.84,1.496,-0.565
2026-06-10 16:07:24.424,2991183880,8424,1,0.51538,0.89844,0.07617,0.374,2.252,0.397
2026-06-10 16:07:24.424,2991183880,8424,2,0.20801,0.78613,0.66309,0.748,1.359,-0.573
2026-06-10 16:07:24.208,2991183664,9208,1,0.51318,0.896,0.09497,0.405,2.458,0.58
2026-06-10 16:07:24.208,2991183664,9208,2,0.21094,0.78564,0.65576,0.565,1.374,-0.466
2026-06-10 16:07:25.736,2991185192,9736,1,0.51855,0.89453,0.08398,0.511,2.443,0.588
2026-06-10 16:07:25.736,2991185192,9736,2,0.21143,0.78979,0.65674,0.71,1.435,-0.702
2026-06-10 16:07:26.442,2991185898,10442,1,0.51904,0.89819,0.07104,1.076,2.069,0.802
2026-06-10 16:07:26.442,2991185898,10442,2,0.2063,0.78003,0.66772,0.588,1.496,-0.557
2026-06-10 16:07:26.949,2991186405,10948,1,0.52075,0.89697,0.07935,-0.71,2.641,0.221
2026-06-10 16:07:26.949,2991186405,10948,2,0.20654,0.7832,0.66724,0.87,1.473,-0.55
2026-06-10 16:07:27.469,2991186925,11469,1,0.51099,0.90723,0.07178,0.664,3.473,1.489
2026-06-10 16:07:27.469,2991186925,11469,2,0.20752,0.79077,0.66284,0.748,1.55,-0.511
2026-06-10 16:07:28.445,2991187901,12444,1,0.52026,0.89673,0.08496,0.305,2.382,0.496
2026-06-10 16:07:28.445,2991187901,12444,2,0.20801,0.78345,0.64722,0.718,1.435,-0.58
2026-06-10 16:07:28.819,2991188275,12819,1,0.52075,0.89697,0.07861,0.466,2.481,0.496
2026-06-10 16:07:28.819,2991188275,12819,2,0.20947,0.78955,0.66382,0.725,1.496,-0.473
2026-06-10 16:07:28.335,2991187791,13335,1,0.52417,0.89453,0.0896,0.519,2.267,0.458
2026-06-10 16:07:28.335,2991187791,13335,2,0.20435,0.78638,0.66895,0.649,1.389,-0.519
2026-06-10 16:07:29.858,2991189314,13858,1,0.51587,0.89941,0.08154,0.656,2.252,0.573
2026-06-10 16:07:29.858,2991189314,13858,2,0.2124,0.78687,0.66675,0.901,1.649,-0.641
2026-06-10 16:07:29.225,2991188681,14225,1,0.51147,0.89038,0.07153,1.702,1.947,1.099
2026-06-10 16:07:29.225,2991188681,14225,2,0.20313,0.78198,0.66235,0.817,1.618,-0.473
2026-06-10 16:07:30.597,2991190053,14597,1,0.51807,0.89331,0.08838,0.969,2.206,0.611
2026-06-10 16:07:30.597,2991190053,14597,2,0.21191,0.78638,0.65601,0.84,1.565,-0.489
2026-06-10 16:07:30.928,2991190384,14928,1,0.52246,0.90283,0.08008,1.214,2.053,0.817
2026-06-10 16:07:30.928,2991190384,14928,2,0.20923,0.78076,0.66455,0.893,1.374,-0.557
2026-06-10 16:07:30.274,2991189730,15274,1,0.51953,0.88965,0.07593,0.252,2.198,0.489
2026-06-10 16:07:30.274,2991189730,15274,2,0.20264,0.78516,0.65991,0.672,1.626,-0.656
2026-06-10 16:07:31.585,2991191041,15585,1,0.51831,0.89771,0.08179,0.832,2.191,0.58
2026-06-10 16:07:31.585,2991191041,15585,2,0.19971,0.7876,0.6582,0.87,1.473,-0.481
2026-06-10 16:07:31.932,2991191388,15932,1,0.52002,0.89478,0.08838,0.206,2.511,0.481
2026-06-10 16:07:31.932,2991191388,15932,2,0.21167,0.78418,0.66357,0.702,1.649,-0.573
2026-06-10 16:07:31.932,2991191388,15932,2,0.21167,0.78418,0.66357,0.702,1.649,-0.573
2026-06-10 16:07:36.325,2991195781,21324,1,0.52197,0.89941,0.07642,0.321,2.473,0.664
2026-06-10 16:07:36.325,2991195781,21324,2,0.21167,0.78369,0.65527,0.725,1.473,-0.527
2026-06-10 16:07:37.614,2991197070,21613,1,0.51831,0.8916,0.08032,0.58,2.313,0.405
2026-06-10 16:07:37.614,2991197070,21613,2,0.20923,0.78735,0.65991,0.687,1.603,-0.473
2026-06-10 16:07:37.877,2991197333,21877,1,0.51904,0.90283,0.09326,0.328,2.359,0.641
2026-06-10 16:07:37.877,2991197333,21877,2,0.21021,0.77979,0.66113,0.794,1.527,-0.489
2026-06-10 16:07:37.877,2991197333,21877,2,0.21021,0.77979,0.66113,0.794,1.527,-0.489
2026-06-10 16:07:42.246,2991201702,27246,1,0.51953,0.90039,0.07275,0.267,2.351,0.527
2026-06-10 16:07:42.246,2991201702,27246,2,0.20605,0.7915,0.65186,0.626,1.588,-0.374
2026-06-10 16:07:42.246,2991201702,27246,2,0.20605,0.7915,0.65186,0.626,1.588,-0.374
2026-06-10 16:07:48.463,2991207919,32463,1,0.51514,0.89868,0.09033,0.901,2.275,0.427
2026-06-10 16:07:48.463,2991207919,32463,2,0.20435,0.77905,0.65454,1.962,1.214,-0.626
2026-06-10 16:07:48.710,2991208166,32710,1,0.5127,0.89746,0.09546,-1.252,2.901,0.412
2026-06-10 16:07:48.710,2991208166,32710,2,0.20337,0.79712,0.65845,0.481,1.847,-0.542
2026-06-10 16:07:48.000,2991207456,33000,1,0.51929,0.90112,0.09937,-2.076,3.664,-0.344
2026-06-10 16:07:48.000,2991207456,33000,2,0.20972,0.78589,0.65991,0.771,1.45,-0.382
2026-06-10 16:07:48.286,2991207742,33286,1,0.51904,0.8833,0.09082,1.198,2.702,1.382
2026-06-10 16:07:48.286,2991207742,33286,2,0.2124,0.78491,0.64771,0.656,1.695,-0.511
2026-06-10 16:07:48.286,2991207742,33286,2,0.2124,0.78491,0.64771,0.656,1.695,-0.511
2026-06-10 16:07:54.606,2991214062,38606,1,0.52588,0.90381,0.08252,0.55,2.328,0.412
2026-06-10 16:07:54.606,2991214062,38606,2,0.2063,0.78247,0.65796,0.794,1.45,-0.473
2026-06-10 16:07:54.606,2991214062,38606,2,0.2063,0.78247,0.65796,0.794,1.45,-0.473
2026-06-10 16:08:04.835,2991224291,48835,1,0.52222,0.89429,0.07666,0.473,2.29,0.679
2026-06-10 16:08:04.835,2991224291,48835,1,0.52222,0.89429,0.07666,0.473,2.29,0.679
2026-06-10 16:08:04.835,2991224291,48835,2,0.20898,0.78271,0.66211,0.779,1.374,-0.527
2026-06-10 16:08:14.035,2991233491,59035,1,0.52466,0.89331,0.08008,0.458,2.221,0.55
2026-06-10 16:08:14.035,2991233491,59035,2,0.20483,0.78467,0.65698,0.878,1.382,-0.588
2026-06-10 16:08:14.305,2991233761,59305,1,0.51538,0.8938,0.08813,0.527,2.267,0.588
2026-06-10 16:08:14.305,2991233761,59305,2,0.20337,0.78491,0.65479,0.756,1.435,-0.382
2026-06-10 16:08:15.632,2991235088,59632,1,0.52344,0.8894,0.08472,0.382,2.588,0.542
2026-06-10 16:08:15.632,2991235088,59632,1,0.52344,0.8894,0.08472,0.382,2.588,0.542
2026-06-10 16:08:15.632,2991235088,59632,2,0.20557,0.78857,0.66748,0.901,1.427,-0.511
2026-06-10 16:08:15.632,2991235088,59632,2,0.20557,0.78857,0.66748,0.901,1.427,-0.511
2026-06-10T16:08:31.997553,,,,,,,,,
2026-06-10T16:09:24.976011,,,,,,,,,
2026-06-10T16:09:25.893210,,,,,,,,,
2026-06-10T16:14:54.095654,,,,,,,,,
2026-06-10 16:14:53.433,2991632889,5433,1,0.91309,-0.11841,0.40405,-41.603,15.397,-18.809
2026-06-10 16:14:53.433,2991632889,5433,2,1.02466,-0.17383,0.14258,-48.794,-6.298,-5.16
2026-06-10 16:14:53.633,2991633089,5633,1,0.98315,-0.14648,0.41089,-18.74,1.649,-11.015
2026-06-10 16:14:53.633,2991633089,5633,2,1.14258,-0.18091,0.00903,-0.267,-24.351,37.389
2026-06-10 16:14:54.919,2991634375,5919,1,1.02979,0.00366,0.41284,-12.916,33.626,-17.038
2026-06-10 16:14:54.919,2991634375,5919,2,1.04614,-0.18555,0.12939,-11.053,-4.748,18.252
2026-06-10 16:14:54.119,2991633575,6119,1,0.95776,0.00879,0.44531,-6.466,15.183,0.198
2026-06-10 16:14:54.119,2991633575,6119,2,1.17944,-0.10278,0.11865,-17.939,9.176,-17.069
2026-06-10 16:14:54.319,2991633775,6319,1,0.90967,0.01953,0.40186,-7.008,29.695,-9.412
2026-06-10 16:14:54.319,2991633775,6319,2,0.97778,-0.01245,0.10815,-15.55,18.931,-27.557
2026-06-10 16:14:54.519,2991633975,6519,1,1.09424,0.01514,0.46069,-28.023,13.832,-17.084
2026-06-10 16:14:54.519,2991633975,6519,2,0.99414,-0.01343,0.14941,2.618,38.802,-28.908
2026-06-10 16:14:55.719,2991635175,6719,1,0.9436,0.0564,0.37598,-41.145,-13.008,-13.122
2026-06-10 16:14:55.719,2991635175,6719,2,1.20435,-0.19678,0.28589,-58.443,-30.252,32.443
2026-06-10 16:14:55.938,2991635394,6938,1,0.88257,0.0061,0.52954,6.45,18.122,26.198
2026-06-10 16:14:55.938,2991635394,6938,2,1.01514,-0.04907,0.2395,-88.137,-44.458,-5.748
2026-06-10 16:14:55.138,2991634594,7138,1,1.02637,-0.12524,0.44238,23.954,26.931,7.321
2026-06-10 16:14:55.138,2991634594,7138,2,0.93506,-0.0791,0.34277,38.885,26.252,19.649
2026-06-10 16:14:55.338,2991634794,7338,1,0.95605,-0.07837,0.46289,27.847,16.305,11.298
2026-06-10 16:14:55.338,2991634794,7338,2,1.04761,-0.03735,0.24219,37.244,10.015,-1.015
2026-06-10 16:14:55.538,2991634994,7538,1,0.8811,-0.0542,0.52393,38.092,9.023,17.588
2026-06-10 16:14:55.538,2991634994,7538,2,1.27393,0.12451,0.28101,69.939,-41.0,20.275
2026-06-10 16:14:56.738,2991636194,7738,1,0.93359,0.01318,0.51978,15.511,10.153,-4.824
2026-06-10 16:14:56.738,2991636194,7738,2,0.89429,0.11157,0.36475,52.519,25.794,2.634
2026-06-10 16:14:56.938,2991636394,7938,1,1.00439,0.06079,0.56689,14.435,7.84,11.649
2026-06-10 16:14:56.938,2991636394,7938,2,1.04395,0.00806,0.19653,-3.511,-6.74,-11.802
2026-06-10 16:14:56.138,2991635594,8138,1,0.91577,0.08228,0.43384,2.382,16.664,-4.618
2026-06-10 16:14:56.138,2991635594,8138,2,1.13281,0.01855,0.31885,-10.198,16.328,3.695
2026-06-10 16:14:56.360,2991635816,8360,1,0.8667,0.05737,0.40845,-35.0,6.008,-3.939
2026-06-10 16:14:56.360,2991635816,8360,2,0.94922,0.07471,0.2334,-32.008,4.809,-6.786
2026-06-10 16:14:56.560,2991636016,8560,1,0.99316,-0.15894,0.63745,-13.55,0.229,15.023
2026-06-10 16:14:56.560,2991636016,8560,2,0.78711,0.00586,0.40259,-33.588,-69.893,9.84
2026-06-10 16:14:57.760,2991637216,8760,1,1.02563,-0.07715,0.5498,33.771,39.687,13.679
2026-06-10 16:14:57.760,2991637216,8760,2,1.02905,-0.073,0.17822,40.351,1.786,21.908
2026-06-10 16:14:57.960,2991637416,8960,1,0.92554,-0.06519,0.4436,27.817,10.786,10.87
2026-06-10 16:14:57.960,2991637416,8960,2,1.04517,-0.12524,0.22119,-2.817,-25.779,1.031
2026-06-10 16:14:57.160,2991636616,9160,1,0.97559,-0.01465,0.43506,19.214,7.282,6.74
2026-06-10 16:14:57.160,2991636616,9160,2,1.21826,0.00146,0.21997,17.023,-30.084,24.863
2026-06-10 16:14:57.360,2991636816,9360,1,0.9314,-0.0166,0.53076,-10.992,15.489,-9.397
2026-06-10 16:14:57.360,2991636816,9360,2,1.0083,0.0354,0.39648,-6.336,1.115,5.969
2026-06-10 16:14:57.560,2991637016,9560,1,1.00439,0.05029,0.55225,22.618,18.817,11.748
2026-06-10 16:14:57.560,2991637016,9560,2,1.11621,0.0459,0.23926,28.298,7.191,-10.366
2026-06-10 16:14:58.760,2991638216,9760,1,0.88501,0.10254,0.47485,-24.763,0.931,-3.87
2026-06-10 16:14:58.760,2991638216,9760,2,1.07471,-0.0332,0.28979,-57.137,-6.168,6.153
2026-06-10 16:14:58.992,2991638448,9992,1,0.896,-0.00317,0.4624,-19.328,21.87,-1.168
2026-06-10 16:14:58.992,2991638448,9992,2,1.25781,-0.28564,0.2417,-110.885,-66.29,22.191
2026-06-10 16:14:58.192,2991637648,10192,1,0.87256,-0.04321,0.46753,-11.603,13.321,-1.885
2026-06-10 16:14:58.192,2991637648,10192,2,0.9436,0.00098,0.36499,-79.206,-18.733,-11.992
2026-06-10 16:14:58.392,2991637848,10392,1,0.97388,-0.16357,0.50928,-28.893,13.359,-15.153
2026-06-10 16:14:58.392,2991637848,10392,2,0.99463,-0.09058,0.30371,-13.183,20.389,-0.313
2026-06-10 16:14:58.592,2991638048,10592,1,0.93311,-0.15991,0.43481,-10.954,1.412,-10.221
2026-06-10 16:14:58.592,2991638048,10592,2,1.08032,-0.05029,0.27832,13.099,20.099,-11.084
2026-06-10 16:14:59.792,2991639248,10792,1,0.96094,-0.05127,0.50562,-3.985,5.809,-12.137
2026-06-10 16:14:59.792,2991639248,10792,2,1.03223,-0.06763,0.34595,-11.145,-6.748,10.336
2026-06-10 16:14:59.992,2991639448,10992,1,0.94556,-0.06982,0.51563,0.71,-8.16,14.26
2026-06-10 16:14:59.992,2991639448,10992,2,0.98022,0.05615,0.34937,32.008,21.504,-7.832
2026-06-10 16:14:59.192,2991638648,11192,1,0.92432,0.02124,0.48438,12.992,10.107,9.45
2026-06-10 16:14:59.192,2991638648,11192,2,1.01855,-0.00781,0.25659,5.153,18.366,-3.885
2026-06-10 16:14:59.402,2991638858,11402,1,0.95313,0.00293,0.44995,-17.542,1.412,-7.473
2026-06-10 16:14:59.402,2991638858,11402,2,1.12451,-0.08667,0.36279,-17.313,-0.313,3.481
2026-06-10 16:14:59.642,2991639098,11642,1,1.14429,-0.06689,0.36499,-46.191,-23.191,-9.481
2026-06-10 16:14:59.642,2991639098,11642,2,1.06299,-0.01807,0.39526,20.45,1.344,2.267
2026-06-10 16:15:00.842,2991640298,11842,1,0.8916,-0.08179,0.53394,-7.466,-14.214,-14.824
2026-06-10 16:15:00.842,2991640298,11842,2,1.1604,-0.02563,0.38843,37.878,32.145,-1.176
2026-06-10 16:15:00.042,2991639498,12042,1,0.87769,-0.09644,0.48242,11.885,2.359,-0.802
2026-06-10 16:15:00.042,2991639498,12042,2,1.05518,-0.0874,0.29321,24.595,7.015,0.137
2026-06-10 16:15:00.242,2991639698,12242,1,0.91553,-0.08423,0.46875,23.794,0.344,6.969
2026-06-10 16:15:00.242,2991639698,12242,2,1.10864,-0.07275,0.25708,20.84,-10.893,6.42
2026-06-10 16:15:00.442,2991639898,12442,1,0.97241,-0.04761,0.57397,13.435,-6.992,-6.092
2026-06-10 16:15:00.442,2991639898,12442,2,1.1665,0.01587,0.39722,18.641,33.71,1.198
2026-06-10 16:15:00.642,2991640098,12642,1,0.88574,0.07471,0.54517,6.962,15.924,-10.527
2026-06-10 16:15:00.642,2991640098,12642,2,1.08545,0.16382,0.29663,21.947,20.725,-23.412
2026-06-10 16:15:01.882,2991641338,12882,1,0.86499,0.17676,0.54517,1.969,4.389,2.099
2026-06-10 16:15:01.882,2991641338,12882,2,1.06396,0.08472,0.28564,-9.527,1.763,13.672
2026-06-10 16:15:01.086,2991640542,13085,1,0.86108,0.11646,0.53003,-8.557,-3.733,4.74
2026-06-10 16:15:01.086,2991640542,13085,2,1.14624,-0.0791,0.38037,-39.809,-21.267,23.412
2026-06-10 16:15:01.285,2991640741,13285,1,0.99561,-0.01489,0.46948,-4.626,5.031,9.542
2026-06-10 16:15:01.285,2991640741,13285,2,1.02515,0.04883,0.33545,-4.42,22.527,-21.519
2026-06-10 16:15:01.485,2991640941,13485,1,0.95337,0.03052,0.46362,-6.824,72.137,-12.557
2026-06-10 16:15:01.485,2991640941,13485,2,0.90479,0.06323,0.50977,-3.206,89.031,-36.382
2026-06-10 16:15:01.685,2991641141,13685,1,0.57861,-0.00366,0.55127,0.137,131.229,16.282
2026-06-10 16:15:01.685,2991641141,13685,2,0.74707,0.20068,0.63672,-10.275,96.931,-60.595
2026-06-10 16:15:02.885,2991642341,13885,1,0.14282,0.0249,1.00366,-10.962,122.374,-7.855
2026-06-10 16:15:02.885,2991642341,13885,2,0.44507,0.25366,0.91992,-25.519,85.763,-28.252
2026-06-10 16:15:02.085,2991641541,14085,1,-0.03467,-0.08203,1.21509,-6.298,67.328,-0.412
2026-06-10 16:15:02.085,2991641541,14085,2,0.23193,0.31934,1.10083,-1.145,38.427,-14.328
2026-06-10 16:15:02.326,2991641782,14326,1,-0.23901,-0.03564,1.17163,-1.84,5.756,7.061
2026-06-10 16:15:02.326,2991641782,14326,2,0.12256,0.33838,1.03711,5.427,5.908,0.214
2026-06-10 16:15:02.526,2991641982,14526,1,-0.20972,-0.05005,1.08057,1.382,2.221,1.382
2026-06-10 16:15:02.526,2991641982,14526,2,0.14185,0.36963,1.01953,4.191,0.748,-0.656
2026-06-10 16:15:03.726,2991643182,14726,1,-0.17578,-0.03101,1.02588,1.214,1.618,-4.565
2026-06-10 16:15:03.726,2991643182,14726,2,0.13501,0.36914,1.01953,0.901,0.252,-3.16
2026-06-10 16:15:03.926,2991643382,14926,1,-0.18872,-0.03052,1.03394,-0.595,3.725,-5.45
2026-06-10 16:15:03.926,2991643382,14926,2,0.13892,0.36401,1.021,2.038,1.84,-4.855
2026-06-10 16:15:03.126,2991642582,15126,1,-0.19043,-0.03174,1.05908,2.16,4.435,-3.153
2026-06-10 16:15:03.126,2991642582,15126,2,0.15161,0.36792,1.02979,2.832,0.985,-1.626
2026-06-10 16:15:03.326,2991642782,15326,1,-0.17651,-0.03027,1.01978,-1.496,2.16,-3.733
2026-06-10 16:15:03.326,2991642782,15326,2,0.15454,0.36792,1.03198,2.275,1.389,-1.832
2026-06-10 16:15:03.526,2991642982,15526,1,-0.18921,-0.02637,1.02661,1.351,9.321,-0.092
2026-06-10 16:15:03.526,2991642982,15526,2,0.15259,0.34692,0.97974,1.481,8.053,-3.672
2026-06-10 16:15:04.726,2991644182,15726,1,-0.21069,-0.02368,1.03101,2.015,11.519,2.153
2026-06-10 16:15:04.726,2991644182,15726,2,0.10107,0.4043,1.02588,-0.13,3.298,-0.962
2026-06-10 16:15:04.926,2991644382,15926,1,-0.29736,-0.03223,1.06909,1.427,3.756,0.344
2026-06-10 16:15:04.926,2991644382,15926,2,0.09106,0.3999,1.02637,1.527,-4.389,0.641
2026-06-10 16:15:04.126,2991643582,16126,1,-0.24292,-0.02368,1.01074,0.496,-1.977,-3.244
2026-06-10 16:15:04.126,2991643582,16126,2,0.09717,0.39038,1.00781,-0.42,-4.198,-1.084
2026-06-10 16:15:04.326,2991643782,16326,1,-0.24072,-0.02222,1.02246,1.023,4.733,-1.603
2026-06-10 16:15:04.326,2991643782,16326,2,0.12183,0.40454,1.0249,2.595,-1.191,-0.718
2026-06-10 16:15:04.526,2991643982,16526,1,-0.22388,-0.00098,1.02173,-1.198,-3.649,-1.802
2026-06-10 16:15:04.526,2991643982,16526,2,0.14526,0.39233,1.00269,2.939,-0.733,-1.13
2026-06-10 16:15:05.726,2991645182,16726,1,-0.19531,-0.01514,1.01709,4.855,-4.099,-3.947
2026-06-10 16:15:05.726,2991645182,16726,2,0.14795,0.34424,1.0293,-4.099,-4.26,0.359
2026-06-10 16:15:05.926,2991645382,16926,1,-0.17944,0.04468,1.01221,25.481,4.221,10.649
2026-06-10 16:15:05.926,2991645382,16926,2,0.1333,0.44897,0.98096,9.298,5.298,-1.557
2026-06-10 16:15:05.126,2991644582,17126,1,-0.23267,0.08838,1.02344,6.328,3.466,5.611
2026-06-10 16:15:05.126,2991644582,17126,2,0.14722,0.43823,1.00562,1.74,2.511,5.031
2026-06-10 16:15:05.326,2991644782,17326,1,-0.21753,0.09399,1.03491,6.725,5.344,8.137
2026-06-10 16:15:05.326,2991644782,17326,2,0.15039,0.4375,0.96558,4.916,-1.229,5.893
2026-06-10 16:15:05.526,2991644982,17526,1,-0.21558,0.08228,1.04297,0.45,1.015,0.359
2026-06-10 16:15:05.526,2991644982,17526,2,0.15723,0.42578,0.9751,0.924,1.687,-0.405
2026-06-10 16:15:06.726,2991646182,17726,1,-0.21069,0.10156,1.03027,0.641,2.031,-0.962
2026-06-10 16:15:06.726,2991646182,17726,2,0.13818,0.43774,0.99829,1.481,1.511,0.366
2026-06-10 16:15:06.926,2991646382,17926,1,-0.19873,0.08057,1.01758,1.176,-0.595,1.382
2026-06-10 16:15:06.926,2991646382,17926,2,0.14209,0.44751,1.01318,2.733,0.313,1.931
2026-06-10 16:15:06.126,2991645582,18126,1,-0.16675,0.10962,1.02979,1.557,0.107,3.634
2026-06-10 16:15:06.126,2991645582,18126,2,0.20581,0.42993,0.94434,3.221,1.863,1.588
2026-06-10 16:15:06.326,2991645782,18326,1,-0.17944,0.04053,1.04102,8.557,0.954,7.427
2026-06-10 16:15:06.326,2991645782,18326,2,0.22705,0.45752,0.96436,13.282,8.298,-7.023
2026-06-10 16:15:06.526,2991645982,18526,1,-0.18018,0.10645,1.07349,5.351,5.038,1.458
2026-06-10 16:15:06.526,2991645982,18526,2,0.20142,0.46729,0.97778,5.008,-0.687,0.183
2026-06-10 16:15:07.726,2991647182,18726,1,-0.24023,0.12012,1.21997,-2.878,-24.45,-0.527
2026-06-10 16:15:07.726,2991647182,18726,2,0.36938,0.40454,0.9624,-10.969,-55.626,27.191
2026-06-10 16:15:07.988,2991647444,18988,1,0.06055,0.07764,1.1062,1.015,-78.115,0.305
2026-06-10 16:15:07.988,2991647444,18988,2,0.59326,0.29224,0.80762,-14.817,-65.298,37.176
2026-06-10 16:15:07.188,2991646644,19188,1,0.35547,0.06689,0.85913,14.412,-73.244,14.191
2026-06-10 16:15:07.188,2991646644,19188,2,0.75244,0.25732,0.66699,6.122,-54.931,34.489
2026-06-10 16:15:07.388,2991646844,19388,1,0.58105,0.09546,0.78442,1.87,-64.588,15.221
2026-06-10 16:15:07.388,2991646844,19388,2,0.85645,0.12598,0.58325,-7.176,-57.557,46.198
2026-06-10 16:15:07.588,2991647044,19588,1,0.88428,0.01416,0.61597,-11.603,-42.305,-0.473
2026-06-10 16:15:07.588,2991647044,19588,2,1.0769,-0.04736,0.51196,-0.153,-15.26,11.489
2026-06-10 16:15:08.788,2991648244,19788,1,0.90601,-0.05371,0.54785,-8.412,-3.198,-2.672
2026-06-10 16:15:08.788,2991648244,19788,2,0.96899,-0.11646,0.44092,-2.282,-2.252,5.183
2026-06-10 16:15:08.988,2991648444,19988,1,1.00439,-0.01636,0.66895,7.076,-1.71,-0.046
2026-06-10 16:15:08.988,2991648444,19988,2,0.89771,-0.19043,0.45581,-6.267,-0.382,7.046
2026-06-10 16:15:08.188,2991647644,20188,1,0.93604,-0.05469,0.65088,4.878,-4.191,3.565
2026-06-10 16:15:08.188,2991647644,20188,2,0.98462,-0.0249,0.43384,21.496,1.817,3.458
2026-06-10 16:15:08.457,2991647913,20457,1,0.85547,0.03687,0.53955,19.58,10.328,12.031
2026-06-10 16:15:08.457,2991647913,20457,2,1.10791,-0.0022,0.35547,15.786,1.962,2.55
2026-06-10 16:15:08.657,2991648113,20657,1,0.88989,0.03223,0.54102,30.351,18.779,19.649
2026-06-10 16:15:08.657,2991648113,20657,2,0.95898,0.0271,0.29346,15.237,9.595,-11.191
2026-06-10 16:15:09.857,2991649313,20857,1,0.90576,0.04663,0.58545,2.397,7.786,2.679
2026-06-10 16:15:09.857,2991649313,20857,2,1.01904,-0.02637,0.44946,-4.313,10.176,3.382
2026-06-10 16:15:09.077,2991648533,21077,1,1.02783,-0.03931,0.51611,-40.137,-25.275,-6.702
2026-06-10 16:15:09.077,2991648533,21077,2,1.11108,0.0022,0.46533,-68.046,-24.466,-15.153
2026-06-10 16:15:09.312,2991648768,21312,1,0.94043,-0.0603,0.57568,-32.763,21.26,-19.237
2026-06-10 16:15:09.312,2991648768,21312,2,1.00977,-0.11011,0.33301,-38.137,17.695,3.015
2026-06-10 16:15:09.512,2991648968,21512,1,0.90698,-0.1853,0.54517,-25.519,15.71,-13.061
2026-06-10 16:15:09.512,2991648968,21512,2,1.00708,-0.10645,0.3855,-37.489,8.221,-12.275
2026-06-10 16:15:10.712,2991650168,21712,1,0.85107,-0.17432,0.5603,-3.366,12.107,-15.87
2026-06-10 16:15:10.712,2991650168,21712,2,0.97974,-0.12183,0.37695,7.046,-0.443,-10.779
2026-06-10 16:15:10.912,2991650368,21912,1,0.8833,-0.02588,0.59937,2.107,22.985,-23.817
2026-06-10 16:15:10.912,2991650368,21912,2,0.99438,-0.09766,0.44678,-23.084,-18.595,8.595
2026-06-10 16:15:10.112,2991649568,22112,1,0.83252,0.01538,0.6582,-22.092,-3.916,-10.084
2026-06-10 16:15:10.112,2991649568,22112,2,0.97607,0.01001,0.47412,-0.053,14.947,-1.786
2026-06-10 16:15:10.312,2991649768,22312,1,0.82104,0.03101,0.65918,4.351,12.511,7.779
2026-06-10 16:15:10.312,2991649768,22312,2,1.01025,0.01318,0.37671,-10.977,5.267,-15.29
2026-06-10 16:15:11.763,2991651219,22763,1,0.85352,-0.02979,0.66431,-4.16,-7.008,8.0
2026-06-10 16:15:11.763,2991651219,22763,2,1.06445,0.02563,0.46973,-1.87,-10.588,-0.641
2026-06-10 16:15:11.127,2991650583,23127,1,0.92017,-0.13721,0.63989,24.16,-15.733,13.573
2026-06-10 16:15:11.127,2991650583,23127,2,1.01978,-0.104,0.40625,70.527,2.076,15.611
2026-06-10 16:15:11.507,2991650963,23507,1,0.91821,-0.09058,0.57495,67.588,-6.183,38.519
2026-06-10 16:15:11.507,2991650963,23507,2,1.01074,-0.12427,0.31616,81.992,-7.87,29.137
2026-06-10 16:15:12.729,2991652185,23729,1,0.87305,0.0188,0.60815,58.122,4.786,34.924
2026-06-10 16:15:12.729,2991652185,23729,2,0.99536,-0.05835,0.29736,69.275,-7.092,25.794
2026-06-10 16:15:12.952,2991652408,23952,1,0.93042,0.0144,0.55835,51.618,-3.137,37.901
2026-06-10 16:15:12.952,2991652408,23952,2,1.0437,-0.0249,0.31055,45.489,3.122,14.947
2026-06-10 16:15:12.152,2991651608,24152,1,0.92773,-0.01514,0.53857,37.008,-0.366,24.275
2026-06-10 16:15:12.152,2991651608,24152,2,1.02368,-0.04858,0.31274,41.229,3.634,10.29
2026-06-10 16:15:12.352,2991651808,24352,1,0.92847,-0.01294,0.53882,22.313,-3.763,12.229
2026-06-10 16:15:12.352,2991651808,24352,2,1.05444,-0.0791,0.33276,35.519,-0.45,12.489
2026-06-10 16:15:13.726,2991653182,24726,1,0.89282,0.07471,0.58032,46.702,8.328,24.137
2026-06-10 16:15:13.726,2991653182,24726,2,1.02954,-0.01563,0.31104,33.313,2.153,3.756
2026-06-10 16:15:13.942,2991653398,24942,1,0.89355,0.02856,0.57471,22.366,-1.183,18.397
2026-06-10 16:15:13.942,2991653398,24942,2,1.04053,-0.03076,0.29736,23.504,-0.847,9.015
2026-06-10 16:15:13.142,2991652598,25142,1,0.94238,-0.00806,0.51978,33.244,-2.954,22.382
2026-06-10 16:15:13.142,2991652598,25142,2,1.02637,-0.04175,0.31055,40.695,0.466,12.412
2026-06-10 16:15:13.342,2991652798,25342,1,0.91016,0.00586,0.54321,50.519,1.366,35.389
2026-06-10 16:15:13.342,2991652798,25342,2,1.0498,-0.0061,0.3208,72.817,2.084,13.87
2026-06-10 16:15:13.592,2991653048,25592,1,0.90137,-0.00684,0.56396,61.145,2.74,25.992
2026-06-10 16:15:13.592,2991653048,25592,2,1.0293,-0.09619,0.42749,81.634,8.191,25.16
2026-06-10 16:15:14.792,2991654248,25792,1,0.9248,-0.08569,0.55811,64.321,4.74,36.298
2026-06-10 16:15:14.792,2991654248,25792,2,1.00024,-0.09253,0.3269,66.527,-10.939,19.931
2026-06-10 16:15:14.992,2991654448,25992,1,0.94067,-0.03027,0.52124,60.901,-1.924,31.374
2026-06-10 16:15:14.992,2991654448,25992,2,1.04688,-0.06714,0.30591,60.244,-3.664,13.908
2026-06-10 16:15:14.192,2991653648,26192,1,0.8894,-0.03296,0.54761,51.443,-4.626,31.053
2026-06-10 16:15:14.192,2991653648,26192,2,1.12085,0.00732,0.25391,56.458,-18.718,22.603
2026-06-10 16:15:14.392,2991653848,26392,1,0.97021,-0.02148,0.53516,43.779,-1.511,23.015
2026-06-10 16:15:14.392,2991653848,26392,2,1.02734,-0.07056,0.29541,30.382,-11.71,8.618
2026-06-10 16:15:14.686,2991654142,26685,1,0.94482,0.01099,0.46729,25.153,-1.534,9.466
2026-06-10 16:15:14.686,2991654142,26685,2,1.05322,-0.01245,0.21826,31.939,4.115,-2.664
2026-06-10 16:15:15.885,2991655341,26885,1,0.9187,0.05957,0.43701,24.344,4.557,-2.16
2026-06-10 16:15:15.885,2991655341,26885,2,1.06519,-0.02319,0.20605,4.641,-13.71,-2.076
2026-06-10 16:15:15.085,2991654541,27085,1,0.95801,0.05347,0.46191,5.473,7.756,-6.221
2026-06-10 16:15:15.085,2991654541,27085,2,1.12476,-0.12183,0.31274,7.145,-4.473,3.557
2026-06-10 16:15:15.285,2991654741,27285,1,0.94336,0.08105,0.49097,-6.153,1.092,-2.389
2026-06-10 16:15:15.285,2991654741,27285,2,1.02881,-0.04126,0.29932,0.344,9.046,-3.893
2026-06-10 16:15:15.527,2991654983,27527,1,0.948,0.04932,0.50903,-0.427,7.763,4.053
2026-06-10 16:15:15.527,2991654983,27527,2,1.04395,-0.0708,0.26538,4.542,5.656,1.458
2026-06-10 16:15:16.793,2991656249,27793,1,0.95996,0.02319,0.49927,-2.298,3.687,1.527
2026-06-10 16:15:16.793,2991656249,27793,2,1.04565,-0.08203,0.27246,-3.84,1.214,-0.26
2026-06-10 16:15:16.993,2991656449,27993,1,0.95044,0.0271,0.50171,-1.008,3.252,0.092
2026-06-10 16:15:16.993,2991656449,27993,2,1.04199,-0.07056,0.28589,-0.55,3.328,0.527
2026-06-10 16:15:16.193,2991655649,28193,1,0.94531,0.01807,0.50928,0.916,2.931,0.504
2026-06-10 16:15:16.193,2991655649,28193,2,1.04663,-0.0813,0.29175,1.55,2.504,0.244
2026-06-10 16:15:16.393,2991655849,28393,1,0.94263,0.01953,0.50122,2.221,2.153,0.855
2026-06-10 16:15:16.393,2991655849,28393,2,1.05054,-0.08081,0.29297,2.076,1.649,0.107
2026-06-10 16:15:16.593,2991656049,28593,1,0.95483,0.02051,0.49927,4.237,2.573,0.359
2026-06-10 16:15:16.593,2991656049,28593,2,1.03101,-0.08325,0.28662,3.985,3.031,0.901
2026-06-10 16:15:17.793,2991657249,28793,1,0.95068,0.04541,0.50732,0.107,3.405,3.763
2026-06-10 16:15:17.793,2991657249,28793,2,1.03882,-0.08716,0.28442,6.115,3.656,1.618
2026-06-10 16:15:17.993,2991657449,28993,1,0.96509,-0.02539,0.47998,6.275,10.71,4.496
2026-06-10 16:15:17.993,2991657449,28993,2,1.06665,-0.07568,0.30005,5.802,3.84,-2.053
2026-06-10 16:15:17.193,2991656649,29193,1,0.92065,0.06372,0.52319,2.992,10.947,0.618
2026-06-10 16:15:17.193,2991656649,29193,2,1.02954,-0.07544,0.30811,-2.588,0.206,1.443
2026-06-10 16:15:17.393,2991656849,29393,1,0.98218,0.06323,0.55493,-19.55,12.855,-15.061
2026-06-10 16:15:17.393,2991656849,29393,2,1.03662,-0.07813,0.34961,4.878,-13.611,2.374
2026-06-10 16:15:17.637,2991657093,29637,1,0.90527,0.0144,0.56641,-11.939,4.031,15.237
2026-06-10 16:15:17.637,2991657093,29637,2,1.02393,-0.10522,0.34839,-12.267,14.603,18.87
2026-06-10 16:15:18.837,2991658293,29837,1,0.93652,-0.10059,0.53076,-4.153,-3.87,9.664
2026-06-10 16:15:18.837,2991658293,29837,2,0.99805,-0.1792,0.32861,-12.687,-6.115,9.916
2026-06-10 16:15:18.037,2991657493,30037,1,0.99341,-0.18262,0.45947,1.748,-7.985,6.771
2026-06-10 16:15:18.037,2991657493,30037,2,1.0376,-0.20874,0.34106,4.947,10.947,-1.412
2026-06-10 16:15:18.237,2991657693,30237,1,0.948,-0.13135,0.47559,8.16,7.962,3.0
2026-06-10 16:15:18.237,2991657693,30237,2,1.01685,-0.19482,0.32617,3.282,-2.405,-5.328
2026-06-10 16:15:18.437,2991657893,30437,1,0.92188,-0.10645,0.51221,2.336,3.26,-2.863
2026-06-10 16:15:18.437,2991657893,30437,2,1.01953,-0.17358,0.35596,7.046,6.718,-4.985
2026-06-10 16:15:18.672,2991658128,30671,1,0.95264,-0.03613,0.4751,-1.832,10.244,0.595
2026-06-10 16:15:18.672,2991658128,30671,2,1.06787,-0.16309,0.27368,-14.969,7.992,-0.863
2026-06-10 16:15:19.871,2991659327,30871,1,0.93555,-0.04028,0.53174,-15.771,5.687,-9.0
2026-06-10 16:15:19.871,2991659327,30871,2,1.10596,-0.19556,0.36157,-29.206,-8.298,2.908
2026-06-10 16:15:19.071,2991658527,31071,1,0.87988,-0.05103,0.52686,0.71,7.916,0.84
2026-06-10 16:15:19.071,2991658527,31071,2,1.0376,-0.13379,0.28369,-25.382,-11.748,-8.046
2026-06-10 16:15:19.271,2991658727,31271,1,0.8938,-0.13452,0.48511,-11.863,0.916,-4.817
2026-06-10 16:15:19.271,2991658727,31271,2,1.03857,-0.15088,0.27783,-26.573,-14.061,-16.076
2026-06-10 16:15:19.471,2991658927,31471,1,0.90527,-0.04492,0.50049,-5.71,4.939,-15.046
2026-06-10 16:15:19.471,2991658927,31471,2,1.05371,-0.13452,0.2998,-23.832,-2.351,-9.489
2026-06-10 16:15:19.671,2991659127,31671,1,0.948,-0.11377,0.48828,-13.275,6.618,-13.214
2026-06-10 16:15:19.671,2991659127,31671,2,1.04419,-0.13574,0.30493,3.679,8.595,2.29
2026-06-10 16:15:20.975,2991660431,31975,1,0.96729,-0.05786,0.48193,-3.611,10.206,-2.603
2026-06-10 16:15:20.975,2991660431,31975,2,1.02783,-0.19873,0.31323,-4.664,9.695,-1.42
2026-06-10 16:15:20.175,2991659631,32175,1,0.94165,-0.11719,0.48999,-0.237,9.695,-1.901
2026-06-10 16:15:20.175,2991659631,32175,2,1.00732,-0.22827,0.32349,2.504,4.901,-3.237
2026-06-10 16:15:20.375,2991659831,32375,1,0.92773,-0.13867,0.49463,-3.969,4.885,1.275
2026-06-10 16:15:20.375,2991659831,32375,2,1.22266,0.00293,0.41113,-15.588,2.611,7.29
2026-06-10 16:15:20.667,2991660123,32667,1,0.83276,-0.09839,0.58789,-32.878,-27.427,-11.702
2026-06-10 16:15:20.667,2991660123,32667,2,1.04272,0.09937,0.38525,36.008,15.878,-8.542
2026-06-10 16:15:21.113,2991660569,33113,1,0.83008,0.0354,0.58789,-11.198,9.786,-5.611
2026-06-10 16:15:21.113,2991660569,33113,2,1.04785,-0.0271,0.3479,-58.534,-15.061,0.084
2026-06-10 16:15:21.416,2991660872,33416,1,0.96509,-0.04102,0.50879,-52.656,-35.924,-20.664
2026-06-10 16:15:21.416,2991660872,33416,2,1.0498,0.00415,0.32178,-44.58,16.832,-29.71
2026-06-10 16:15:21.621,2991661077,33621,1,0.8667,-0.15796,0.52515,-30.718,10.298,-19.634
2026-06-10 16:15:21.621,2991661077,33621,2,0.94336,-0.15649,0.35547,-47.038,4.603,-26.611
2026-06-10 16:15:21.621,2991661077,33621,2,0.94336,-0.15649,0.35547,-47.038,4.603,-26.611
2026-06-10 16:15:27.778,2991667234,38778,1,0.9209,-0.09595,0.45532,1.824,4.908,-5.656
2026-06-10 16:15:27.778,2991667234,38778,2,1.02051,-0.10815,0.30786,4.954,3.618,2.176
2026-06-10 16:15:27.978,2991667434,38978,1,0.93896,-0.10864,0.47168,16.519,6.053,8.176
2026-06-10 16:15:27.978,2991667434,38978,2,1.03564,-0.0625,0.3313,18.13,8.153,-6.71
2026-06-10 16:15:27.377,2991666833,39377,1,0.88843,-0.00635,0.5271,-8.046,-13.328,5.099
2026-06-10 16:15:27.377,2991666833,39377,1,0.88843,-0.00635,0.5271,-8.046,-13.328,5.099
2026-06-10 16:15:27.377,2991666833,39377,2,1.0061,-0.09521,0.32251,34.397,-4.985,17.45
2026-06-10 16:15:32.589,2991672045,44589,1,0.93921,-0.08813,0.50562,39.542,-8.534,26.565
2026-06-10 16:15:32.589,2991672045,44589,2,1.09717,0.00488,0.27124,27.13,-12.214,-3.962
2026-06-10 16:15:33.789,2991673245,44789,1,0.9541,-0.04175,0.47485,17.145,-7.412,7.527
2026-06-10 16:15:33.789,2991673245,44789,1,0.9541,-0.04175,0.47485,17.145,-7.412,7.527
2026-06-10 16:15:33.789,2991673245,44789,2,1.13574,-0.15015,0.08643,56.267,1.87,10.931
2026-06-10 16:15:38.224,2991677680,50224,1,0.97144,-0.11694,0.36938,-10.832,24.252,-16.901
2026-06-10 16:15:38.224,2991677680,50224,1,0.97144,-0.11694,0.36938,-10.832,24.252,-16.901
2026-06-10 16:15:38.224,2991677680,50224,2,1.1228,0.01782,0.29224,-11.115,-9.733,-3.053
2026-06-10 16:15:43.524,2991682980,55524,1,0.95923,-0.03247,0.42896,-5.198,6.008,-7.603
2026-06-10 16:15:43.524,2991682980,55524,2,1.0564,0.00073,0.23242,-7.45,11.511,-7.405
2026-06-10 16:15:44.731,2991684187,55731,1,0.94214,-0.06372,0.46094,-8.13,5.916,-3.267
2026-06-10 16:15:44.731,2991684187,55731,2,1.0271,0.01172,0.1814,-7.863,0.16,-4.42
2026-06-10 16:15:44.019,2991683475,56019,1,0.94165,-0.10693,0.48853,4.229,6.733,4.412
2026-06-10 16:15:44.019,2991683475,56019,1,0.94165,-0.10693,0.48853,4.229,6.733,4.412
2026-06-10 16:15:44.019,2991683475,56019,2,0.9834,0.03345,0.36499,143.389,5.695,26.023
2026-06-10 16:15:49.169,2991688625,61169,1,0.90015,0.01147,0.55273,115.817,-9.947,74.817
2026-06-10 16:15:49.169,2991688625,61169,2,1.02856,0.07202,0.31152,128.679,5.466,30.947
2026-06-10 16:15:49.369,2991688825,61369,1,0.86011,0.09766,0.60449,94.977,-13.389,75.489
2026-06-10 16:15:49.369,2991688825,61369,2,1.08032,0.17407,0.26855,66.748,-7.74,23.206
2026-06-10 16:15:49.569,2991689025,61569,1,0.88501,0.03613,0.61914,25.885,-9.092,27.763
2026-06-10 16:15:49.569,2991689025,61569,2,0.97729,0.13159,0.35156,-14.809,-9.153,-0.336
2026-06-10 16:15:50.769,2991690225,61769,1,0.93652,0.01685,0.53564,-26.634,5.061,-19.168
2026-06-10 16:15:50.769,2991690225,61769,2,1.01001,0.10986,0.28369,-30.153,9.58,5.74
2026-06-10 16:15:50.969,2991690425,61969,1,1.00928,-0.11304,0.54395,-67.992,18.969,-40.076
2026-06-10 16:15:50.969,2991690425,61969,2,1.0415,0.05298,0.33105,-90.099,-1.71,-21.863
2026-06-10 16:15:50.169,2991689625,62169,1,0.90625,-0.04517,0.56201,-83.748,11.336,-41.389
2026-06-10 16:15:50.169,2991689625,62169,2,1.0481,0.02515,0.27954,-86.046,-0.84,-10.046
2026-06-10 16:15:50.369,2991689825,62369,1,0.93335,-0.08423,0.50122,-91.511,15.557,-51.534
2026-06-10 16:15:50.369,2991689825,62369,2,1.05273,-0.00049,0.33545,-104.725,11.763,-28.702
2026-06-10 16:15:50.569,2991690025,62569,1,0.87256,-0.31812,0.5127,-104.649,40.458,-61.076
2026-06-10 16:15:50.569,2991690025,62569,1,0.87256,-0.31812,0.5127,-104.649,40.458,-61.076
2026-06-10 16:15:50.569,2991690025,62569,2,1.05713,-0.07471,0.29907,-24.008,-5.237,1.267
2026-06-10 16:15:56.720,2991696176,67720,1,0.95703,-0.07642,0.43579,-13.58,-0.405,-6.305
2026-06-10 16:15:56.720,2991696176,67720,2,1.02979,-0.07642,0.25073,-19.565,-1.832,-3.435
2026-06-10 16:15:56.920,2991696376,67920,1,0.96021,-0.08789,0.44995,-1.427,5.672,-0.313
2026-06-10 16:15:56.920,2991696376,67920,2,1.09619,-0.05981,0.27686,6.687,0.366,-1.076
2026-06-10 16:15:56.120,2991695576,68120,1,0.91187,-0.07642,0.521,3.351,10.107,2.702
2026-06-10 16:15:56.120,2991695576,68120,2,1.0437,-0.09497,0.46948,15.992,5.412,14.588
2026-06-10 16:15:56.333,2991695789,68333,1,0.95581,-0.07031,0.50708,7.893,8.351,7.214
2026-06-10 16:15:56.333,2991695789,68333,2,1.02881,-0.04785,0.26807,7.366,6.763,-2.038
2026-06-10 16:15:56.567,2991696023,68567,1,0.94043,-0.0918,0.50171,-2.0,-1.458,-1.855
2026-06-10 16:15:56.567,2991696023,68567,2,1.05005,-0.04858,0.30225,-1.779,-0.076,-0.153
2026-06-10 16:15:57.767,2991697223,68767,1,0.93896,-0.09473,0.49536,-0.649,3.221,-0.008
2026-06-10 16:15:57.767,2991697223,68767,2,1.04126,-0.04126,0.30762,-0.053,1.496,-1.145
2026-06-10 16:15:57.967,2991697423,68967,1,0.93408,-0.1001,0.51221,-0.42,4.008,0.786
2026-06-10 16:15:57.967,2991697423,68967,2,1.04468,-0.04346,0.3042,1.046,1.969,-0.74
2026-06-10 16:15:57.167,2991696623,69167,1,0.93042,-0.0957,0.51343,1.847,3.611,1.481
2026-06-10 16:15:57.167,2991696623,69167,2,1.03955,-0.03955,0.31177,0.29,2.519,-1.832
2026-06-10 16:15:57.367,2991696823,69367,1,0.92554,-0.08643,0.5127,1.939,2.901,0.076
2026-06-10 16:15:57.367,2991696823,69367,2,1.0376,-0.03809,0.29297,1.412,0.496,-0.015
2026-06-10 16:15:57.567,2991697023,69567,1,0.94019,-0.0979,0.50439,3.656,1.107,1.275
2026-06-10 16:15:57.567,2991697023,69567,2,1.04053,-0.03662,0.31763,1.954,-1.015,0.672
2026-06-10 16:15:58.767,2991698223,69767,1,0.92529,-0.10571,0.51489,9.344,-1.313,5.527
2026-06-10 16:15:58.767,2991698223,69767,2,1.0376,-0.03296,0.30713,12.855,-1.351,3.45
2026-06-10 16:15:58.967,2991698423,69967,1,0.96606,-0.08398,0.47778,8.366,4.084,4.29
2026-06-10 16:15:58.967,2991698423,69967,2,1.05322,-0.04224,0.2876,4.733,4.336,-0.832
2026-06-10 16:15:58.168,2991697624,70168,1,0.94727,-0.0874,0.50708,0.679,4.901,0.145
2026-06-10 16:15:58.168,2991697624,70168,2,1.04736,-0.03564,0.29785,0.466,3.74,-2.183
2026-06-10 16:15:58.368,2991697824,70368,1,0.93774,-0.08691,0.50977,-0.412,5.366,-1.046
2026-06-10 16:15:58.368,2991697824,70368,2,1.03833,-0.03223,0.30981,-1.153,2.176,-1.756
2026-06-10 16:15:58.568,2991698024,70568,1,0.92822,-0.08569,0.52393,-0.87,3.061,-0.756
2026-06-10 16:15:58.568,2991698024,70568,2,1.03784,-0.0376,0.31763,-2.153,1.527,-0.649
2026-06-10 16:15:59.882,2991699338,70882,1,0.93213,-0.09302,0.52075,-1.092,2.084,0.107
2026-06-10 16:15:59.882,2991699338,70882,2,1.04346,-0.03735,0.32031,1.489,1.412,-0.534
2026-06-10 16:15:59.082,2991698538,71082,1,0.93213,-0.08765,0.5188,3.29,0.992,2.626
2026-06-10 16:15:59.082,2991698538,71082,2,1.04517,-0.03027,0.3186,3.893,0.992,0.092
2026-06-10 16:15:59.282,2991698738,71282,1,0.94116,-0.07837,0.50732,3.137,1.771,1.611
2026-06-10 16:15:59.282,2991698738,71282,2,1.03955,-0.04077,0.32349,-0.42,0.427,-0.725
2026-06-10 16:15:59.482,2991698938,71482,1,0.94141,-0.0874,0.50122,-0.58,1.534,0.84
2026-06-10 16:15:59.482,2991698938,71482,2,1.03882,-0.04321,0.30981,-0.771,1.023,0.115
2026-06-10 16:15:59.682,2991699138,71682,1,0.93945,-0.09106,0.50757,-1.107,1.641,1.076
2026-06-10 16:15:59.682,2991699138,71682,2,1.04272,-0.04419,0.31055,-1.695,1.298,-0.542
2026-06-10 16:16:00.882,2991700338,71882,1,0.94067,-0.10278,0.49561,-1.0,1.389,0.634
2026-06-10 16:16:00.882,2991700338,71882,2,1.03369,-0.04004,0.30811,0.466,1.519,-0.481
2026-06-10 16:16:00.082,2991699538,72082,1,0.93384,-0.09937,0.50391,-1.321,0.023,0.435
2026-06-10 16:16:00.082,2991699538,72082,2,1.03906,-0.0481,0.30469,-0.344,1.511,-1.0
2026-06-10 16:16:00.350,2991699806,72349,1,0.94482,-0.10107,0.48804,-0.137,1.008,0.603
2026-06-10 16:16:00.350,2991699806,72349,2,1.03662,-0.03979,0.30396,0.351,1.206,-0.351
2026-06-10 16:16:00.549,2991700005,72549,1,0.94141,-0.09888,0.49243,-0.275,2.519,-0.42
2026-06-10 16:16:00.549,2991700005,72549,2,1.04224,-0.04663,0.29102,0.504,1.267,-0.55
2026-06-10 16:16:01.749,2991701205,72749,1,0.9353,-0.10083,0.49194,0.588,3.107,-1.046
2026-06-10 16:16:01.749,2991701205,72749,2,1.04272,-0.04028,0.29492,0.595,1.443,-1.359
2026-06-10 16:16:01.949,2991701405,72949,1,0.94824,-0.10278,0.48633,-0.206,1.221,-0.779
2026-06-10 16:16:01.949,2991701405,72949,2,1.03687,-0.03857,0.29517,1.542,1.405,-0.542
2026-06-10 16:16:01.149,2991700605,73149,1,0.94434,-0.0918,0.50195,1.458,1.198,-0.344
2026-06-10 16:16:01.149,2991700605,73149,2,1.04224,-0.03589,0.29346,1.0,1.534,-0.496
2026-06-10 16:16:01.349,2991700805,73349,1,0.93384,-0.08496,0.48828,0.29,1.939,-0.198
2026-06-10 16:16:01.349,2991700805,73349,2,1.03931,-0.04077,0.2937,-0.74,1.863,-0.924
2026-06-10 16:16:01.549,2991701005,73549,1,0.9397,-0.09009,0.48315,0.229,3.107,0.405
2026-06-10 16:16:01.549,2991701005,73549,2,1.04614,-0.04443,0.28833,0.534,1.176,-0.191
2026-06-10 16:16:02.755,2991702211,73755,1,0.93945,-0.08569,0.49243,0.771,2.771,0.137
2026-06-10 16:16:02.755,2991702211,73755,2,1.04517,-0.03467,0.28809,0.58,1.45,-1.0
2026-06-10 16:16:02.955,2991702411,73955,1,0.94263,-0.09106,0.49121,1.26,0.931,0.794
2026-06-10 16:16:02.955,2991702411,73955,2,1.04565,-0.04248,0.29736,2.55,2.221,-0.008
2026-06-10 16:16:02.155,2991701611,74155,1,0.93311,-0.09155,0.49438,1.237,1.771,1.489
2026-06-10 16:16:02.155,2991701611,74155,2,1.04468,-0.04346,0.29297,0.466,-0.206,0.802
2026-06-10 16:16:02.355,2991701811,74355,1,0.94971,-0.0896,0.4834,0.336,0.71,1.252
2026-06-10 16:16:02.355,2991701811,74355,2,1.04492,-0.0271,0.28467,-1.145,0.954,-1.267
2026-06-10 16:16:02.555,2991702011,74555,1,0.9458,-0.08984,0.48438,-0.374,1.687,-0.16
2026-06-10 16:16:02.555,2991702011,74555,2,1.04321,-0.04541,0.29907,1.504,1.298,-0.771
2026-06-10 16:16:03.755,2991703211,74755,1,0.96533,-0.08936,0.48828,1.603,2.817,-0.046
2026-06-10 16:16:03.755,2991703211,74755,2,1.04053,-0.03052,0.30249,2.481,5.084,-2.298
2026-06-10 16:16:03.955,2991703411,74955,1,0.97241,-0.09595,0.47388,2.969,12.137,0.443
2026-06-10 16:16:03.955,2991703411,74955,2,1.0625,-0.00635,0.33423,3.183,15.473,-10.863
2026-06-10 16:16:03.155,2991702611,75155,1,0.90308,-0.07202,0.54785,8.053,33.237,0.099
2026-06-10 16:16:03.155,2991702611,75155,2,1.01807,0.06641,0.42041,8.061,35.466,-23.229
2026-06-10 16:16:03.355,2991702811,75355,1,0.83228,-0.07471,0.58496,9.87,60.641,-2.443
2026-06-10 16:16:03.355,2991702811,75355,2,0.86865,0.19458,0.57129,9.687,71.237,-52.229
2026-06-10 16:16:03.555,2991703011,75555,1,0.53662,-0.01123,0.70313,14.893,98.802,-4.718
2026-06-10 16:16:03.555,2991703011,75555,2,0.72778,0.3147,0.69116,0.611,78.939,-61.458
2026-06-10 16:16:04.755,2991704211,75755,1,0.28076,0.03784,0.91504,14.305,117.344,-10.641
2026-06-10 16:16:04.755,2991704211,75755,2,0.36841,0.4624,0.81152,-5.527,67.0,-38.565
2026-06-10 16:16:04.955,2991704411,75955,1,-0.16187,0.14063,1.19482,17.427,72.931,-5.29
2026-06-10 16:16:04.955,2991704411,75955,2,0.2417,0.45508,1.0603,-18.611,18.573,-22.107
2026-06-10 16:16:04.155,2991703611,76155,1,-0.33081,0.22705,1.19019,20.634,36.511,8.275
2026-06-10 16:16:04.155,2991703611,76155,2,0.15918,0.54419,0.95801,6.42,-4.252,-0.435
2026-06-10 16:16:04.355,2991703811,76355,1,-0.19507,0.10107,1.0564,14.557,0.916,4.344
2026-06-10 16:16:04.355,2991703811,76355,2,0.11987,0.46362,0.96826,0.473,-5.626,-1.748
2026-06-10 16:16:04.555,2991704011,76555,1,-0.20142,0.16187,0.95239,1.099,3.847,-1.931
2026-06-10 16:16:04.555,2991704011,76555,2,0.09814,0.49634,0.99805,2.519,6.466,-9.42
2026-06-10 16:16:05.803,2991705259,76803,1,-0.26538,0.18066,1.01074,0.58,6.641,-9.084
2026-06-10 16:16:05.803,2991705259,76803,2,0.09131,0.50146,0.97559,-1.26,-2.771,-9.481
2026-06-10 16:16:05.008,2991704464,77008,1,-0.29224,0.14917,0.98071,-7.573,0.321,-10.275
2026-06-10 16:16:05.008,2991704464,77008,2,0.08398,0.48828,0.99487,-0.603,1.496,-2.924
2026-06-10 16:16:05.208,2991704664,77208,1,-0.30688,0.14307,1.01318,1.282,7.313,2.489
2026-06-10 16:16:05.208,2991704664,77208,2,0.08398,0.49658,0.96729,1.649,6.55,2.214
2026-06-10 16:16:05.408,2991704864,77408,1,-0.30566,0.12671,1.00513,-1.046,3.939,2.45
2026-06-10 16:16:05.408,2991704864,77408,2,0.10376,0.46875,0.95386,0.344,4.305,-0.328
2026-06-10 16:16:05.608,2991705064,77608,1,-0.29028,0.19434,0.99512,-4.092,-0.527,7.855
2026-06-10 16:16:05.608,2991705064,77608,2,0.08496,0.51685,0.97363,-2.183,2.489,6.542
2026-06-10 16:16:06.808,2991706264,77808,1,-0.29102,0.15186,0.97241,-2.466,3.794,-0.191
2026-06-10 16:16:06.808,2991706264,77808,2,0.08936,0.50098,0.95093,-1.763,1.573,0.603
2026-06-10 16:16:06.008,2991705464,78008,1,-0.30469,0.15796,1.0061,1.084,2.931,-1.511
2026-06-10 16:16:06.008,2991705464,78008,2,0.07715,0.48828,0.96216,3.725,2.107,1.115
2026-06-10 16:16:06.224,2991705680,78224,1,-0.29517,0.15259,0.98926,-0.916,0.992,0.13
2026-06-10 16:16:06.224,2991705680,78224,2,0.08179,0.49512,0.96997,0.13,1.382,-0.863
2026-06-10 16:16:06.424,2991705880,78424,1,-0.28589,0.14893,0.99756,0.947,3.603,-0.313
2026-06-10 16:16:06.424,2991705880,78424,2,0.09302,0.49463,0.96704,0.466,1.809,-2.206
2026-06-10 16:16:06.624,2991706080,78624,1,-0.30151,0.14624,0.99438,0.275,2.893,0.313
2026-06-10 16:16:06.624,2991706080,78624,2,0.08521,0.49902,0.94482,1.634,2.71,-1.336
2026-06-10 16:16:07.824,2991707280,78824,1,-0.2981,0.14502,0.99487,3.397,4.588,-0.679
2026-06-10 16:16:07.824,2991707280,78824,2,0.07227,0.49878,0.95728,4.328,1.748,-0.13
2026-06-10 16:16:07.024,2991706480,79024,1,-0.30908,0.16406,0.98804,-4.557,2.824,-3.87
2026-06-10 16:16:07.024,2991706480,79024,2,0.06201,0.5061,0.94653,4.198,-0.321,-4.008
2026-06-10 16:16:07.224,2991706680,79224,1,-0.31836,0.16064,0.98169,2.863,1.771,-1.145
2026-06-10 16:16:07.224,2991706680,79224,2,0.08252,0.52222,0.94165,0.183,-1.496,-3.924
2026-06-10 16:16:07.424,2991706880,79424,1,-0.29517,0.16284,0.97583,1.344,2.29,-5.069
2026-06-10 16:16:07.424,2991706880,79424,2,0.07251,0.51782,0.93945,3.321,2.0,-5.458
2026-06-10 16:16:07.624,2991707080,79624,1,-0.33521,0.1311,1.02075,0.382,0.351,-1.931
2026-06-10 16:16:07.624,2991707080,79624,2,0.08569,0.53052,0.93433,0.908,-3.26,0.634
2026-06-10 16:16:08.870,2991708326,79870,1,-0.29492,0.14893,0.98242,0.672,1.802,-2.305
2026-06-10 16:16:08.870,2991708326,79870,2,0.07495,0.50244,0.96582,-3.214,-0.534,2.344
2026-06-10 16:16:08.070,2991707526,80070,1,-0.2998,0.12231,0.99146,3.099,-0.916,2.359
2026-06-10 16:16:08.070,2991707526,80070,2,0.09497,0.51074,0.9353,1.458,0.252,-1.282
2026-06-10 16:16:08.270,2991707726,80270,1,-0.28394,0.13428,0.98486,-0.962,1.374,-1.405
2026-06-10 16:16:08.270,2991707726,80270,2,0.08691,0.50439,0.96533,0.405,0.832,0.16
2026-06-10 16:16:08.470,2991707926,80470,1,-0.39624,0.1665,1.16162,-2.336,-9.328,-3.947
2026-06-10 16:16:08.470,2991707926,80470,2,0.07031,0.50537,1.04785,-0.679,-22.71,19.473
2026-06-10 16:16:08.670,2991708126,80670,1,-0.29688,0.13574,1.18066,2.053,-61.191,13.137
2026-06-10 16:16:08.670,2991708126,80670,2,0.32861,0.50757,0.89014,-1.58,-60.229,42.336
2026-06-10 16:16:09.870,2991709326,80870,1,0.07129,0.11499,1.04956,-17.031,-97.74,6.817
2026-06-10 16:16:09.870,2991709326,80870,2,0.62134,0.34619,0.78564,4.252,-76.71,62.565
2026-06-10 16:16:09.070,2991708526,81070,1,0.40942,0.01465,0.75464,-7.26,-105.504,14.023
2026-06-10 16:16:09.070,2991708526,81070,2,0.87866,0.10938,0.59644,-10.504,-71.618,61.977
2026-06-10 16:16:09.316,2991708772,81316,1,0.83667,-0.02441,0.55908,-18.748,-81.046,19.565
2026-06-10 16:16:09.316,2991708772,81316,2,1.03979,-0.00464,0.45386,-15.45,-37.031,38.878
2026-06-10 16:16:09.516,2991708972,81516,1,0.96973,-0.09912,0.4834,-6.122,-28.046,10.992
2026-06-10 16:16:09.516,2991708972,81516,2,1.07373,-0.0835,0.36255,-5.069,-12.405,18.679
2026-06-10 16:16:10.716,2991710172,81716,1,0.96533,-0.09668,0.46094,-0.046,-3.336,4.725
2026-06-10 16:16:10.716,2991710172,81716,2,1.0625,-0.1416,0.29541,-4.023,-5.855,7.061
2026-06-10 16:16:10.916,2991710372,81916,1,0.94849,-0.12573,0.47485,-4.382,5.626,-1.16
2026-06-10 16:16:10.916,2991710372,81916,2,1.0415,-0.13721,0.27612,-5.107,4.534,-3.603
2026-06-10 16:16:10.116,2991709572,82116,1,0.92603,-0.1084,0.49902,-3.489,9.16,-4.214
2026-06-10 16:16:10.116,2991709572,82116,2,1.03223,-0.16577,0.28833,-3.435,4.58,-3.664
2026-06-10 16:16:10.316,2991709772,82316,1,0.95508,-0.09619,0.4834,-0.328,10.267,-1.649
2026-06-10 16:16:10.316,2991709772,82316,2,1.0354,-0.10132,0.30981,-22.26,16.985,-15.053
2026-06-10 16:16:10.516,2991709972,82516,1,0.93823,-0.1875,0.52515,-31.328,14.397,-17.008
2026-06-10 16:16:10.516,2991709972,82516,2,1.02246,-0.20898,0.36426,-19.244,24.641,-28.42
2026-06-10 16:16:11.727,2991711183,82727,1,0.93066,-0.25732,0.48022,-7.29,10.855,-28.252
2026-06-10 16:16:11.727,2991711183,82727,2,1.00342,-0.22803,0.32788,-9.359,-6.595,-14.053
2026-06-10 16:16:11.927,2991711383,82927,1,0.94482,-0.08276,0.56323,-11.321,2.412,-24.649
2026-06-10 16:16:11.927,2991711383,82927,2,1.02832,-0.16821,0.29395,-21.122,12.496,-16.214
2026-06-10 16:16:11.145,2991710601,83145,1,0.85645,0.01855,0.67896,-18.344,29.702,-16.649
2026-06-10 16:16:11.145,2991710601,83145,2,1.06421,-0.07959,0.43115,-25.229,3.092,18.076
2026-06-10 16:16:11.145,2991710601,83145,2,1.06421,-0.07959,0.43115,-25.229,3.092,18.076
2026-06-10 16:16:16.302,2991715758,88301,1,0.9646,-0.26489,0.3457,-20.366,-0.046,-2.038
2026-06-10 16:16:16.302,2991715758,88301,2,1.01563,-0.36621,0.22852,-14.656,1.832,2.45
2026-06-10 16:16:16.501,2991715957,88501,1,0.97998,-0.27783,0.32251,10.45,1.214,8.481
2026-06-10 16:16:16.501,2991715957,88501,2,1.02222,-0.34961,0.23682,14.954,0.542,-4.427
2026-06-10 16:16:16.701,2991716157,88701,1,0.97998,-0.29688,0.31055,33.504,19.397,10.87
2026-06-10 16:16:16.701,2991716157,88701,2,0.99976,-0.27124,0.20483,25.122,7.947,-10.321
2026-06-10 16:16:17.901,2991717357,88901,1,0.91748,-0.23291,0.44336,11.313,4.725,-2.725
2026-06-10 16:16:17.901,2991717357,88901,1,0.91748,-0.23291,0.44336,11.313,4.725,-2.725
2026-06-10 16:16:17.901,2991717357,88901,2,1.02295,-0.19482,0.27783,-6.611,2.878,0.458
2026-06-10 16:16:22.264,2991721720,94263,1,0.95313,-0.271,0.41162,9.924,1.878,-1.313
2026-06-10 16:16:22.264,2991721720,94263,2,1.01221,-0.21167,0.24219,25.26,-2.87,4.893
2026-06-10 16:16:22.463,2991721919,94463,1,0.95239,-0.24878,0.40259,5.511,-12.87,3.198
2026-06-10 16:16:22.463,2991721919,94463,2,1.0105,-0.22119,0.31323,4.237,-6.046,-5.863
2026-06-10 16:16:22.663,2991722119,94663,1,0.97168,-0.16211,0.43701,9.351,-5.985,2.405
2026-06-10 16:16:22.663,2991722119,94663,2,1.0481,-0.15894,0.24683,5.344,1.542,-2.198
2026-06-10 16:16:23.863,2991723319,94863,1,0.94165,-0.18311,0.42773,15.153,3.13,-2.092
2026-06-10 16:16:23.863,2991723319,94863,2,1.04175,-0.18652,0.24561,2.397,-1.183,-2.328
2026-06-10 16:16:23.063,2991722519,95063,1,0.98364,-0.17651,0.37842,24.16,4.389,9.977
2026-06-10 16:16:23.063,2991722519,95063,2,1.0647,-0.14819,0.21143,17.298,-0.298,3.504
2026-06-10 16:16:23.063,2991722519,95063,2,1.0647,-0.14819,0.21143,17.298,-0.298,3.504
2026-06-10 16:16:33.260,2991732716,105260,1,0.90869,-0.03906,0.54443,26.29,18.725,10.42
2026-06-10 16:16:33.260,2991732716,105260,2,1.10083,-0.17798,0.29712,6.458,-3.183,10.611
2026-06-10 16:16:33.460,2991732916,105460,1,0.8938,-0.10791,0.54663,-0.252,-4.802,-2.282
2026-06-10 16:16:33.460,2991732916,105460,2,1.10352,-0.20337,0.34595,11.985,-7.71,21.443
2026-06-10 16:16:33.660,2991733116,105660,1,0.85278,-0.05762,0.60229,71.321,2.832,35.779
2026-06-10 16:16:33.660,2991733116,105660,2,1.01392,-0.08423,0.32227,22.954,0.855,-15.282
2026-06-10 16:16:34.860,2991734316,105860,1,0.93579,-0.12988,0.60229,-33.298,-29.947,-7.779
2026-06-10 16:16:34.860,2991734316,105860,2,0.97412,0.01074,0.26733,17.565,-11.893,-9.29
2026-06-10 16:16:34.060,2991733516,106060,1,0.93188,-0.17041,0.51489,8.122,-8.878,0.794
2026-06-10 16:16:34.060,2991733516,106060,2,1.11841,-0.1792,0.2876,26.13,7.122,16.115
2026-06-10 16:16:34.260,2991733716,106260,1,0.93311,-0.20166,0.43848,35.206,3.359,18.084
2026-06-10 16:16:34.260,2991733716,106260,2,1.03882,-0.16455,0.28174,41.153,-3.42,10.084
2026-06-10 16:16:34.460,2991733916,106460,1,0.90479,-0.17676,0.45874,48.473,-12.107,15.221
2026-06-10 16:16:34.460,2991733916,106460,2,1.01392,-0.19824,0.27612,28.885,-9.443,6.473
2026-06-10 16:16:34.660,2991734116,106660,1,0.93384,-0.15747,0.5105,28.527,-24.038,17.496
2026-06-10 16:16:34.660,2991734116,106660,2,1.14551,-0.11719,0.20117,57.588,21.511,7.206
2026-06-10 16:16:35.860,2991735316,106860,1,0.96118,-0.10059,0.49731,27.794,-4.496,23.733
2026-06-10 16:16:35.860,2991735316,106860,2,1.04565,-0.08643,0.25952,44.802,11.855,2.794
2026-06-10 16:16:35.060,2991734516,107060,1,0.94214,-0.07397,0.46753,18.305,-8.397,11.779
2026-06-10 16:16:35.060,2991734516,107060,2,1.0542,-0.10254,0.2666,19.924,-4.542,3.84
2026-06-10 16:16:35.260,2991734716,107260,1,0.93311,-0.09473,0.47412,16.565,0.771,8.267
2026-06-10 16:16:35.260,2991734716,107260,2,1.05493,-0.11304,0.24658,12.168,-1.435,2.611
2026-06-10 16:16:35.460,2991734916,107460,1,0.97998,-0.08594,0.50342,21.924,6.176,-1.565
2026-06-10 16:16:35.460,2991734916,107460,2,1.05859,-0.14575,0.28369,18.084,-3.122,-1.649
2026-06-10 16:16:35.660,2991735116,107660,1,0.90942,-0.05103,0.48413,23.626,10.45,12.573
2026-06-10 16:16:35.660,2991735116,107660,2,1.08789,-0.05396,0.20532,13.221,0.389,-4.427
2026-06-10 16:16:36.860,2991736316,107860,1,0.9082,-0.01074,0.47461,6.481,4.107,-4.84
2026-06-10 16:16:36.860,2991736316,107860,2,1.08887,-0.31323,0.44507,-6.084,-1.466,24.267
2026-06-10 16:16:36.060,2991735516,108060,1,0.89819,-0.08398,0.53125,-4.809,-2.748,8.313
2026-06-10 16:16:36.060,2991735516,108060,2,1.03809,-0.12964,0.24731,-1.145,7.26,-4.076
2026-06-10 16:16:36.260,2991735716,108260,1,0.93359,-0.10425,0.52539,-7.779,-4.817,5.702
2026-06-10 16:16:36.260,2991735716,108260,1,0.93359,-0.10425,0.52539,-7.779,-4.817,5.702
2026-06-10 16:16:36.260,2991735716,108260,2,1.03979,-0.1062,0.27368,1.473,-3.061,-1.344
2026-06-10 16:16:36.260,2991735716,108260,2,1.03979,-0.1062,0.27368,1.473,-3.061,-1.344
2026-06-10 16:16:56.470,2991755926,128470,1,0.89087,-0.19263,0.53125,-29.756,12.939,-14.45
2026-06-10 16:16:56.470,2991755926,128470,1,0.89087,-0.19263,0.53125,-29.756,12.939,-14.45
2026-06-10 16:16:56.470,2991755926,128470,2,1.0144,-0.05103,0.16846,13.557,11.183,14.336
2026-06-10 16:17:06.702,2991766158,138702,1,0.96558,-0.15796,0.40869,-9.824,1.45,-1.702
2026-06-10 16:17:06.702,2991766158,138702,2,1.09009,-0.03101,0.16211,-2.519,-7.038,10.313
2026-06-10 16:17:07.004,2991766460,139004,1,0.99658,-0.16235,0.38599,-4.878,-4.115,2.687
2026-06-10 16:17:07.004,2991766460,139004,2,1.07764,-0.04736,0.20679,-2.908,5.641,3.397
2026-06-10 16:17:07.215,2991766671,139215,1,0.93994,-0.13818,0.40112,-2.878,7.122,5.878
2026-06-10 16:17:07.215,2991766671,139215,2,1.05591,-0.04736,0.19067,0.237,3.504,5.87
2026-06-10 16:17:07.415,2991766871,139415,1,0.95044,-0.14697,0.42896,-0.931,5.031,1.756
2026-06-10 16:17:07.415,2991766871,139415,2,1.05957,-0.0686,0.18579,-1.023,3.74,1.817
2026-06-10 16:17:07.615,2991767071,139615,1,0.95972,-0.16162,0.42285,-0.664,2.725,0.13
2026-06-10 16:17:07.615,2991767071,139615,2,1.05493,-0.0918,0.19678,1.473,2.015,2.214
2026-06-10 16:17:08.881,2991768337,139881,1,0.96704,-0.17041,0.42041,-0.672,2.992,3.053
2026-06-10 16:17:08.881,2991768337,139881,2,1.04883,-0.10449,0.21729,-0.931,1.275,1.374
2026-06-10 16:17:08.151,2991767607,140151,1,0.95776,-0.1958,0.42505,0.176,1.008,2.466
2026-06-10 16:17:08.151,2991767607,140151,2,1.05811,-0.11035,0.19653,0.626,1.153,-0.947
2026-06-10 16:17:08.351,2991767807,140351,1,0.95996,-0.2085,0.42603,9.481,2.557,2.977
2026-06-10 16:17:08.351,2991767807,140351,2,1.03784,-0.09155,0.20679,5.702,5.298,-8.687
2026-06-10 16:17:08.551,2991768007,140551,1,0.95728,-0.20728,0.40796,5.878,-0.313,1.191
2026-06-10 16:17:08.551,2991768007,140551,2,1.04858,-0.07861,0.20483,3.885,1.115,-0.237
2026-06-10 16:17:09.937,2991769393,140937,1,0.95532,-0.1792,0.41064,-0.802,2.878,-1.298
2026-06-10 16:17:09.937,2991769393,140937,2,1.05762,-0.08862,0.20239,-1.458,1.496,-1.031
2026-06-10 16:17:09.154,2991768610,141153,1,0.95874,-0.18213,0.40649,-1.626,2.947,-2.45
2026-06-10 16:17:09.154,2991768610,141153,2,1.05566,-0.08496,0.19336,-0.237,0.603,-1.29
2026-06-10 16:17:09.373,2991768829,141373,1,0.96411,-0.16626,0.42261,2.16,2.466,0.42
2026-06-10 16:17:09.373,2991768829,141373,1,0.96411,-0.16626,0.42261,2.16,2.466,0.42
2026-06-10 16:17:09.373,2991768829,141373,2,0.15527,0.44604,0.99512,1.29,9.87,-12.351
2026-06-10 16:17:14.631,2991774087,146631,1,-0.30396,0.24316,1.0061,-0.221,8.687,-6.786
2026-06-10 16:17:14.631,2991774087,146631,2,0.1626,0.46875,0.96899,4.656,5.84,-2.962
2026-06-10 16:17:15.831,2991775287,146831,1,-0.323,0.22388,0.96851,1.824,5.038,-1.038
2026-06-10 16:17:15.831,2991775287,146831,2,0.15112,0.49316,0.96606,0.634,2.26,-2.435
2026-06-10 16:17:15.153,2991774609,147153,1,-0.31909,0.24292,0.96558,3.687,0.099,-0.595
2026-06-10 16:17:15.153,2991774609,147153,2,0.15503,0.48462,0.94922,2.305,1.588,-4.084
2026-06-10 16:17:15.376,2991774832,147376,1,-0.31396,0.26782,0.96362,6.031,3.122,0.733
2026-06-10 16:17:15.376,2991774832,147376,2,0.14575,0.5166,0.9436,1.16,1.878,-2.565
2026-06-10 16:17:15.578,2991775034,147578,1,-0.33423,0.27515,0.94556,2.885,2.832,0.229
2026-06-10 16:17:15.578,2991775034,147578,2,0.15381,0.49902,0.9502,3.107,2.695,-1.748
2026-06-10 16:17:16.778,2991776234,147778,1,-0.31934,0.28174,0.96533,1.466,2.29,-0.916
2026-06-10 16:17:16.778,2991776234,147778,2,0.1665,0.50977,0.95947,-1.458,-2.137,-2.206
2026-06-10 16:17:16.026,2991775482,148026,1,-0.31323,0.28174,0.95166,3.153,2.885,
2026-06-10 16:17:16.026,2991775482,148026,2,0.14868,0.50781,0.94312,0.031,0.863,-2.962
2026-06-10 16:17:16.226,2991775682,148226,1,-0.32959,0.3042,0.97339,5.901,0.565,2.718
2026-06-10 16:17:16.226,2991775682,148226,2,0.27246,0.54663,0.90967,-0.664,-32.542,26.74
2026-06-10 16:17:17.178,2991776634,149178,1,-0.16016,0.22729,1.07324,-16.84,-53.015,10.214
2026-06-10 16:17:17.178,2991776634,149178,2,0.45752,0.49219,0.89307,-0.977,-49.252,42.641
2026-06-10 16:17:17.378,2991776834,149378,1,0.07959,0.1499,1.04907,-35.641,-100.122,22.557
2026-06-10 16:17:17.378,2991776834,149378,2,0.78003,0.20557,0.62427,-11.924,-71.618,67.183
2026-06-10 16:17:18.724,2991778180,149724,1,0.74219,-0.1394,0.51733,-21.183,-83.214,23.916
2026-06-10 16:17:18.724,2991778180,149724,2,1.08203,-0.05078,0.41309,-8.885,-34.58,31.641
2026-06-10 16:17:18.944,2991778400,149944,1,0.91846,-0.21387,0.51196,-13.137,-25.046,3.603
2026-06-10 16:17:18.944,2991778400,149944,2,1.05396,-0.10938,0.34912,-5.481,-8.893,11.298
2026-06-10 16:17:18.144,2991777600,150144,1,0.95654,-0.21265,0.48145,-7.412,-4.053,-3.382
2026-06-10 16:17:18.144,2991777600,150144,2,1.01685,-0.15161,0.28906,-4.435,0.053,-2.107
2026-06-10 16:17:18.344,2991777800,150344,1,0.92407,-0.23608,0.49561,5.542,1.985,1.794
2026-06-10 16:17:18.344,2991777800,150344,2,1.02588,-0.14844,0.30811,5.344,-3.863,1.565
2026-06-10 16:17:18.585,2991778041,150585,1,0.90991,-0.19189,0.47632,7.718,-1.992,5.733
2026-06-10 16:17:18.585,2991778041,150585,2,1.01563,-0.16479,0.28198,1.092,-4.359,8.282
2026-06-10 16:17:19.861,2991779317,150860,1,0.97534,-0.24585,0.39185,-23.71,4.237,-1.107
2026-06-10 16:17:19.861,2991779317,150860,2,1.05225,-0.23682,0.1814,-17.481,6.824,2.809
2026-06-10 16:17:19.060,2991778516,151060,1,0.9021,-0.29956,0.44092,-11.634,13.55,-4.298
2026-06-10 16:17:19.060,2991778516,151060,2,1.01123,-0.24316,0.24268,-9.107,8.267,-12.534
2026-06-10 16:17:19.260,2991778716,151260,1,0.85156,-0.23071,0.53711,13.634,1.985,-3.023
2026-06-10 16:17:19.260,2991778716,151260,2,1.05225,-0.15942,0.2478,12.756,-7.595,4.359
2026-06-10 16:17:19.552,2991779008,151552,1,0.95947,-0.2085,0.44116,7.557,-3.16,7.115
2026-06-10 16:17:19.552,2991779008,151552,2,1.05786,-0.16284,0.26221,0.084,2.435,-0.84
2026-06-10 16:17:20.839,2991780295,151838,1,0.93872,-0.21631,0.45972,8.435,3.519,3.435
2026-06-10 16:17:20.839,2991780295,151838,2,1.04126,-0.17529,0.26294,11.901,-1.71,1.305
2026-06-10 16:17:20.054,2991779510,152054,1,0.94141,-0.19482,0.46777,17.626,4.221,7.038
2026-06-10 16:17:20.054,2991779510,152054,2,1.02979,-0.14917,0.24609,22.748,0.763,1.328
2026-06-10 16:17:20.254,2991779710,152254,1,0.91211,-0.16406,0.48633,27.863,-3.931,14.359
2026-06-10 16:17:20.254,2991779710,152254,2,1.03711,-0.09302,0.21704,33.389,0.557,-3.412
2026-06-10 16:17:20.507,2991779963,152507,1,0.94946,-0.16968,0.46582,23.038,-5.924,10.542
2026-06-10 16:17:20.507,2991779963,152507,2,1.01807,-0.23657,0.30566,2.58,-2.542,6.183
2026-06-10 16:17:21.725,2991781181,152725,1,0.93994,-0.25952,0.44507,9.313,5.267,14.145
2026-06-10 16:17:21.725,2991781181,152725,2,1.0083,-0.18262,0.23291,20.702,-1.809,16.275
2026-06-10 16:17:21.971,2991781427,152971,1,0.93677,-0.26465,0.41968,25.74,8.992,13.382
2026-06-10 16:17:21.971,2991781427,152971,2,1.01245,-0.19019,0.2395,16.702,-1.069,-2.634
2026-06-10 16:17:21.171,2991780627,153171,1,0.91333,-0.27222,0.42456,19.382,-8.672,10.084
2026-06-10 16:17:21.171,2991780627,153171,2,1.10254,-0.20996,0.24438,15.084,23.221,-6.466
2026-06-10 16:17:21.387,2991780843,153387,1,0.94043,-0.19189,0.48584,3.985,-18.763,-1.794
2026-06-10 16:17:21.387,2991780843,153387,2,1.05737,-0.13452,0.35352,8.153,6.458,0.893
2026-06-10 16:17:21.642,2991781098,153642,1,0.86865,-0.17383,0.51416,15.412,13.092,5.702
2026-06-10 16:17:21.642,2991781098,153642,2,1.11035,-0.07935,0.40771,27.366,13.466,-4.534
2026-06-10 16:17:22.892,2991782348,153892,1,0.8501,-0.12012,0.50464,24.137,8.893,19.527
2026-06-10 16:17:22.892,2991782348,153892,2,1.0249,-0.0332,0.26831,0.702,0.58,-3.878
2026-06-10 16:17:22.144,2991781600,154144,1,0.94629,-0.39795,0.48193,-10.733,-21.656,-19.031
2026-06-10 16:17:22.144,2991781600,154144,2,0.99585,-0.19214,0.32837,59.824,-25.191,-8.313
2026-06-10 16:17:22.361,2991781817,154361,1,0.9502,-0.1228,0.55591,71.557,-23.702,43.008
2026-06-10 16:17:22.361,2991781817,154361,2,1.05664,0.00513,0.27148,81.214,10.267,12.863
2026-06-10 16:17:22.583,2991782039,154583,1,0.90308,-0.19849,0.6377,43.84,-1.466,21.305
2026-06-10 16:17:22.583,2991782039,154583,2,1.00024,-0.14282,0.34277,-0.534,-9.038,29.664
2026-06-10 16:17:23.797,2991783253,154797,1,0.80298,-0.42041,0.53223,-14.267,2.076,5.443
2026-06-10 16:17:23.797,2991783253,154797,2,0.98779,-0.20459,0.3418,5.855,-13.595,8.718
2026-06-10 16:17:23.997,2991783453,154997,1,0.92627,-0.3147,0.57983,-2.901,12.298,-1.069
2026-06-10 16:17:23.997,2991783453,154997,2,1.04614,-0.23535,0.36841,-0.382,6.71,15.962
2026-06-10 16:17:23.243,2991782699,155243,1,0.88135,-0.44775,0.45728,25.458,0.115,1.26
2026-06-10 16:17:23.243,2991782699,155243,2,1.03442,-0.19775,0.26855,121.748,10.504,-28.206
2026-06-10 16:17:23.472,2991782928,155472,1,0.95093,-0.00366,0.55469,112.084,-14.031,55.168
2026-06-10 16:17:23.472,2991782928,155472,2,0.99756,0.00122,0.23389,101.015,-4.725,11.603
2026-06-10 16:17:24.765,2991784221,155765,1,0.91138,-0.13281,0.52246,67.779,-29.008,42.702
2026-06-10 16:17:24.765,2991784221,155765,2,1.05176,0.00488,0.29468,75.74,0.214,16.053
2026-06-10 16:17:24.024,2991783480,156024,1,1.03662,-0.15454,0.47632,45.573,-24.466,31.573
2026-06-10 16:17:24.024,2991783480,156024,2,0.94385,0.06592,0.15283,60.397,-11.443,-0.031
2026-06-10 16:17:24.288,2991783744,156288,1,0.99487,-0.17261,0.48047,66.427,4.519,28.321
2026-06-10 16:17:24.288,2991783744,156288,2,1.00903,-0.18066,0.27881,62.947,5.405,19.901
2026-06-10 16:17:24.488,2991783944,156488,1,0.85156,-0.20728,0.51099,34.733,4.321,21.481
2026-06-10 16:17:24.488,2991783944,156488,2,1.17993,0.08228,0.14063,20.496,6.344,-19.847
2026-06-10 16:17:25.725,2991785181,156724,1,0.90918,-0.14233,0.48145,-19.679,-8.191,-21.206
2026-06-10 16:17:25.725,2991785181,156724,2,1.03125,-0.15234,0.24097,-21.275,0.099,4.191
2026-06-10 16:17:25.971,2991785427,156971,1,0.93188,-0.21631,0.45972,-15.229,-1.71,-0.641
2026-06-10 16:17:25.971,2991785427,156971,2,1.04321,-0.04028,0.23706,-28.885,14.771,5.718
2026-06-10 16:17:25.302,2991784758,157302,1,1.01074,-0.06445,0.41113,-45.252,16.87,-8.802
2026-06-10 16:17:25.302,2991784758,157302,2,1.14136,-0.18994,0.19604,-95.206,18.924,12.229
2026-06-10 16:17:25.554,2991785010,157554,1,0.8833,-0.32764,0.42969,-106.359,34.748,-58.046
2026-06-10 16:17:25.554,2991785010,157554,2,1.00903,-0.29883,0.28223,-44.679,11.611,-2.053
2026-06-10 16:17:26.887,2991786343,157887,1,0.90283,-0.29468,0.49219,-18.542,4.763,-9.473
2026-06-10 16:17:26.887,2991786343,157887,2,1.01929,-0.3125,0.28955,-12.962,1.855,-5.267
2026-06-10 16:17:26.148,2991785604,158148,1,0.89331,-0.2854,0.50488,3.901,0.634,2.588
2026-06-10 16:17:26.148,2991785604,158148,2,1.01636,-0.30029,0.2832,15.313,-3.885,2.763
2026-06-10 16:17:26.348,2991785804,158348,1,0.87964,-0.31958,0.49146,28.038,-13.489,6.679
2026-06-10 16:17:26.348,2991785804,158348,2,1.01196,-0.31079,0.25244,60.962,-11.321,-6.198
2026-06-10 16:17:26.548,2991786004,158548,1,0.92212,-0.22217,0.40332,77.611,-12.901,39.145
2026-06-10 16:17:26.548,2991786004,158548,2,1.06543,-0.18848,0.22485,58.779,-16.107,12.458
2026-06-10 16:17:27.834,2991787290,158833,1,0.92822,-0.19067,0.4458,48.0,-18.557,24.672
2026-06-10 16:17:27.834,2991787290,158833,2,1.04028,-0.20557,0.2854,45.229,-9.809,5.687
2026-06-10 16:17:27.116,2991786572,159116,1,0.94336,-0.20117,0.44922,43.298,-14.038,15.84
2026-06-10 16:17:27.116,2991786572,159116,2,1.05225,-0.14111,0.28564,25.344,-1.809,2.847
2026-06-10 16:17:27.484,2991786940,159484,1,0.95264,-0.17407,0.45532,9.786,0.511,5.084
2026-06-10 16:17:27.484,2991786940,159484,2,1.04395,-0.12695,0.26367,2.466,1.595,0.336
2026-06-10 16:17:27.684,2991787140,159684,1,0.97046,-0.20898,0.42529,-2.336,4.275,-2.084
2026-06-10 16:17:27.684,2991787140,159684,2,1.052,-0.17139,0.27417,-8.466,2.855,-0.855
2026-06-10 16:17:28.995,2991788451,159995,1,0.93579,-0.22119,0.46191,-5.412,4.565,-1.779
2026-06-10 16:17:28.995,2991788451,159995,2,1.02661,-0.16528,0.28418,-0.595,0.985,-0.412
2026-06-10 16:17:28.215,2991787671,160215,1,0.92285,-0.21924,0.47339,1.328,1.809,2.473
2026-06-10 16:17:28.215,2991787671,160215,2,1.03638,-0.16016,0.26172,2.0,3.275,-2.069
2026-06-10 16:17:28.513,2991787969,160513,1,0.93262,-0.21216,0.46191,-10.931,5.885,-4.183
2026-06-10 16:17:28.513,2991787969,160513,2,1.03174,-0.16284,0.28125,-11.55,1.427,0.137
2026-06-10 16:17:29.763,2991789219,160763,1,0.93848,-0.19995,0.46216,-9.313,7.053,-3.908
2026-06-10 16:17:29.763,2991789219,160763,2,1.03931,-0.09839,0.27661,-23.198,12.344,-11.504
2026-06-10 16:17:29.963,2991789419,160963,1,0.9563,-0.12671,0.46973,-50.305,10.527,-14.893
2026-06-10 16:17:29.963,2991789419,160963,2,1.05664,-0.08936,0.25586,-57.527,6.183,0.267
2026-06-10 16:17:29.163,2991788619,161163,1,0.96094,-0.23804,0.4231,-73.374,37.374,-30.13
2026-06-10 16:17:29.163,2991788619,161163,2,1.06079,-0.12134,0.24951,-76.985,27.214,-20.107
2026-06-10 16:17:29.569,2991789025,161569,1,0.80078,-0.28589,0.56543,-32.763,21.382,-34.443
2026-06-10 16:17:29.569,2991789025,161569,2,0.98364,-0.24878,0.39575,-25.71,-12.725,-6.099
2026-06-10 16:17:30.776,2991790232,161776,1,0.80908,-0.29785,0.56128,-18.229,-5.176,-15.275
2026-06-10 16:17:30.776,2991790232,161776,2,0.85083,-0.09277,0.43042,-30.107,1.664,-18.84
2026-06-10 16:17:30.103,2991789559,162103,1,0.90186,-0.18262,0.56396,-21.58,2.618,-0.748
2026-06-10 16:17:30.103,2991789559,162103,1,0.90186,-0.18262,0.56396,-21.58,2.618,-0.748
2026-06-10 16:17:30.103,2991789559,162103,2,1.04956,0.02783,0.43896,28.908,80.718,-17.603
2026-06-10 16:17:35.318,2991794774,167318,1,0.61694,-0.27026,0.69238,-16.641,83.679,6.695
2026-06-10 16:17:35.318,2991794774,167318,2,0.88574,0.08521,0.56567,-21.863,76.0,-40.176
2026-06-10 16:17:35.518,2991794974,167518,1,0.34351,-0.38989,0.92944,-46.55,84.42,1.985
2026-06-10 16:17:35.518,2991794974,167518,2,0.30664,-0.01025,1.07642,1.695,2.664,0.481
2026-06-10 16:17:38.291,2991797747,170291,1,-0.27905,-0.59814,0.78882,0.672,0.473,1.794
2026-06-10 16:17:38.291,2991797747,170291,2,0.30713,0.00684,1.08032,2.092,1.573,0.626
2026-06-10 16:17:38.491,2991797947,170491,1,-0.28174,-0.59668,0.77637,2.115,2.809,1.58
2026-06-10 16:17:38.491,2991797947,170491,2,0.30713,0.01733,1.08545,0.702,1.557,1.069
2026-06-10 16:17:39.720,2991799176,170720,1,-0.34009,-0.62134,0.85303,0.45,0.069,-2.809
2026-06-10 16:17:39.720,2991799176,170720,2,0.28052,0.04126,1.11328,0.695,-11.389,4.496
2026-06-10 16:17:39.920,2991799376,170920,1,-0.36523,-0.72485,0.89648,27.954,-56.412,-17.802
2026-06-10 16:17:39.920,2991799376,170920,2,0.39526,-0.03369,0.9978,32.42,-62.504,3.534
2026-06-10 16:17:39.120,2991798576,171120,1,-0.03979,-0.43555,0.8396,86.87,-111.992,4.534
2026-06-10 16:17:39.120,2991798576,171120,2,0.9436,0.1853,0.72314,96.389,-64.0,54.924
2026-06-10 16:17:39.320,2991798776,171320,1,0.43335,-0.14624,0.77954,59.214,-73.817,44.664
2026-06-10 16:17:39.320,2991798776,171320,2,0.86768,-0.00366,0.66919,58.87,-50.466,66.84
2026-06-10 16:17:39.520,2991798976,171520,1,0.65991,-0.25024,0.79834,51.527,-56.626,74.168
2026-06-10 16:17:39.520,2991798976,171520,2,0.94434,0.10352,0.59717,28.405,-12.397,33.145
2026-06-10 16:17:40.720,2991800176,171720,1,0.60913,-0.17969,0.84985,21.252,-18.588,21.176
2026-06-10 16:17:40.720,2991800176,171720,2,0.86157,0.01074,0.44653,1.763,3.641,4.038
2026-06-10 16:17:40.920,2991800376,171920,1,0.85376,-0.12549,0.65918,37.008,-33.916,26.031
2026-06-10 16:17:40.920,2991800376,171920,2,1.03979,0.0271,0.40845,57.939,-10.847,32.45
2026-06-10 16:17:40.120,2991799576,172120,1,0.81348,-0.15039,0.61963,48.664,-23.458,33.366
2026-06-10 16:17:40.120,2991799576,172120,2,1.06909,0.11279,0.3125,55.672,-3.29,15.74
2026-06-10 16:17:40.320,2991799776,172320,1,0.8728,-0.05542,0.60547,16.786,-16.466,13.115
2026-06-10 16:17:40.320,2991799776,172320,2,1.07617,0.03271,0.57544,17.588,-11.473,25.099
2026-06-10 16:17:40.540,2991799996,172540,1,0.77783,-0.09229,0.56763,64.145,20.244,37.16
2026-06-10 16:17:40.540,2991799996,172540,2,0.90723,0.01416,0.36133,-19.389,-0.55,-8.405
2026-06-10 16:17:41.740,2991801196,172740,1,0.92017,-0.26978,0.59009,6.244,-11.664,10.473
2026-06-10 16:17:41.740,2991801196,172740,2,1.06982,0.17139,0.33325,-37.985,-2.74,-40.176
2026-06-10 16:17:41.940,2991801396,172940,1,0.8894,-0.19409,0.52441,-24.687,-4.573,-13.885
2026-06-10 16:17:41.940,2991801396,172940,2,1.00122,-0.03784,0.28271,-7.496,-9.611,9.809
2026-06-10 16:17:41.190,2991800646,173189,1,0.78882,-0.05811,0.63403,-20.092,23.634,-15.634
2026-06-10 16:17:41.190,2991800646,173189,2,1.11694,0.03955,0.35132,12.87,20.092,0.344
2026-06-10 16:17:41.389,2991800845,173389,1,0.89819,-0.11084,0.61377,-10.13,8.031,0.489
2026-06-10 16:17:41.389,2991800845,173389,2,1.02783,0.06348,0.33374,-11.763,-4.878,8.397
2026-06-10 16:17:41.621,2991801077,173621,1,0.88965,-0.21216,0.53247,-12.397,1.489,-6.916
2026-06-10 16:17:41.621,2991801077,173621,2,1.04883,-0.04004,0.28589,-21.718,-4.511,-0.015
2026-06-10 16:17:42.821,2991802277,173821,1,0.88013,-0.22241,0.55029,-3.046,6.565,-4.656
2026-06-10 16:17:42.821,2991802277,173821,2,1.02197,-0.01904,0.32495,6.313,4.679,1.351
2026-06-10 16:17:42.021,2991801477,174021,1,0.88086,-0.17773,0.56226,7.595,3.992,3.893
2026-06-10 16:17:42.021,2991801477,174021,2,1.05664,0.01782,0.31665,4.802,1.534,3.916
2026-06-10 16:17:42.274,2991801730,174274,1,0.88086,-0.18286,0.5686,1.237,1.046,3.55
2026-06-10 16:17:42.274,2991801730,174274,2,1.03906,-0.00586,0.31982,-1.908,2.214,-3.863
2026-06-10 16:17:42.474,2991801930,174474,1,0.89282,-0.20776,0.54932,2.649,2.656,2.046
2026-06-10 16:17:42.474,2991801930,174474,2,1.03784,-0.01733,0.3042,6.237,0.824,1.351
2026-06-10 16:17:42.696,2991802152,174696,1,0.89307,-0.19116,0.55322,4.473,2.794,1.313
2026-06-10 16:17:42.696,2991802152,174696,2,1.04077,-0.00635,0.30688,1.649,-0.588,1.366
2026-06-10 16:17:43.896,2991803352,174896,1,0.88574,-0.18457,0.55444,0.26,3.695,-0.13
2026-06-10 16:17:43.896,2991803352,174896,2,1.04517,-0.00659,0.30225,-0.718,3.511,-1.931
2026-06-10 16:17:43.145,2991802601,175145,1,0.87549,-0.19556,0.5647,-3.489,2.527,0.511
2026-06-10 16:17:43.145,2991802601,175145,2,1.04053,,0.32202,-2.557,0.481,-1.405
2026-06-10 16:17:43.390,2991802846,175390,1,0.88794,-0.1936,0.56104,-1.076,1.435,0.992
2026-06-10 16:17:43.390,2991802846,175390,2,1.02979,0.00415,0.3208,0.45,1.198,0.71
2026-06-10 16:17:43.590,2991803046,175590,1,0.87695,-0.2041,0.56396,-2.504,4.397,3.237
2026-06-10 16:17:43.590,2991803046,175590,2,1.03589,-0.03271,0.29858,-3.244,-0.053,-2.435
2026-06-10 16:17:44.825,2991804281,175825,1,0.84985,-0.19678,0.55811,6.008,0.695,4.855
2026-06-10 16:17:44.825,2991804281,175825,2,1.02368,-0.01733,0.31909,16.427,5.58,3.359
2026-06-10 16:17:44.025,2991803481,176025,1,0.9314,-0.19775,0.52881,5.931,5.29,4.0
2026-06-10 16:17:44.025,2991803481,176025,2,1.0542,-0.04468,0.34082,-13.489,-1.328,10.878
2026-06-10 16:17:44.225,2991803681,176225,1,0.92188,-0.24292,0.4873,-7.664,7.069,12.588
2026-06-10 16:17:44.225,2991803681,176225,2,1.02319,-0.20728,0.38184,4.504,11.611,9.817
2026-06-10 16:17:44.543,2991803999,176543,1,0.75537,-0.31836,0.56421,9.603,12.053,-3.885
2026-06-10 16:17:44.543,2991803999,176543,2,0.88892,-0.08618,0.42334,-13.122,-8.26,19.137
2026-06-10 16:17:45.747,2991805203,176746,1,0.84521,-0.30615,0.39404,-5.427,4.267,-13.656
2026-06-10 16:17:45.747,2991805203,176746,2,1.01807,-0.1626,0.30981,20.74,-11.664,3.481
2026-06-10 16:17:45.946,2991805402,176946,1,0.97046,-0.13525,0.56885,97.229,22.855,45.092
2026-06-10 16:17:45.946,2991805402,176946,2,1.073,0.07373,0.22778,29.29,-11.718,-4.427
2026-06-10 16:17:45.165,2991804621,177164,1,0.854,0.00806,0.43799,43.588,-5.466,27.45
2026-06-10 16:17:45.165,2991804621,177164,2,1.17651,-0.02124,0.47778,12.824,-35.573,45.13
2026-06-10 16:17:45.392,2991804848,177391,1,1.03296,-0.20361,0.62183,-19.87,-20.557,-11.634
2026-06-10 16:17:45.392,2991804848,177391,2,0.85156,-0.07104,0.46289,63.977,29.053,37.985
2026-06-10 16:17:45.591,2991805047,177591,1,0.69287,-0.31201,0.43848,-23.496,-7.756,3.947
2026-06-10 16:17:45.591,2991805047,177591,2,0.91846,-0.16187,0.19189,9.969,1.84,1.115
2026-06-10 16:17:46.800,2991806256,177800,1,0.9397,-0.31958,0.5022,15.053,59.786,-31.412
2026-06-10 16:17:46.800,2991806256,177800,2,1.42822,0.12695,0.4375,26.206,40.412,-28.321
2026-06-10 16:17:46.000,2991805456,178000,1,0.6604,-0.15308,0.30933,54.702,-4.031,25.214
2026-06-10 16:17:46.000,2991805456,178000,2,0.78271,0.37891,0.25024,36.168,30.702,-54.099
2026-06-10 16:17:46.200,2991805656,178200,1,1.05664,-0.13818,0.60352,23.542,-34.672,16.931
2026-06-10 16:17:46.200,2991805656,178200,2,1.00562,0.25098,-0.06885,138.366,53.061,-21.885
2026-06-10 16:17:46.439,2991805895,178439,1,1.01855,-0.14185,0.55615,56.863,50.351,24.588
2026-06-10 16:17:46.439,2991805895,178439,2,0.66113,0.1001,0.43945,10.084,-13.046,72.183
2026-06-10 16:17:46.639,2991806095,178639,1,0.82813,-0.27051,0.51538,60.015,8.931,49.321
2026-06-10 16:17:46.639,2991806095,178639,2,1.09619,0.20703,0.33398,-9.985,3.74,-34.992
2026-06-10 16:17:47.839,2991807295,178839,1,1.1167,-0.21729,0.5332,91.985,-15.053,40.298
2026-06-10 16:17:47.839,2991807295,178839,2,0.92139,0.07446,0.19995,155.908,9.153,17.298
2026-06-10 16:17:47.042,2991806498,179042,1,0.90308,0.05762,0.44287,149.481,-12.687,77.992
2026-06-10 16:17:47.042,2991806498,179042,2,1.03369,0.12109,0.23096,131.397,13.611,36.42
2026-06-10 16:17:47.242,2991806698,179242,1,0.93604,0.0459,0.50488,137.847,-18.359,78.817
2026-06-10 16:17:47.242,2991806698,179242,2,1.09912,0.23169,0.23877,127.397,-4.802,28.176
2026-06-10 16:17:47.442,2991806898,179442,1,0.9624,-0.06787,0.48145,55.664,-48.061,34.16
2026-06-10 16:17:47.442,2991806898,179442,2,1.08691,-0.08154,0.34204,81.695,27.122,41.038
2026-06-10 16:17:48.761,2991808217,179761,1,0.75586,-0.22485,0.52441,20.015,-4.267,25.947
2026-06-10 16:17:48.761,2991808217,179761,2,0.98389,0.02051,0.31055,70.824,-6.725,23.618
2026-06-10 16:17:48.001,2991807457,180001,1,0.92822,-0.18115,0.5625,-0.29,-41.252,9.71
2026-06-10 16:17:48.001,2991807457,180001,2,1.02075,0.05078,0.36157,0.069,4.351,14.885
2026-06-10 16:17:48.350,2991807806,180350,1,0.96582,-0.18555,0.49683,9.893,-7.053,9.565
2026-06-10 16:17:48.350,2991807806,180350,2,1.02661,-0.10205,0.26855,47.786,1.015,-5.038
2026-06-10 16:17:49.790,2991809246,180790,1,0.93213,-0.13599,0.4895,15.092,-7.26,2.061
2026-06-10 16:17:49.790,2991809246,180790,2,1.03735,-0.05737,0.27832,18.672,-4.611,2.702
2026-06-10 16:17:49.048,2991808504,181048,1,0.93506,-0.13135,0.46533,8.786,-4.344,2.023
2026-06-10 16:17:49.048,2991808504,181048,2,1.04785,-0.06494,0.28491,2.87,-0.466,-2.198
2026-06-10 16:17:49.273,2991808729,181273,1,0.96875,-0.14136,0.45728,-5.748,1.0,-0.901
2026-06-10 16:17:49.273,2991808729,181273,2,1.04224,-0.06152,0.29712,-6.611,3.076,-1.87
2026-06-10 16:17:49.626,2991809082,181626,1,0.91821,-0.15796,0.49927,-8.771,5.626,-0.565
2026-06-10 16:17:49.626,2991809082,181626,2,1.0542,-0.07446,0.27515,-7.122,-5.061,6.435
2026-06-10 16:17:50.860,2991810316,181860,1,0.93262,-0.21289,0.45605,-9.046,0.87,-6.092
2026-06-10 16:17:50.860,2991810316,181860,2,1.04932,-0.08984,0.29077,1.435,-0.397,-1.122
2026-06-10 16:17:50.199,2991809655,182199,1,0.94214,-0.17944,0.44702,0.618,4.168,1.137
2026-06-10 16:17:50.199,2991809655,182199,2,1.04541,-0.08423,0.27637,-0.427,3.618,0.221
2026-06-10 16:17:50.399,2991809855,182399,1,0.93921,-0.17505,0.4585,-4.26,2.733,3.496
2026-06-10 16:17:50.399,2991809855,182399,2,1.03638,-0.08398,0.26196,-2.924,2.885,2.786
2026-06-10 16:17:50.622,2991810078,182622,1,0.95483,-0.19434,0.44116,-8.42,2.45,0.962
2026-06-10 16:17:50.622,2991810078,182622,2,1.04248,-0.09155,0.2627,-10.786,2.55,-4.595
2026-06-10 16:17:51.875,2991811331,182875,1,0.95532,-0.19971,0.42358,-19.191,1.031,-3.901
2026-06-10 16:17:51.875,2991811331,182875,2,1.07275,-0.10303,0.29395,-12.985,1.901,10.954
2026-06-10 16:17:51.075,2991810531,183075,1,0.92529,-0.21509,0.46045,-13.901,18.382,-6.481
2026-06-10 16:17:51.075,2991810531,183075,2,1.04126,-0.10425,0.28882,-17.115,9.977,-8.84
2026-06-10 16:17:51.402,2991810858,183402,1,0.90381,-0.17798,0.50171,-22.71,12.122,-8.756
2026-06-10 16:17:51.402,2991810858,183402,2,1.04468,-0.0686,0.27686,-31.42,6.42,-11.206
2026-06-10 16:17:51.656,2991811112,183656,1,0.92188,-0.19067,0.5,-33.908,21.733,-16.557
2026-06-10 16:17:51.656,2991811112,183656,2,1.07324,-0.07153,0.45459,-87.992,53.42,-33.282
2026-06-10 16:17:52.048,2991811504,184048,1,0.67896,-0.39844,0.69995,-42.878,28.557,-22.58
2026-06-10 16:17:52.048,2991811504,184048,2,0.97437,-0.12354,0.55151,-16.458,-11.275,-9.779
2026-06-10 16:17:52.270,2991811726,184270,1,0.72754,-0.34619,0.66748,-11.0,-10.344,-22.221
2026-06-10 16:17:52.270,2991811726,184270,2,0.97266,-0.1062,0.52173,-18.664,-19.496,-12.038
2026-06-10 16:17:52.470,2991811926,184470,1,0.83081,-0.28003,0.6521,-20.244,-4.435,-21.931
2026-06-10 16:17:52.470,2991811926,184470,2,0.9585,-0.12012,0.48218,-26.473,-1.947,4.076
2026-06-10 16:17:52.670,2991812126,184670,1,0.85596,-0.19092,0.54956,-1.206,17.237,-20.427
2026-06-10 16:17:52.670,2991812126,184670,2,1.11011,-0.1416,0.2666,14.412,12.878,5.786
2026-06-10 16:17:53.870,2991813326,184870,1,0.94824,-0.1853,0.47803,12.565,1.008,-0.29
2026-06-10 16:17:53.870,2991813326,184870,2,1.01831,-0.03442,0.29199,16.061,-0.359,-11.45
2026-06-10 16:17:53.079,2991812535,185079,1,0.91138,-0.10303,0.50952,12.038,-6.687,1.748
2026-06-10 16:17:53.079,2991812535,185079,2,1.03589,-0.07666,0.24854,25.45,-4.435,15.977
2026-06-10 16:17:53.291,2991812747,185291,1,0.92993,-0.17676,0.54004,13.702,-4.382,8.756
2026-06-10 16:17:53.291,2991812747,185291,2,1.06055,-0.06665,0.30542,38.153,1.214,6.359
2026-06-10 16:17:53.491,2991812947,185491,1,0.91504,-0.11572,0.54785,37.229,-2.603,21.725
2026-06-10 16:17:53.491,2991812947,185491,2,1.01855,-0.01782,0.30811,19.718,0.496,5.931
2026-06-10 16:17:54.810,2991814266,185810,1,0.88696,-0.13965,0.56128,3.733,3.344,2.962
2026-06-10 16:17:54.810,2991814266,185810,1,0.88696,-0.13965,0.56128,3.733,3.344,2.962
2026-06-10 16:17:54.810,2991814266,185810,2,1.03271,-0.11401,0.31201,-51.214,-6.351,-9.504
2026-06-10 16:17:59.990,2991819446,190990,1,0.93945,-0.16748,0.46997,-52.802,2.229,-19.0
2026-06-10 16:17:59.990,2991819446,190990,2,1.09229,-0.02148,0.29126,-50.153,10.626,-15.901
2026-06-10 16:17:59.190,2991818646,191190,1,0.93188,-0.198,0.41479,-35.122,15.473,-16.618
2026-06-10 16:17:59.190,2991818646,191190,2,1.03784,-0.10449,0.28125,-36.42,15.779,-6.183
2026-06-10 16:17:59.456,2991818912,191456,1,0.90723,-0.21045,0.45239,-34.237,29.267,-15.969
2026-06-10 16:17:59.456,2991818912,191456,2,1.04321,-0.14355,0.28589,4.183,0.053,5.359
2026-06-10 16:18:04.554,2991824010,196554,1,0.93701,-0.27832,0.41602,74.053,-9.183,31.885
2026-06-10 16:18:04.554,2991824010,196554,2,1.05615,-0.0791,0.24463,71.481,-0.817,4.336
2026-06-10 16:18:05.754,2991825210,196754,1,0.91943,-0.20776,0.45654,67.855,-9.305,25.359
2026-06-10 16:18:05.754,2991825210,196754,2,1.03223,-0.05176,0.26953,74.061,7.656,7.382
2026-06-10 16:18:07.541,2991826997,199541,1,0.95801,-0.18457,0.42651,7.74,2.527,6.244
2026-06-10 16:18:07.541,2991826997,199541,2,1.03857,-0.12061,0.23291,8.473,4.557,-2.214
2026-06-10 16:18:08.741,2991828197,199741,1,0.94043,-0.18677,0.44604,9.099,-0.809,5.336
2026-06-10 16:18:08.741,2991828197,199741,2,1.05981,-0.08716,0.20264,19.771,8.031,-7.374
2026-06-10 16:18:08.941,2991828397,199941,1,0.95825,-0.13696,0.4082,5.015,1.771,1.45
2026-06-10 16:18:08.941,2991828397,199941,2,1.09131,-0.06494,0.26343,14.397,3.901,-0.725
2026-06-10 16:18:08.184,2991827640,200184,1,0.89575,-0.28735,0.47192,14.489,3.29,2.802
2026-06-10 16:18:08.184,2991827640,200184,2,1.01099,-0.0564,0.32788,38.664,8.565,-1.931
2026-06-10 16:18:08.384,2991827840,200384,1,0.96558,-0.17065,0.45435,19.351,1.641,10.168
2026-06-10 16:18:08.384,2991827840,200384,2,1.05029,-0.06567,0.23169,14.412,6.008,-5.069
2026-06-10 16:18:08.584,2991828040,200584,1,0.96753,-0.15723,0.43335,10.244,9.863,4.779
2026-06-10 16:18:08.584,2991828040,200584,2,1.04639,-0.07983,0.24023,20.748,8.588,3.221
2026-06-10 16:18:09.840,2991829296,200840,1,0.94189,-0.19849,0.49756,17.725,-1.374,6.672
2026-06-10 16:18:09.840,2991829296,200840,2,1.04834,-0.07178,0.32178,38.725,0.863,-0.206
2026-06-10 16:18:09.040,2991828496,201040,1,0.93555,-0.1272,0.47729,27.519,-11.977,16.458
2026-06-10 16:18:09.040,2991828496,201040,2,1.04443,-0.04785,0.30127,8.954,-3.053,3.13
2026-06-10 16:18:09.263,2991828719,201262,1,0.9082,-0.20679,0.51514,10.771,-3.206,14.244
2026-06-10 16:18:09.263,2991828719,201262,2,1.06689,0.0144,0.36108,19.595,0.603,-2.153
2026-06-10 16:18:09.494,2991828950,201494,1,0.86816,-0.27271,0.54004,28.061,0.603,11.763
2026-06-10 16:18:09.494,2991828950,201494,2,1.08325,-0.10132,0.33398,40.267,-0.55,12.282
2026-06-10 16:18:09.694,2991829150,201694,1,0.90967,-0.27368,0.48804,37.542,-9.855,14.802
2026-06-10 16:18:09.694,2991829150,201694,2,1.06445,-0.02148,0.27734,29.214,-7.557,7.244
2026-06-10 16:18:10.938,2991830394,201938,1,0.88428,-0.21289,0.49048,10.595,-14.985,7.84
2026-06-10 16:18:10.938,2991830394,201938,2,1.11938,0.01733,0.24121,8.389,-1.168,-2.244
2026-06-10 16:18:10.162,2991829618,202161,1,0.92163,-0.18945,0.43774,-5.137,-7.26,6.198
2026-06-10 16:18:10.162,2991829618,202161,2,1.03223,-0.02222,0.29419,11.092,13.191,4.618
2026-06-10 16:18:10.361,2991829817,202361,1,0.89258,-0.23853,0.48438,-1.557,0.725,3.74
2026-06-10 16:18:10.361,2991829817,202361,2,1.02881,-0.10864,0.29663,1.656,-1.664,10.863
2026-06-10 16:18:10.643,2991830099,202643,1,0.93823,-0.22729,0.44238,-3.252,0.122,0.588
2026-06-10 16:18:10.643,2991830099,202643,2,1.0498,-0.10767,0.27734,-8.618,4.672,-4.336
2026-06-10 16:18:11.887,2991831343,202887,1,0.9563,-0.20581,0.42798,-16.71,11.053,-5.328
2026-06-10 16:18:11.887,2991831343,202887,2,1.05713,-0.08154,0.26489,-27.573,12.115,-10.359
2026-06-10 16:18:11.087,2991830543,203087,1,0.97461,-0.23389,0.41357,-33.87,26.466,-13.954
2026-06-10 16:18:11.087,2991830543,203087,2,1.08545,-0.03198,0.35693,-60.107,36.038,-31.779
2026-06-10 16:18:11.352,2991830808,203352,1,0.83032,-0.43921,0.50317,-40.649,21.985,-19.901
2026-06-10 16:18:11.352,2991830808,203352,2,0.96631,-0.20703,0.36694,-31.115,13.038,-12.221
2026-06-10 16:18:11.668,2991831124,203668,1,0.8877,-0.27783,0.46143,-34.519,-0.305,-26.16
2026-06-10 16:18:11.668,2991831124,203668,2,0.94458,-0.2019,0.41553,-49.427,-8.71,8.557
2026-06-10 16:18:12.868,2991832324,203868,1,0.8728,-0.21191,0.54785,-42.87,-7.351,-14.084
2026-06-10 16:18:12.868,2991832324,203868,2,1.07153,-0.15259,0.30103,-54.74,0.473,-5.71
2026-06-10 16:18:12.068,2991831524,204068,1,0.97925,-0.21899,0.48242,-29.847,8.466,-18.893
2026-06-10 16:18:12.068,2991831524,204068,2,0.99878,-0.06152,0.27075,-43.916,-4.855,-30.893
2026-06-10 16:18:12.315,2991831771,204315,1,1.02344,-0.23438,0.53467,0.344,-1.939,-3.099
2026-06-10 16:18:12.315,2991831771,204315,2,1.07397,-0.11841,0.2019,-23.099,-3.504,3.702
2026-06-10 16:18:12.528,2991831984,204528,1,0.91382,-0.2041,0.42334,21.656,6.084,14.191
2026-06-10 16:18:12.528,2991831984,204528,2,1.08667,-0.06152,0.30713,-6.611,5.42,-2.282
2026-06-10 16:18:13.728,2991833184,204728,1,0.97192,-0.27393,0.39111,-20.542,0.13,-4.206
2026-06-10 16:18:13.728,2991833184,204728,2,1.06616,-0.13818,0.24609,-2.809,4.756,3.198
2026-06-10 16:18:13.928,2991833384,204928,1,0.92822,-0.29565,0.40771,-15.359,1.595,-4.313
2026-06-10 16:18:13.928,2991833384,204928,2,1.03369,-0.15601,0.28174,-1.756,9.931,-0.71
2026-06-10 16:18:17.843,2991837299,208843,1,0.9314,-0.22119,0.42627,6.58,17.359,-3.779
2026-06-10 16:18:17.843,2991837299,208843,2,1.04272,-0.1687,0.24561,-8.443,12.863,-12.023
2026-06-10 16:18:17.045,2991836501,209045,1,0.88403,-0.20752,0.3999,-2.824,20.053,0.664
2026-06-10 16:18:17.045,2991836501,209045,2,1.03833,-0.1521,0.22876,-25.779,0.374,-6.351
2026-06-10 16:18:17.245,2991836701,209245,1,0.90576,-0.22168,0.42896,-27.504,0.13,-7.015
2026-06-10 16:18:17.245,2991836701,209245,2,1.02368,-0.18506,0.2229,-30.55,-9.992,9.504
2026-06-10 16:18:17.445,2991836901,209445,1,0.91357,-0.33911,0.42114,2.252,27.366,5.58
2026-06-10 16:18:17.445,2991836901,209445,2,0.99707,-0.11108,0.25684,-11.221,-33.771,2.267
2026-06-10 16:18:17.645,2991837101,209645,1,0.90186,-0.28857,0.43042,-14.511,10.321,-13.702
2026-06-10 16:18:17.645,2991837101,209645,2,1.10156,-0.15771,0.2937,-37.817,-10.725,-6.443
2026-06-10 16:18:18.845,2991838301,209845,1,0.89819,-0.30371,0.40649,-9.198,14.359,-9.282
2026-06-10 16:18:18.845,2991838301,209845,2,1.00293,-0.22681,0.22778,-7.221,-2.198,3.504
2026-06-10 16:18:18.045,2991837501,210045,1,0.93408,-0.31763,0.32593,-6.771,-0.015,-2.305
2026-06-10 16:18:18.045,2991837501,210045,2,1.0249,-0.18799,0.26147,-10.038,3.45,-8.664
2026-06-10 16:18:20.982,2991840438,211982,1,0.93994,-0.27271,0.44556,-9.252,-5.802,-6.519
2026-06-10 16:18:20.982,2991840438,211982,2,1.05933,-0.24536,0.30884,1.084,-11.198,18.725
2026-06-10 16:18:20.320,2991839776,212320,1,0.95557,-0.22705,0.55615,45.344,-2.336,30.511
2026-06-10 16:18:20.320,2991839776,212320,2,1.09106,-0.05737,0.25732,4.931,2.496,-13.504
2026-06-10 16:18:20.520,2991839976,212520,1,0.8894,-0.14844,0.38721,14.252,14.863,2.641
2026-06-10 16:18:20.520,2991839976,212520,2,1.01831,-0.00073,0.22021,-6.878,1.344,-1.015
2026-06-10 16:18:21.720,2991841176,212720,1,0.8606,-0.23193,0.43896,-25.885,-4.87,-9.939
2026-06-10 16:18:21.720,2991841176,212720,2,1.09521,0.02417,0.11987,9.023,9.473,-23.397
2026-06-10 16:18:21.920,2991841376,212920,1,0.85547,-0.21387,0.45532,20.214,27.061,1.603
2026-06-10 16:18:21.920,2991841376,212920,2,1.00488,-0.02075,0.3811,-14.504,-12.618,4.107
2026-06-10 16:18:21.120,2991840576,213120,1,1.00513,-0.34961,0.53638,-32.55,-9.473,-7.275
2026-06-10 16:18:21.120,2991840576,213120,2,1.08862,-0.18896,0.2959,-10.015,2.557,4.328
2026-06-10 16:18:21.320,2991840776,213320,1,0.88403,-0.30054,0.39453,-5.45,5.641,-5.252
2026-06-10 16:18:21.320,2991840776,213320,2,1.05273,-0.10718,0.30566,-2.855,12.672,-12.595
2026-06-10 16:18:21.539,2991840995,213539,1,0.85889,-0.2832,0.43286,7.611,3.534,1.931
2026-06-10 16:18:21.539,2991840995,213539,2,0.99414,-0.26538,0.24292,17.794,-15.824,23.198
2026-06-10 16:18:22.739,2991842195,213739,1,1.04321,-0.22485,0.47437,-21.336,-17.939,-3.534
2026-06-10 16:18:22.739,2991842195,213739,2,1.07373,-0.27246,0.40918,-5.176,35.58,6.71
2026-06-10 16:18:22.939,2991842395,213939,1,0.87646,-0.23804,0.49951,11.214,5.16,13.153
2026-06-10 16:18:22.939,2991842395,213939,2,1.07495,-0.10059,0.26489,-13.137,6.901,-12.328
2026-06-10 16:18:22.253,2991841709,214253,1,0.90625,-0.20483,0.40015,2.748,4.802,0.504
2026-06-10 16:18:22.253,2991841709,214253,2,0.99268,-0.06128,0.28784,-8.435,7.237,-13.557
2026-06-10 16:18:22.453,2991841909,214453,1,0.93628,-0.22559,0.45728,-14.015,16.718,-6.87
2026-06-10 16:18:22.453,2991841909,214453,2,1.04053,-0.10181,0.25732,-22.344,6.191,-5.191
2026-06-10 16:18:22.653,2991842109,214653,1,0.93018,-0.22583,0.4021,-25.015,0.107,-10.786
2026-06-10 16:18:22.653,2991842109,214653,2,1.03809,-0.03564,0.27979,31.969,9.298,-5.878
2026-06-10 16:18:23.895,2991843351,214895,1,0.90283,-0.17285,0.43384,-8.939,9.176,1.145
2026-06-10 16:18:23.895,2991843351,214895,2,0.99609,-0.07324,0.28247,-34.084,-15.725,10.344
2026-06-10 16:18:23.095,2991842551,215095,1,0.94629,-0.31616,0.42896,-48.794,13.16,-17.305
2026-06-10 16:18:23.095,2991842551,215095,2,1.11108,-0.12598,0.35547,-41.443,24.382,-4.008
2026-06-10 16:18:23.295,2991842751,215295,1,0.84814,-0.34985,0.38232,-40.893,30.122,-20.42
2026-06-10 16:18:23.295,2991842751,215295,2,0.9978,-0.21313,0.30713,-20.718,25.305,-9.305
2026-06-10 16:18:23.495,2991842951,215495,1,0.93311,-0.35962,0.44165,-16.153,20.824,-7.008
2026-06-10 16:18:23.495,2991842951,215495,2,1.05688,-0.29468,0.24854,-1.733,-25.916,6.924
2026-06-10 16:18:24.773,2991844229,215773,1,1.37622,-0.37622,0.91528,-10.786,-49.176,-0.557
2026-06-10 16:18:24.773,2991844229,215773,2,1.25659,-0.14697,0.37939,-20.214,18.374,-7.244
2026-06-10 16:18:24.063,2991843519,216063,1,0.94458,-0.25684,0.35815,-18.87,-2.809,-7.947
2026-06-10 16:18:24.063,2991843519,216063,2,1.03369,-0.15161,0.3772,-0.412,-24.023,26.87
2026-06-10 16:18:24.263,2991843719,216263,1,0.93774,-0.22241,0.44946,7.168,9.366,4.382
2026-06-10 16:18:24.263,2991843719,216263,2,1.10425,-0.13428,0.1875,-48.229,-18.511,-8.008
2026-06-10 16:18:24.463,2991843919,216463,1,0.93457,-0.24634,0.37085,-28.328,4.221,-17.458
2026-06-10 16:18:24.463,2991843919,216463,2,1.13989,-0.39526,0.2229,-55.756,-20.298,3.672
2026-06-10 16:18:24.665,2991844121,216665,1,0.86523,-0.16626,0.33545,16.954,17.748,-1.176
2026-06-10 16:18:24.665,2991844121,216665,2,1.01831,-0.24683,0.12402,-17.87,6.45,-6.389
2026-06-10 16:18:25.865,2991845321,216865,1,1.04321,-0.23828,0.38281,8.0,15.076,2.076
2026-06-10 16:18:25.865,2991845321,216865,2,1.14917,-0.20483,0.19727,-4.557,-33.649,20.603
2026-06-10 16:18:25.065,2991844521,217065,1,0.95361,-0.23389,0.37354,-14.099,-32.328,3.359
2026-06-10 16:18:25.065,2991844521,217065,2,1.04419,-0.18555,0.17627,12.443,16.0,-3.588
2026-06-10 16:18:25.265,2991844721,217265,1,0.95068,-0.26807,0.33691,-0.351,1.916,-0.725
2026-06-10 16:18:25.265,2991844721,217265,2,1.04565,-0.20166,0.16211,3.656,3.71,-2.069
2026-06-10 16:18:25.465,2991844921,217465,1,0.99341,-0.22729,0.35156,14.412,7.573,6.985
2026-06-10 16:18:25.465,2991844921,217465,2,1.03271,-0.15918,0.19995,6.237,6.588,3.466
2026-06-10 16:18:25.665,2991845121,217665,1,0.95752,-0.2583,0.37451,7.557,0.878,4.275
2026-06-10 16:18:25.665,2991845121,217665,2,1.05127,-0.17383,0.19214,11.824,4.206,-0.878
2026-06-10 16:18:26.865,2991846321,217865,1,0.96899,-0.25269,0.36768,16.878,3.191,16.137
2026-06-10 16:18:26.865,2991846321,217865,2,1.0376,-0.15869,0.21753,45.687,21.038,4.244
2026-06-10 16:18:26.065,2991845521,218065,1,0.95435,-0.27783,0.42212,26.71,3.718,6.443
2026-06-10 16:18:26.065,2991845521,218065,2,1.02075,-0.16846,0.24731,14.893,0.573,-10.893
2026-06-10 16:18:26.265,2991845721,218265,1,0.87427,-0.2771,0.45801,12.359,11.481,7.58
2026-06-10 16:18:26.265,2991845721,218265,2,1.0376,-0.13306,0.29419,-2.626,2.176,-6.603
2026-06-10 16:18:26.465,2991845921,218465,1,0.90112,-0.3457,0.38965,-16.947,-4.244,3.573
2026-06-10 16:18:26.465,2991845921,218465,2,1.08203,-0.1853,0.3457,36.084,17.176,0.053
2026-06-10 16:18:26.665,2991846121,218665,1,0.93286,-0.27954,0.39722,27.489,9.076,9.771
2026-06-10 16:18:26.665,2991846121,218665,2,1.09668,-0.15259,0.30518,12.985,8.046,-11.115
2026-06-10 16:18:27.865,2991847321,218865,1,0.86523,-0.23315,0.42798,28.435,3.42,5.885
2026-06-10 16:18:27.865,2991847321,218865,2,1.00269,-0.09546,0.21582,10.725,-5.29,9.046
2026-06-10 16:18:27.065,2991846521,219065,1,0.979,-0.29907,0.43066,-0.847,-16.802,5.092
2026-06-10 16:18:27.065,2991846521,219065,2,0.98926,0.02124,0.2644,-10.901,-9.069,-8.076
2026-06-10 16:18:27.265,2991846721,219265,1,0.94385,-0.26074,0.47095,-41.26,3.573,-24.191
2026-06-10 16:18:27.265,2991846721,219265,2,0.99414,-0.11865,0.35205,-43.863,25.206,-11.252
2026-06-10 16:18:27.465,2991846921,219465,1,0.88989,-0.37012,0.4895,-22.641,21.176,-14.366
2026-06-10 16:18:27.465,2991846921,219465,2,0.97412,-0.16235,0.40259,-19.87,-5.511,6.504
2026-06-10 16:18:27.665,2991847121,219665,1,0.85229,-0.49414,0.39258,4.641,-2.687,0.756
2026-06-10 16:18:27.665,2991847121,219665,2,1.00317,-0.30444,0.28882,63.954,-5.26,3.389
2026-06-10 16:18:28.913,2991848369,219913,1,1.03516,-0.28906,0.4021,112.634,-31.031,49.809
2026-06-10 16:18:28.913,2991848369,219913,2,1.03809,-0.1377,0.25464,93.481,5.649,7.519
2026-06-10 16:18:28.113,2991847569,220113,1,0.91235,-0.12256,0.42847,97.252,-4.595,41.267
2026-06-10 16:18:28.113,2991847569,220113,2,1.01416,0.03296,0.24731,68.031,-2.252,5.969
2026-06-10 16:18:28.313,2991847769,220313,1,0.91602,-0.12671,0.44238,49.031,-18.069,24.237
2026-06-10 16:18:28.313,2991847769,220313,2,1.04565,0.02783,0.20898,31.061,-6.481,5.45
2026-06-10 16:18:28.602,2991848058,220602,1,0.96655,-0.15308,0.42188,17.855,-14.198,9.557
2026-06-10 16:18:28.602,2991848058,220602,2,1.07983,0.03467,0.26245,-3.382,-20.435,5.71
2026-06-10 16:18:29.802,2991849258,220802,1,1.01904,-0.16797,0.3313,1.626,-0.756,-3.649
2026-06-10 16:18:29.802,2991849258,220802,2,1.10425,-0.02271,0.17944,14.344,1.153,0.817
2026-06-10 16:18:29.002,2991848458,221002,1,1.00464,-0.14429,0.40723,-1.603,9.481,-2.954
2026-06-10 16:18:29.002,2991848458,221002,2,1.0918,0.03955,0.19873,-33.84,-5.458,-13.038
2026-06-10 16:18:29.202,2991848658,221202,1,0.9248,-0.15674,0.44604,-15.916,12.435,-8.282
2026-06-10 16:18:29.202,2991848658,221202,2,1.04053,-0.03833,0.28418,-1.809,10.931,0.382
2026-06-10 16:18:29.402,2991848858,221402,1,0.87109,-0.16797,0.51416,-5.58,6.198,3.992
2026-06-10 16:18:29.402,2991848858,221402,2,1.04883,-0.04468,0.22412,-15.771,-6.061,6.061
2026-06-10 16:18:29.616,2991849072,221616,1,0.93921,-0.2041,0.43457,-1.84,-1.313,5.344
2026-06-10 16:18:29.616,2991849072,221616,2,1.06201,-0.07446,0.22217,8.29,5.626,5.832
2026-06-10 16:18:30.816,2991850272,221816,1,0.97803,-0.22095,0.42065,-2.298,-0.42,5.252
2026-06-10 16:18:30.816,2991850272,221816,2,1.02222,-0.0813,0.23242,18.71,6.26,1.885
2026-06-10 16:18:30.029,2991849485,222029,1,0.93628,-0.21704,0.44165,5.137,2.695,2.511
2026-06-10 16:18:30.029,2991849485,222029,2,1.07104,-0.08594,0.25146,8.046,3.84,6.824
2026-06-10 16:18:30.248,2991849704,222247,1,0.91504,-0.21021,0.46045,0.221,7.588,-2.168
2026-06-10 16:18:30.248,2991849704,222247,2,1.02832,-0.08496,0.25757,-2.466,6.847,-1.794
2026-06-10 16:18:30.447,2991849903,222447,1,0.93042,-0.25171,0.44238,8.084,9.282,3.16
2026-06-10 16:18:30.447,2991849903,222447,2,1.04443,-0.05688,0.26172,10.817,2.542,-5.672
2026-06-10 16:18:30.647,2991850103,222647,1,0.91943,-0.18677,0.45508,15.885,-1.061,2.947
2026-06-10 16:18:30.647,2991850103,222647,2,1.04248,-0.0791,0.25073,6.389,-2.427,-1.939
2026-06-10 16:18:31.874,2991851330,222874,1,0.95654,-0.19409,0.45435,6.649,-1.145,6.588
2026-06-10 16:18:31.874,2991851330,222874,2,1.05518,-0.04907,0.23438,6.053,1.053,-0.344
2026-06-10 16:18:31.102,2991850558,223102,1,0.95068,-0.21143,0.45117,1.573,0.847,3.687
2026-06-10 16:18:31.102,2991850558,223102,2,1.05884,-0.05566,0.2666,2.954,3.015,0.916
2026-06-10 16:18:31.302,2991850758,223302,1,0.94482,-0.19653,0.44287,-2.481,4.137,0.13
2026-06-10 16:18:31.302,2991850758,223302,2,1.04272,-0.07813,0.26343,-2.771,4.611,-4.374
2026-06-10 16:18:31.538,2991850994,223538,1,0.91479,-0.2085,0.45898,-0.198,4.763,-0.794
2026-06-10 16:18:31.538,2991850994,223538,2,1.0603,-0.05981,0.26172,-1.397,-2.985,-1.893
2026-06-10 16:18:32.738,2991852194,223738,1,0.92871,-0.21973,0.45703,1.015,-1.29,0.763
2026-06-10 16:18:32.738,2991852194,223738,2,1.04688,-0.06299,0.24902,1.947,2.687,-1.183
2026-06-10 16:18:32.938,2991852394,223938,1,0.9314,-0.21973,0.46045,3.542,0.473,2.168
2026-06-10 16:18:32.938,2991852394,223938,2,1.03687,-0.04688,0.23315,10.931,3.565,-1.954
2026-06-10 16:18:32.180,2991851636,224180,1,0.94214,-0.16943,0.47485,6.099,-0.618,2.489
2026-06-10 16:18:32.180,2991851636,224180,2,1.03833,-0.04248,0.23755,-9.618,1.885,0.771
2026-06-10 16:18:32.391,2991851847,224391,1,0.92505,-0.19873,0.44824,-7.618,3.473,2.672
2026-06-10 16:18:32.391,2991851847,224391,2,1.05591,-0.07983,0.229,-13.656,0.267,7.809
2026-06-10 16:18:32.591,2991852047,224591,1,0.94189,-0.28394,0.43066,-2.565,1.939,-2.878
2026-06-10 16:18:32.591,2991852047,224591,2,1.03809,-0.07642,0.26367,4.26,6.534,-5.275
2026-06-10 16:18:33.791,2991853247,224791,1,0.91431,-0.24805,0.47534,2.427,-2.901,3.74
2026-06-10 16:18:33.791,2991853247,224791,2,1.04956,-0.09009,0.28394,-3.908,0.908,-0.42
2026-06-10 16:18:33.045,2991852501,225045,1,0.91699,-0.27026,0.46826,-4.954,-0.046,-0.878
2026-06-10 16:18:33.045,2991852501,225045,2,1.04272,-0.09741,0.27271,-4.763,1.42,0.13
2026-06-10 16:18:33.268,2991852724,225268,1,0.94238,-0.27197,0.42725,-6.908,4.099,-3.878
2026-06-10 16:18:33.268,2991852724,225268,2,1.05469,-0.10352,0.2688,-2.176,1.939,1.031
2026-06-10 16:18:33.468,2991852924,225468,1,0.93774,-0.25781,0.42871,-5.42,5.954,-2.412
2026-06-10 16:18:33.468,2991852924,225468,2,1.05933,-0.10742,0.24365,-7.855,4.786,-6.015
2026-06-10 16:18:33.669,2991853125,225669,1,0.91187,-0.24194,0.46313,-5.061,7.664,-2.122
2026-06-10 16:18:33.669,2991853125,225669,2,1.02295,-0.09692,0.30298,-2.618,6.74,2.13
2026-06-10 16:18:34.869,2991854325,225869,1,0.91089,-0.27759,0.47461,-8.626,11.992,-2.977
2026-06-10 16:18:34.869,2991854325,225869,2,1.02881,-0.12524,0.30566,-4.45,8.351,-3.557
2026-06-10 16:18:34.124,2991853580,226124,1,0.9021,-0.26099,0.47485,1.87,9.252,-1.282
2026-06-10 16:18:34.124,2991853580,226124,2,1.03882,-0.04785,0.36084,13.542,11.305,-10.992
2026-06-10 16:18:34.324,2991853780,226324,1,0.8457,-0.17383,0.56274,29.649,17.031,7.153
2026-06-10 16:18:34.324,2991853780,226324,2,1.04419,-0.06104,0.33716,25.298,3.534,7.74
2026-06-10 16:18:34.524,2991853980,226524,1,0.89551,-0.16821,0.51611,-2.198,-16.481,1.695
2026-06-10 16:18:34.524,2991853980,226524,2,1.09351,-0.03516,0.26636,5.511,-16.145,10.725
2026-06-10 16:18:35.729,2991855185,226729,1,0.91553,-0.22559,0.47437,18.061,-13.908,11.611
2026-06-10 16:18:35.729,2991855185,226729,2,1.06641,0.02271,0.20874,18.443,-8.977,-7.412
2026-06-10 16:18:35.929,2991855385,226929,1,0.99048,-0.15723,0.42529,3.611,-2.176,-3.542
2026-06-10 16:18:35.929,2991855385,226929,2,0.98462,0.01685,0.11768,-8.626,14.031,-13.534
2026-06-10 16:18:35.129,2991854585,227129,1,0.91162,-0.20776,0.42139,-32.924,5.099,-7.542
2026-06-10 16:18:35.129,2991854585,227129,2,1.08936,-0.08228,0.29199,-27.206,-4.611,12.412
2026-06-10 16:18:35.329,2991854785,227329,1,0.93359,-0.26343,0.40454,-9.221,3.061,-3.069
2026-06-10 16:18:35.329,2991854785,227329,2,1.04614,-0.12012,0.29077,-9.969,-1.641,4.176
2026-06-10 16:18:35.529,2991854985,227529,1,0.92651,-0.22998,0.41699,-0.351,5.817,-0.244
2026-06-10 16:18:35.529,2991854985,227529,2,1.03198,-0.09521,0.25122,-1.42,7.084,0.702
2026-06-10 16:18:36.729,2991856185,227729,1,0.9231,-0.23999,0.42993,-8.221,9.252,-2.336
2026-06-10 16:18:36.729,2991856185,227729,2,1.03564,-0.06567,0.26294,-10.076,2.985,-0.878
2026-06-10 16:18:36.938,2991856394,227938,1,0.94092,-0.23535,0.43726,-12.122,3.443,-3.191
2026-06-10 16:18:36.938,2991856394,227938,2,1.06226,-0.11938,0.21143,-15.275,-3.595,0.947
2026-06-10 16:18:36.138,2991855594,228138,1,0.95605,-0.23486,0.40649,-7.252,-1.023,-5.298
2026-06-10 16:18:36.138,2991855594,228138,2,1.05151,-0.1106,0.22729,0.588,1.137,-2.16
2026-06-10 16:18:36.338,2991855794,228338,1,0.95483,-0.22021,0.40601,6.221,0.702,-0.214
2026-06-10 16:18:36.338,2991855794,228338,2,1.05688,-0.09912,0.22046,5.382,-0.298,-1.122
2026-06-10 16:18:36.546,2991856002,228546,1,0.9519,-0.20166,0.40161,6.504,2.702,1.649
2026-06-10 16:18:36.546,2991856002,228546,2,1.04907,-0.09595,0.2168,3.092,3.725,-1.557
2026-06-10 16:18:37.823,2991857279,228823,1,0.94702,-0.2085,0.42114,0.443,3.656,0.542
2026-06-10 16:18:37.823,2991857279,228823,2,1.05054,-0.09375,0.23096,1.42,2.794,0.443
2026-06-10 16:18:37.023,2991856479,229023,1,0.95483,-0.21509,0.43726,1.573,4.267,0.985
2026-06-10 16:18:37.023,2991856479,229023,2,1.08813,-0.05933,0.26953,5.412,6.145,-9.779
2026-06-10 16:18:37.243,2991856699,229243,1,0.94312,-0.18872,0.44678,3.71,14.092,-3.664
2026-06-10 16:18:37.243,2991856699,229243,2,1.05566,-0.02734,0.28857,8.595,13.573,-9.992
2026-06-10 16:18:37.443,2991856899,229443,1,0.90405,-0.16553,0.51245,5.725,27.557,-6.779
2026-06-10 16:18:37.443,2991856899,229443,2,1.01343,0.01489,0.29199,3.794,12.962,-15.053
2026-06-10 16:18:37.643,2991857099,229643,1,0.85742,-0.14966,0.58301,3.588,23.878,1.13
2026-06-10 16:18:37.643,2991857099,229643,2,1.00537,0.0647,0.36011,5.893,16.168,-8.397
2026-06-10 16:18:38.873,2991858329,229873,1,0.80127,-0.10498,0.69897,16.55,16.504,0.542
2026-06-10 16:18:38.873,2991858329,229873,2,0.96533,0.10278,0.41431,8.733,3.359,-3.74
2026-06-10 16:18:38.073,2991857529,230073,1,0.82813,-0.1123,0.68335,4.756,-3.664,1.687
2026-06-10 16:18:38.073,2991857529,230073,2,1.00049,0.11108,0.39795,5.13,0.954,2.817
2026-06-10 16:18:38.273,2991857729,230273,1,0.83667,-0.11743,0.64722,4.26,-2.275,2.588
2026-06-10 16:18:38.273,2991857729,230273,2,1.00635,0.10474,0.37744,3.588,-1.901,2.13
2026-06-10 16:18:38.473,2991857929,230473,1,0.83936,-0.11597,0.64893,-1.74,-3.603,1.038
2026-06-10 16:18:38.473,2991857929,230473,2,1.01416,0.09082,0.38354,-0.298,-1.534,2.87
2026-06-10 16:18:38.673,2991858129,230673,1,0.85376,-0.1228,0.62012,-3.481,-1.634,1.405
2026-06-10 16:18:38.673,2991858129,230673,2,1.02783,0.07251,0.36304,-1.656,1.725,1.786
2026-06-10 16:18:39.931,2991859387,230931,1,0.86401,-0.14014,0.60718,-3.427,2.618,1.168
2026-06-10 16:18:39.931,2991859387,230931,2,1.02637,0.06055,0.36475,-1.931,0.84,2.305
2026-06-10 16:18:39.131,2991858587,231131,1,0.86084,-0.15674,0.61157,-1.511,-1.389,2.206
2026-06-10 16:18:39.131,2991858587,231131,2,1.03223,0.0481,0.37036,0.42,-1.71,2.924
2026-06-10 16:18:39.341,2991858797,231341,1,0.84033,-0.16138,0.60132,-2.046,-4.733,3.458
2026-06-10 16:18:39.341,2991858797,231341,2,1.03735,0.00806,0.33691,-0.916,-5.802,7.863
2026-06-10 16:18:39.541,2991858997,231541,1,0.87598,-0.18164,0.54492,-8.237,-14.45,5.405
2026-06-10 16:18:39.541,2991858997,231541,2,1.05615,-0.01318,0.32935,-3.145,-9.321,10.481
2026-06-10 16:18:40.741,2991860197,231741,1,0.92139,-0.20874,0.50146,5.504,-5.901,4.985
2026-06-10 16:18:40.741,2991860197,231741,2,1.04419,-0.01953,0.28296,4.496,1.748,-0.901
2026-06-10 16:18:40.949,2991860405,231949,1,0.90869,-0.17334,0.50122,2.107,-3.053,-0.641
2026-06-10 16:18:40.949,2991860405,231949,2,1.0481,-0.03247,0.29004,1.931,-3.305,4.702
2026-06-10 16:18:40.149,2991859605,232149,1,0.9248,-0.18994,0.47754,-2.504,-5.71,-2.374
2026-06-10 16:18:40.149,2991859605,232149,2,1.0647,-0.04614,0.26929,12.611,0.947,3.794
2026-06-10 16:18:40.349,2991859805,232349,1,0.94849,-0.15552,0.44189,2.321,-2.206,-2.588
2026-06-10 16:18:40.349,2991859805,232349,2,1.06323,-0.02588,0.19971,-3.786,1.115,-0.794
2026-06-10 16:18:40.549,2991860005,232549,1,1.00684,-0.21948,0.41699,-35.107,-4.939,-7.046
2026-06-10 16:18:40.549,2991860005,232549,2,1.07251,-0.09595,0.27246,-16.344,-2.252,1.473
2026-06-10 16:18:41.791,2991861247,232791,1,0.94653,-0.2334,0.42773,10.153,9.641,1.794
2026-06-10 16:18:41.791,2991861247,232791,2,1.0293,-0.05737,0.22363,1.275,2.519,-8.618
2026-06-10 16:18:41.991,2991861447,232991,1,0.95801,-0.18262,0.43115,4.588,-0.122,2.084
2026-06-10 16:18:41.991,2991861447,232991,2,1.04907,-0.06934,0.20142,6.061,-1.718,3.969
2026-06-10 16:18:41.191,2991860647,233191,1,0.93872,-0.1936,0.42676,10.282,1.359,3.359
2026-06-10 16:18:41.191,2991860647,233191,2,1.04199,-0.052,0.22681,3.763,0.13,-1.557
2026-06-10 16:18:41.454,2991860910,233454,1,0.97754,-0.17456,0.40039,1.84,0.397,-4.0
2026-06-10 16:18:41.454,2991860910,233454,2,1.05811,-0.0498,0.20874,-0.588,4.153,-6.16
2026-06-10 16:18:41.654,2991861110,233654,1,0.95947,-0.16528,0.44287,-1.008,9.252,-4.092
2026-06-10 16:18:41.654,2991861110,233654,2,1.05273,-0.06958,0.20068,-5.58,1.817,0.908
2026-06-10 16:18:42.854,2991862310,233854,1,0.94995,-0.1814,0.43774,-8.321,4.954,-3.786
2026-06-10 16:18:42.854,2991862310,233854,2,1.05444,-0.05127,0.18994,4.412,0.702,-1.038
2026-06-10 16:18:42.069,2991861525,234068,1,0.96631,-0.16602,0.42627,-0.87,-2.038,-2.42
2026-06-10 16:18:42.069,2991861525,234068,2,1.04688,-0.03149,0.23267,11.71,5.435,-4.305
2026-06-10 16:18:42.268,2991861724,234268,1,0.97754,-0.13989,0.45361,6.137,5.038,1.885
2026-06-10 16:18:42.268,2991861724,234268,2,1.05713,-0.04541,0.20972,3.687,3.87,-1.176
2026-06-10 16:18:42.468,2991861924,234468,1,0.94849,-0.16919,0.45483,8.16,0.863,7.214
2026-06-10 16:18:42.468,2991861924,234468,2,1.05103,-0.04248,0.22266,11.0,3.947,-2.55
2026-06-10 16:18:42.668,2991862124,234668,1,0.94507,-0.15601,0.45142,25.672,2.893,14.13
2026-06-10 16:18:42.668,2991862124,234668,2,1.02148,-0.01392,0.19946,3.069,-1.947,4.71
2026-06-10 16:18:43.906,2991863362,234906,1,0.91699,-0.18921,0.48169,-3.557,-1.252,2.29
2026-06-10 16:18:43.906,2991863362,234906,2,1.06494,-0.02173,0.25195,-3.794,-6.74,1.695
2026-06-10 16:18:43.106,2991862562,235106,1,0.94849,-0.17896,0.45044,4.519,-0.053,3.519
2026-06-10 16:18:43.106,2991862562,235106,2,1.06885,-0.02051,0.20166,-0.107,-0.519,1.328
2026-06-10 16:18:43.306,2991862762,235306,1,0.95605,-0.19531,0.45044,-0.389,2.664,-0.092
2026-06-10 16:18:43.306,2991862762,235306,2,1.06299,-0.03296,0.23242,1.321,2.908,3.206
2026-06-10 16:18:43.521,2991862977,235521,1,0.93604,-0.22681,0.42334,2.794,4.26,4.275
2026-06-10 16:18:43.521,2991862977,235521,2,1.06641,-0.052,0.24316,0.099,-2.176,-3.84
2026-06-10 16:18:44.721,2991864177,235721,1,0.93115,-0.18652,0.46655,9.45,5.809,2.794
2026-06-10 16:18:44.721,2991864177,235721,2,1.03394,-0.08496,0.21094,9.153,9.221,1.176
2026-06-10 16:18:44.921,2991864377,235921,1,0.92407,-0.24487,0.49121,-5.733,-1.122,-2.0
2026-06-10 16:18:44.921,2991864377,235921,2,1.04956,-0.02246,0.26514,-13.427,-3.542,-7.046
2026-06-10 16:18:44.121,2991863577,236121,1,0.93896,-0.17065,0.44971,-8.802,2.687,-4.565
2026-06-10 16:18:44.121,2991863577,236121,2,1.06152,-0.06348,0.24023,-7.779,-1.649,5.382
2026-06-10 16:18:44.321,2991863777,236321,1,0.94238,-0.21191,0.44922,-14.45,1.061,-3.206
2026-06-10 16:18:44.321,2991863777,236321,2,1.06372,-0.08154,0.25317,-18.221,-2.183,2.092
2026-06-10 16:18:44.521,2991863977,236521,1,0.93188,-0.22852,0.4314,-9.885,0.931,-1.939
2026-06-10 16:18:44.521,2991863977,236521,2,1.04932,-0.07202,0.2478,-1.458,1.519,-1.336
2026-06-10 16:18:45.721,2991865177,236721,1,0.93799,-0.20874,0.44824,-2.977,2.328,-0.634
2026-06-10 16:18:45.721,2991865177,236721,2,1.05713,-0.07983,0.31372,-9.527,0.771,5.847
2026-06-10 16:18:45.921,2991865377,236921,1,0.88208,-0.24438,0.40845,-1.718,5.206,11.031
2026-06-10 16:18:45.921,2991865377,236921,2,1.0896,-0.10278,0.15625,-4.817,-9.122,8.015
2026-06-10 16:18:45.121,2991864577,237121,1,0.93628,-0.23364,0.38232,-8.885,-8.863,4.725
2026-06-10 16:18:45.121,2991864577,237121,2,1.06885,-0.15576,0.15527,-15.87,-3.687,-0.664
2026-06-10 16:18:45.321,2991864777,237321,1,0.96826,-0.25757,0.32373,-12.702,3.359,-1.527
2026-06-10 16:18:45.321,2991864777,237321,2,1.06689,-0.14526,0.16821,-10.221,-0.305,2.458
2026-06-10 16:18:45.521,2991864977,237521,1,0.97266,-0.27075,0.32031,2.412,8.893,3.954
2026-06-10 16:18:45.521,2991864977,237521,2,1.06104,-0.15527,0.15088,5.031,9.618,-3.924
2026-06-10 16:18:46.721,2991866177,237721,1,0.97461,-0.24829,0.33252,6.565,10.824,6.809
2026-06-10 16:18:46.721,2991866177,237721,2,1.02905,-0.11572,0.12134,5.42,9.015,-3.313
2026-06-10 16:18:46.921,2991866377,237921,1,1.00928,-0.27002,0.47461,6.336,4.305,3.603
2026-06-10 16:18:46.921,2991866377,237921,2,1.06104,-0.01025,0.24561,12.229,1.748,-14.229
2026-06-10 16:18:46.175,2991865631,238175,1,0.87256,-0.31079,0.48022,13.481,0.733,10.053
2026-06-10 16:18:46.175,2991865631,238175,2,1.02954,-0.09082,0.302,23.153,2.45,2.611
2026-06-10 16:18:46.465,2991865921,238465,1,0.90747,-0.31079,0.47534,23.443,-2.382,7.168
2026-06-10 16:18:46.465,2991865921,238465,2,1.03418,-0.07251,0.41309,28.908,16.687,5.924
2026-06-10 16:18:46.665,2991866121,238665,1,0.82178,-0.33008,0.57861,24.893,4.252,22.809
2026-06-10 16:18:46.665,2991866121,238665,2,1.00073,-0.1062,0.38159,34.405,10.939,13.183
2026-06-10 16:18:47.865,2991867321,238865,1,0.81567,-0.37476,0.56641,27.916,-10.282,20.626
2026-06-10 16:18:47.865,2991867321,238865,2,1.02612,-0.04932,0.43213,24.519,-5.053,1.786
2026-06-10 16:18:47.165,2991866621,239165,1,0.83032,-0.34912,0.5603,25.069,-10.145,7.443
2026-06-10 16:18:47.165,2991866621,239165,2,1.0293,-0.04419,0.39941,26.649,-6.626,6.519
2026-06-10 16:18:47.365,2991866821,239365,1,0.88672,-0.27466,0.52246,20.954,-4.176,4.359
2026-06-10 16:18:47.365,2991866821,239365,2,1.03564,-0.03564,0.35718,19.046,-6.351,8.985
2026-06-10 16:18:47.565,2991867021,239565,1,0.96411,-0.25439,0.40601,22.916,-5.939,5.305
2026-06-10 16:18:47.565,2991867021,239565,1,0.96411,-0.25439,0.40601,22.916,-5.939,5.305
2026-06-10 16:18:47.565,2991867021,239565,2,1.00708,-0.24146,0.25464,-64.534,23.076,-20.519
2026-06-10 16:18:53.785,2991873241,244785,1,0.8479,-0.47876,0.42163,-43.252,26.435,-19.42
2026-06-10 16:18:53.785,2991873241,244785,2,1.04175,-0.25781,0.30762,-53.221,-14.863,-22.069
2026-06-10 16:18:53.985,2991873441,244985,1,0.92944,-0.33252,0.34521,-15.931,0.71,-8.992
2026-06-10 16:18:53.985,2991873441,244985,2,0.99878,-0.11914,0.28198,-30.687,-1.771,2.053
2026-06-10 16:18:53.185,2991872641,245185,1,0.9104,-0.35059,0.41162,-20.305,3.779,-9.344
2026-06-10 16:18:53.185,2991872641,245185,2,1.0564,-0.12256,0.28882,-8.237,6.832,-12.176
2026-06-10 16:18:53.385,2991872841,245385,1,0.95898,-0.28345,0.38623,-32.885,23.229,-15.489
2026-06-10 16:18:53.385,2991872841,245385,2,1.0752,-0.13623,0.33252,-31.656,14.87,-0.061
2026-06-10 16:18:53.585,2991873041,245585,1,0.86841,-0.33667,0.4729,-23.573,17.382,-3.641
2026-06-10 16:18:53.585,2991873041,245585,2,1.00659,-0.13428,0.38794,-16.458,16.511,-19.015
2026-06-10 16:18:54.785,2991874241,245785,1,0.86108,-0.35181,0.50562,-21.481,14.275,-9.885
2026-06-10 16:18:54.785,2991874241,245785,2,1.02661,-0.05249,0.38623,-39.87,4.168,-13.481
2026-06-10 16:18:54.094,2991873550,246093,1,0.91992,-0.27075,0.5542,-42.855,13.45,-29.282
2026-06-10 16:18:54.094,2991873550,246093,2,0.99878,-0.04077,0.3374,-47.977,0.855,-23.366
2026-06-10 16:18:54.316,2991873772,246316,1,0.92896,-0.26855,0.48486,-42.359,16.733,-21.305
2026-06-10 16:18:54.316,2991873772,246316,2,1.03589,-0.08838,0.30151,-39.908,3.359,-3.237
2026-06-10 16:18:54.566,2991874022,246566,1,0.9895,-0.34961,0.44141,-41.771,-0.008,-21.611
2026-06-10 16:18:54.566,2991874022,246566,2,0.92749,-0.07153,0.25024,-1.511,0.847,-17.504
2026-06-10 16:18:55.766,2991875222,246766,1,0.91846,-0.32886,0.43042,-2.87,1.733,-14.046
2026-06-10 16:18:55.766,2991875222,246766,2,1.02026,-0.08301,0.34106,-0.527,-6.573,-0.122
2026-06-10 16:18:55.966,2991875422,246966,1,0.90332,-0.302,0.44946,19.695,-2.595,12.511
2026-06-10 16:18:55.966,2991875422,246966,2,1.03052,-0.11646,0.25317,9.534,-1.023,3.053
2026-06-10 16:18:55.239,2991874695,247238,1,0.89771,-0.26636,0.48218,15.611,-2.458,9.023
2026-06-10 16:18:55.239,2991874695,247238,2,1.03052,-0.09326,0.2522,5.397,2.557,-0.336
2026-06-10 16:18:55.438,2991874894,247438,1,0.92456,-0.30762,0.41724,17.405,-18.374,2.985
2026-06-10 16:18:55.438,2991874894,247438,2,1.07397,-0.12183,0.26733,25.496,-10.664,3.954
2026-06-10 16:18:55.638,2991875094,247638,1,0.99414,-0.2478,0.30981,24.847,-10.656,9.924
2026-06-10 16:18:55.638,2991875094,247638,2,1.06934,-0.03882,0.2019,15.183,5.931,0.214
2026-06-10 16:18:56.862,2991876318,247861,1,0.98315,-0.23389,0.32935,2.313,10.534,-4.977
2026-06-10 16:18:56.862,2991876318,247861,2,1.04541,-0.08813,0.21533,5.618,9.542,2.618
2026-06-10 16:18:56.061,2991875517,248061,1,0.94873,-0.23535,0.40039,0.847,17.099,0.435
2026-06-10 16:18:56.061,2991875517,248061,2,1.04175,-0.07617,0.2146,6.237,8.321,2.863
2026-06-10 16:18:56.261,2991875717,248261,1,0.9248,-0.25244,0.42969,-11.137,10.863,-1.13
2026-06-10 16:18:56.261,2991875717,248261,2,1.04419,-0.11401,0.24097,-21.45,2.237,-5.496
2026-06-10 16:18:56.461,2991875917,248461,1,0.92114,-0.26367,0.44849,-9.908,7.672,-0.489
2026-06-10 16:18:56.461,2991875917,248461,2,1.04419,-0.09961,0.24146,-16.573,1.351,-2.061
2026-06-10 16:18:56.661,2991876117,248661,1,0.92773,-0.27271,0.42847,-13.855,2.023,-1.229
2026-06-10 16:18:56.661,2991876117,248661,2,1.04443,-0.11011,0.24292,-7.588,15.282,-2.183
2026-06-10 16:18:57.861,2991877317,248861,1,0.92383,-0.27197,0.4292,1.557,-2.443,3.061
2026-06-10 16:18:57.861,2991877317,248861,2,1.05518,-0.0918,0.22656,3.344,-0.489,2.122
2026-06-10 16:18:57.092,2991876548,249092,1,0.94214,-0.27686,0.42822,2.305,1.611,1.046
2026-06-10 16:18:57.092,2991876548,249092,2,1.05322,-0.05981,0.21533,5.611,3.954,-4.206
2026-06-10 16:18:57.292,2991876748,249292,1,0.92163,-0.26563,0.43945,12.313,7.924,-4.221
2026-06-10 16:18:57.292,2991876748,249292,2,1.03003,-0.10645,0.25366,13.031,2.748,-4.473
2026-06-10 16:18:57.492,2991876948,249492,1,0.92847,-0.27148,0.44556,24.466,2.443,5.733
2026-06-10 16:18:57.492,2991876948,249492,2,1.04517,-0.104,0.25024,29.374,1.527,-5.397
2026-06-10 16:18:57.694,2991877150,249694,1,0.92065,-0.22095,0.47534,39.931,-5.191,14.183
2026-06-10 16:18:57.694,2991877150,249694,2,1.05786,-0.03979,0.26123,40.504,-0.046,0.588
2026-06-10 16:18:58.912,2991878368,249912,1,0.9292,-0.21851,0.47681,38.847,-5.695,17.847
2026-06-10 16:18:58.912,2991878368,249912,2,1.04761,-0.02222,0.22974,34.099,1.153,0.282
2026-06-10 16:18:58.112,2991877568,250112,1,0.92896,-0.20923,0.49292,31.931,-4.481,10.969
2026-06-10 16:18:58.112,2991877568,250112,2,1.06494,-0.00562,0.24561,40.985,4.511,-1.015
2026-06-10 16:18:58.312,2991877768,250312,1,0.93188,-0.16626,0.47607,33.901,-1.405,10.542
2026-06-10 16:18:58.312,2991877768,250312,2,1.04663,0.02466,0.18701,21.023,4.916,-2.916
2026-06-10 16:18:58.512,2991877968,250512,1,0.93628,-0.07202,0.48486,9.191,-14.924,11.832
2026-06-10 16:18:58.512,2991877968,250512,2,1.05835,0.04785,0.21509,-4.496,-0.282,2.504
2026-06-10 16:18:59.712,2991879168,250712,1,0.96045,-0.19678,0.43701,1.702,-6.954,2.435
2026-06-10 16:18:59.712,2991879168,250712,2,1.07495,-0.01123,0.20605,7.573,-5.924,2.748
2026-06-10 16:18:59.912,2991879368,250912,1,0.97021,-0.18433,0.40479,10.489,-12.962,14.397
2026-06-10 16:18:59.912,2991879368,250912,2,1.06299,0.0188,0.19873,9.069,0.282,6.565
2026-06-10 16:18:59.112,2991878568,251112,1,0.96851,-0.23706,0.39063,1.221,-0.74,-5.74
2026-06-10 16:18:59.112,2991878568,251112,2,1.09082,-0.02466,0.19165,0.366,0.618,-7.504
2026-06-10 16:18:59.316,2991878772,251316,1,0.98657,-0.1626,0.36572,20.504,14.969,8.366
2026-06-10 16:18:59.316,2991878772,251316,2,1.02979,0.0415,0.16821,31.267,20.794,-6.443
2026-06-10 16:18:59.516,2991878972,251516,1,1.07227,-0.14893,0.34473,-12.565,17.069,-0.412
2026-06-10 16:18:59.516,2991878972,251516,2,1.01636,0.01318,0.15015,-15.137,9.71,3.58
2026-06-10 16:19:00.721,2991880177,251721,1,0.90039,-0.19141,0.41602,-23.756,2.824,-2.336
2026-06-10 16:19:00.721,2991880177,251721,2,1.01367,-0.06152,0.17163,-9.901,1.664,12.069
2026-06-10 16:19:00.921,2991880377,251921,1,0.96606,-0.31177,0.42432,5.046,-0.679,11.405
2026-06-10 16:19:00.921,2991880377,251921,2,1.01855,0.00903,0.17822,-0.863,-13.504,-13.672
2026-06-10 16:19:00.121,2991879577,252121,1,0.92017,-0.27515,0.49121,0.359,-1.557,5.0
2026-06-10 16:19:00.121,2991879577,252121,2,1.10645,0.02686,0.30444,-8.779,-2.015,-1.298
2026-06-10 16:19:00.321,2991879777,252321,1,0.83008,-0.22803,0.54297,7.611,8.076,-1.145
2026-06-10 16:19:00.321,2991879777,252321,2,1.01978,-0.09424,0.3728,18.053,9.214,16.679
2026-06-10 16:19:00.521,2991879977,252521,1,0.83301,-0.32373,0.55444,21.702,3.038,17.87
2026-06-10 16:19:00.521,2991879977,252521,2,0.98535,-0.06201,0.35498,8.527,1.16,1.321
2026-06-10 16:19:01.721,2991881177,252721,1,0.90112,-0.32129,0.52319,13.947,-3.038,5.13
2026-06-10 16:19:01.721,2991881177,252721,2,1.01758,-0.10986,0.33057,23.603,2.847,3.351
2026-06-10 16:19:01.922,2991881378,252922,1,0.86499,-0.33936,0.47778,22.359,-8.55,4.29
2026-06-10 16:19:01.922,2991881378,252922,2,1.01733,-0.10205,0.2832,37.901,-4.725,7.962
2026-06-10 16:19:01.122,2991880578,253122,1,0.97974,-0.32593,0.47705,34.855,-21.473,13.656
2026-06-10 16:19:01.122,2991880578,253122,2,0.92383,-0.16699,0.34375,26.481,5.893,3.809
2026-06-10 16:19:01.322,2991880778,253322,1,0.92969,-0.24683,0.46313,34.13,8.099,16.519
2026-06-10 16:19:01.322,2991880778,253322,2,1.05469,-0.10474,0.30493,38.58,6.153,16.908
2026-06-10 16:19:01.522,2991880978,253522,1,0.92725,-0.22607,0.48242,40.267,-1.092,20.649
2026-06-10 16:19:01.522,2991880978,253522,2,1.05005,-0.09106,0.3042,45.496,2.611,7.214
2026-06-10 16:19:02.722,2991882178,253722,1,0.91504,-0.16724,0.52026,46.527,0.29,26.878
2026-06-10 16:19:02.722,2991882178,253722,2,1.06177,-0.02173,0.2251,35.298,-1.176,-4.305
2026-06-10 16:19:02.922,2991882378,253922,1,0.91992,-0.19019,0.44385,9.809,-8.198,10.069
2026-06-10 16:19:02.922,2991882378,253922,2,1.05591,-0.03711,0.24487,9.672,0.756,1.969
2026-06-10 16:19:02.125,2991881581,254124,1,0.94287,-0.22217,0.4519,0.069,2.496,-5.748
2026-06-10 16:19:02.125,2991881581,254124,2,1.04297,-0.06323,0.27295,3.435,-0.107,0.267
2026-06-10 16:19:02.343,2991881799,254343,1,0.92944,-0.19775,0.46021,1.176,2.466,-3.084
2026-06-10 16:19:02.343,2991881799,254343,2,1.04443,-0.07056,0.24878,-0.725,-0.74,-0.794
2026-06-10 16:19:02.543,2991881999,254543,1,0.9707,-0.21021,0.47827,-3.397,-1.282,-5.924
2026-06-10 16:19:02.543,2991881999,254543,2,1.03442,-0.06299,0.25415,9.817,3.0,-6.351
2026-06-10 16:19:03.743,2991883199,254743,1,0.93457,-0.17749,0.48169,-1.962,-2.771,-4.076
2026-06-10 16:19:03.743,2991883199,254743,2,1.04761,-0.104,0.25854,-1.55,-2.916,4.954
2026-06-10 16:19:03.943,2991883399,254943,1,0.93164,-0.20313,0.44287,-1.664,-0.519,1.763
2026-06-10 16:19:03.943,2991883399,254943,2,1.05347,-0.08301,0.26172,-0.969,-0.145,-0.092
2026-06-10 16:19:03.143,2991882599,255143,1,0.94824,-0.21558,0.42627,2.374,0.267,3.534
2026-06-10 16:19:03.143,2991882599,255143,2,1.04297,-0.05811,0.22778,10.924,4.122,-6.45
2026-06-10 16:19:03.343,2991882799,255343,1,0.94531,-0.17969,0.46289,7.641,1.16,3.107
2026-06-10 16:19:03.343,2991882799,255343,2,1.04077,-0.06592,0.20898,-5.092,0.74,-5.29
2026-06-10 16:19:03.543,2991882999,255543,1,0.98267,-0.22485,0.43115,-9.557,2.359,-2.885
2026-06-10 16:19:03.543,2991882999,255543,2,1.07642,-0.07837,0.22827,-9.58,3.45,-1.282
2026-06-10 16:19:04.743,2991884199,255743,1,0.91138,-0.20581,0.41479,-9.145,2.71,-0.122
2026-06-10 16:19:04.743,2991884199,255743,2,1.08716,-0.12061,0.27124,-16.756,-1.702,5.076
2026-06-10 16:19:04.943,2991884399,255943,1,0.91504,-0.24683,0.4292,4.817,1.382,4.916
2026-06-10 16:19:04.943,2991884399,255943,2,1.02393,-0.06152,0.26172,-10.13,3.733,-8.74
2026-06-10 16:19:04.143,2991883599,256143,1,0.92554,-0.22095,0.43213,-5.809,3.176,-0.725
2026-06-10 16:19:04.143,2991883599,256143,2,1.0415,-0.07227,0.23535,-0.275,2.466,0.786
2026-06-10 16:19:04.343,2991883799,256343,1,0.94067,-0.23706,0.43042,-0.855,0.397,1.153
2026-06-10 16:19:04.343,2991883799,256343,2,1.05933,-0.10181,0.23926,7.924,-1.115,6.015
2026-06-10 16:19:04.543,2991883999,256543,1,0.95923,-0.24243,0.42407,4.817,-3.298,4.878
2026-06-10 16:19:04.543,2991883999,256543,2,1.05322,-0.08862,0.24756,2.718,0.885,-1.664
2026-06-10 16:19:05.743,2991885199,256743,1,0.94629,-0.22852,0.41748,1.336,1.237,2.084
2026-06-10 16:19:05.743,2991885199,256743,2,1.04468,-0.07422,0.25098,1.099,2.267,-1.55
2026-06-10 16:19:05.943,2991885399,256943,1,0.94385,-0.23389,0.4104,0.359,5.061,-1.031
2026-06-10 16:19:05.943,2991885399,256943,2,1.05493,-0.07983,0.26147,3.542,2.87,0.183
2026-06-10 16:19:05.239,2991884695,257239,1,0.92139,-0.17505,0.46753,15.84,5.008,8.718
2026-06-10 16:19:05.239,2991884695,257239,2,1.07715,-0.06885,0.23755,1.344,3.336,4.985
2026-06-10 16:19:05.498,2991884954,257497,1,0.92822,-0.2334,0.46118,-1.702,7.954,-0.435
2026-06-10 16:19:05.498,2991884954,257497,2,1.04077,-0.08032,0.25366,-4.45,2.573,-1.893
2026-06-10 16:19:05.697,2991885153,257697,1,0.91309,-0.229,0.46851,-3.786,0.969,-4.542
2026-06-10 16:19:05.697,2991885153,257697,2,1.06494,-0.10327,0.25122,-0.206,-1.481,1.847
2026-06-10 16:19:06.897,2991886353,257897,1,0.92847,-0.26636,0.39844,-1.977,-5.389,0.252
2026-06-10 16:19:06.897,2991886353,257897,2,1.02002,-0.09155,0.26318,10.771,6.198,1.687
2026-06-10 16:19:06.097,2991885553,258097,1,0.94897,-0.25415,0.39087,-0.84,2.748,3.511
2026-06-10 16:19:06.097,2991885553,258097,2,1.06738,-0.06787,0.28027,0.122,-1.099,5.328
2026-06-10 16:19:06.297,2991885753,258297,1,1.00098,-0.27075,0.45288,6.397,8.237,2.84
2026-06-10 16:19:06.297,2991885753,258297,2,1.02295,-0.08228,0.26123,4.298,12.779,-4.87
2026-06-10 16:19:06.497,2991885953,258497,1,0.91284,-0.24414,0.40381,-1.519,11.695,-5.71
2026-06-10 16:19:06.497,2991885953,258497,2,0.9917,-0.07764,0.25684,-21.351,-2.565,-4.336
2026-06-10 16:19:06.697,2991886153,258697,1,0.91553,-0.23315,0.46631,-9.214,19.366,-8.954
2026-06-10 16:19:06.697,2991886153,258697,2,1.05151,-0.06421,0.2937,-31.214,-13.336,0.832
2026-06-10 16:19:07.897,2991887353,258897,1,1.03174,-0.23901,0.40601,-23.565,19.313,-13.305
2026-06-10 16:19:07.897,2991887353,258897,2,1.03613,0.04541,0.32422,-15.267,32.198,-32.214
2026-06-10 16:19:07.097,2991886553,259097,1,0.94824,-0.27344,0.49048,-16.023,12.16,-8.504
2026-06-10 16:19:07.097,2991886553,259097,2,1.03271,-0.01367,0.39282,-22.847,-4.42,1.702
2026-06-10 16:19:07.316,2991886772,259316,1,0.9082,-0.24707,0.53955,-8.924,-2.84,1.504
2026-06-10 16:19:07.316,2991886772,259316,2,0.99194,-0.04346,0.34839,-15.504,-3.656,4.191
2026-06-10 16:19:07.516,2991886972,259516,1,0.90479,-0.23584,0.47559,-18.786,-6.458,-1.092
2026-06-10 16:19:07.516,2991886972,259516,2,1.05103,-0.02246,0.31763,-25.489,-6.908,1.603
2026-06-10 16:19:08.716,2991888172,259716,1,0.94214,-0.28735,0.49243,-12.542,33.817,-2.595
2026-06-10 16:19:08.716,2991888172,259716,2,1.03613,-0.06128,0.33667,-29.466,20.145,-9.58
2026-06-10 16:19:08.916,2991888372,259916,1,0.84668,-0.29956,0.54443,-31.412,28.252,-8.366
2026-06-10 16:19:08.916,2991888372,259916,2,1.01318,-0.04126,0.42383,-46.74,21.115,-29.397
2026-06-10 16:19:08.116,2991887572,260116,1,0.7832,-0.34448,0.61572,-51.733,24.809,-40.733
2026-06-10 16:19:08.116,2991887572,260116,2,1.00635,-0.08569,0.45361,-58.664,12.107,-30.389
2026-06-10 16:19:08.340,2991887796,260340,1,0.74609,-0.36133,0.66748,-36.511,28.817,-41.832
2026-06-10 16:19:08.340,2991887796,260340,2,1.01733,-0.04321,0.46606,-30.985,3.298,-30.924
2026-06-10 16:19:08.540,2991887996,260540,1,0.74414,-0.26831,0.72461,-11.649,14.885,-35.092
2026-06-10 16:19:08.540,2991887996,260540,2,0.99731,0.01855,0.44873,-3.26,-15.618,3.947
2026-06-10 16:19:09.757,2991889213,260757,1,0.83179,-0.21997,0.63184,-9.061,-9.168,-12.878
