datetime,epoch_ms,ts_millis,mpu_id,ax,ay,az,gx,gy,gz
2026-06-14 21:55:58.268,3357697724,30267,2,0.96338,-0.17114,-0.29272,21.481,0.832,-17.794
2026-06-14 21:56:11.163,3357710619,43163,1,0.83813,0.1438,0.66235,9.771,2.519,8.267
2026-06-14 21:56:11.163,3357710619,43163,2,0.9646,0.12329,-0.31982,4.794,3.107,-3.679
2026-06-14 21:56:11.363,3357710819,43363,1,0.83618,0.12646,0.65869,2.038,4.443,3.664
2026-06-14 21:56:11.363,3357710819,43363,2,0.96045,0.09985,-0.33008,0.618,4.214,0.046
2026-06-14 21:56:11.563,3357711019,43563,1,0.83545,0.11133,0.66577,0.069,6.366,2.321
2026-06-14 21:56:11.563,3357711019,43563,2,0.96875,0.09595,-0.30591,-0.702,8.542,-4.046
2026-06-14 21:56:12.117,3357711573,44117,1,0.8186,0.19873,0.76587,-38.832,16.557,-21.992
2026-06-14 21:56:12.117,3357711573,44117,2,1.0564,0.07935,-0.2041,-51.863,11.374,61.962
2026-06-14 21:56:12.317,3357711773,44317,1,0.58423,-0.13525,0.86426,-69.901,14.168,-34.359
2026-06-14 21:56:12.317,3357711773,44317,2,0.9895,-0.19263,-0.19995,-47.366,-24.321,-14.489
2026-06-14 21:56:12.589,3357712045,44589,1,0.72119,-0.19849,0.76611,1.015,-23.389,-13.939
2026-06-14 21:56:12.589,3357712045,44589,2,1.00659,-0.11914,-0.18701,-22.069,-7.42,-23.489
2026-06-14 21:56:13.789,3357713245,44789,1,0.83521,0.02783,0.76807,-12.573,4.015,-45.305
2026-06-14 21:56:13.789,3357713245,44789,2,0.9895,0.41431,-0.32617,-16.489,25.855,-6.015
2026-06-14 21:56:13.989,3357713445,44989,1,0.90576,0.146,0.52295,-115.901,-11.115,-100.053
2026-06-14 21:56:13.989,3357713445,44989,2,0.8103,0.18604,-0.32935,-96.71,-12.504,32.618
2026-06-14 21:56:13.189,3357712645,45189,1,0.88745,0.26636,0.60376,-73.023,-21.763,-78.626
2026-06-14 21:56:13.189,3357712645,45189,2,0.91064,0.19849,-0.42432,-90.687,-12.901,39.069
2026-06-14 21:56:13.389,3357712845,45389,1,0.90845,0.20215,0.58203,-50.405,-3.244,-27.618
2026-06-14 21:56:13.389,3357712845,45389,2,0.97534,0.09229,-0.34863,-15.336,6.527,28.145
2026-06-14 21:56:13.589,3357713045,45589,1,0.83716,0.15601,0.61743,-9.008,10.183,18.595
2026-06-14 21:56:13.589,3357713045,45589,2,0.94214,0.1521,-0.35278,6.786,1.29,4.336
2026-06-14 21:56:14.789,3357714245,45789,1,1.00366,-0.03027,0.74463,-0.916,-4.542,30.137
2026-06-14 21:56:14.789,3357714245,45789,2,1.01758,0.0874,-0.36475,59.687,13.527,-31.176
2026-06-14 21:56:14.989,3357714445,45989,1,0.66626,-0.13989,0.7334,25.832,-8.916,42.191
2026-06-14 21:56:14.989,3357714445,45989,2,1.02588,-0.07593,-0.39258,81.718,-0.267,-55.809
2026-06-14 21:56:14.189,3357713645,46189,1,0.77515,-0.08813,0.64819,75.328,-16.542,49.847
2026-06-14 21:56:14.189,3357713645,46189,2,0.90576,-0.05127,-0.34839,76.611,-13.176,-37.809
2026-06-14 21:56:14.389,3357713845,46389,1,0.92334,-0.104,0.60864,87.947,-4.626,66.977
2026-06-14 21:56:14.389,3357713845,46389,2,1.02979,0.11328,-0.39722,87.992,33.061,-61.977
2026-06-14 21:56:14.589,3357714045,46589,1,0.79639,-0.02686,0.64648,30.389,8.198,17.954
2026-06-14 21:56:14.589,3357714045,46589,2,0.90967,0.0144,-0.39624,45.71,2.595,-7.168
2026-06-14 21:56:15.789,3357715245,46789,1,0.93628,-0.10913,0.75977,55.206,26.916,28.687
2026-06-14 21:56:15.789,3357715245,46789,2,1.18555,0.07153,-0.2002,57.527,58.939,-52.504
2026-06-14 21:56:15.040,3357714496,47040,1,0.74243,0.13672,0.71851,61.313,17.046,17.076
2026-06-14 21:56:15.040,3357714496,47040,2,0.99023,0.21948,-0.10815,40.565,33.924,-33.55
2026-06-14 21:56:15.248,3357714704,47248,1,0.63647,0.38306,0.78394,40.58,17.031,10.893
2026-06-14 21:56:15.248,3357714704,47248,2,1.00464,0.31763,-0.07373,17.565,-1.855,-9.435
2026-06-14 21:56:16.840,3357716296,47840,1,0.91431,0.12939,0.72949,7.359,-14.931,12.702
2026-06-14 21:56:16.840,3357716296,47840,2,1.17383,-0.24072,-0.50928,-4.832,-16.015,13.542
2026-06-14 21:56:16.109,3357715565,48109,1,0.78711,0.05078,0.62549,18.046,-3.092,63.511
2026-06-14 21:56:16.109,3357715565,48109,2,1.06396,0.11914,-0.26758,56.191,13.664,-16.557
2026-06-14 21:56:16.309,3357715765,48309,1,0.80884,-0.01074,0.63989,17.26,-1.176,33.885
2026-06-14 21:56:16.309,3357715765,48309,2,0.95093,0.05054,-0.30591,33.481,-0.855,15.55
2026-06-14 21:56:16.509,3357715965,48509,1,0.82642,0.01807,0.67896,12.977,-2.725,12.328
2026-06-14 21:56:16.509,3357715965,48509,2,0.95898,0.04712,-0.34277,-5.107,-4.55,-8.26
2026-06-14 21:56:16.709,3357716165,48709,1,0.84644,0.04688,0.63086,-2.779,-3.603,-5.947
2026-06-14 21:56:16.709,3357716165,48709,2,1.04932,-0.06372,-0.36963,-8.244,-8.939,9.901
2026-06-14 21:56:17.909,3357717365,48909,1,0.83057,0.00024,0.66602,-2.473,8.321,-7.496
2026-06-14 21:56:17.909,3357717365,48909,2,0.96436,-0.00562,-0.3772,-17.84,-1.74,-1.855
2026-06-14 21:56:17.109,3357716565,49109,1,0.85229,0.01636,0.6333,-6.756,6.626,-10.595
2026-06-14 21:56:17.109,3357716565,49109,2,1.03418,-0.07886,-0.32983,-7.053,1.656,18.099
2026-06-14 21:56:17.309,3357716765,49309,1,0.80859,0.00488,0.65479,-0.817,6.939,-1.458
2026-06-14 21:56:17.309,3357716765,49309,2,0.97974,-0.00171,-0.31836,9.42,7.015,1.198
2026-06-14 21:56:17.520,3357716976,49520,1,0.79932,0.01733,0.67456,5.26,8.031,4.145
2026-06-14 21:56:17.520,3357716976,49520,2,0.96289,-0.00903,-0.33228,5.733,4.374,-0.473
2026-06-14 21:56:17.720,3357717176,49720,1,0.81592,0.01929,0.68384,5.084,1.092,3.481
2026-06-14 21:56:17.720,3357717176,49720,2,0.98755,0.0105,-0.28735,1.557,-0.069,-4.832
2026-06-14 21:56:18.961,3357718417,49961,1,0.83838,0.02246,0.70264,3.015,-0.679,-0.863
2026-06-14 21:56:18.961,3357718417,49961,2,0.98413,0.0188,-0.31958,4.168,0.55,-2.573
2026-06-14 21:56:18.161,3357717617,50161,1,0.83643,0.06299,0.68481,-0.298,-1.824,-1.573
2026-06-14 21:56:18.161,3357717617,50161,2,0.96436,0.02368,-0.32715,-7.405,-5.847,1.198
2026-06-14 21:56:18.361,3357717817,50361,1,0.83447,-0.00317,0.67407,0.397,9.794,4.786
2026-06-14 21:56:18.361,3357717817,50361,2,0.94727,0.00708,-0.30347,6.084,12.893,-0.74
2026-06-14 21:56:18.561,3357718017,50561,1,0.82324,0.02002,0.68335,-3.031,6.053,1.008
2026-06-14 21:56:18.561,3357718017,50561,2,0.96045,0.01685,-0.2981,3.756,2.015,-1.382
2026-06-14 21:56:19.761,3357719217,50761,1,0.82568,0.03809,0.6792,-0.267,-1.374,-0.053
2026-06-14 21:56:19.761,3357719217,50761,2,0.9729,0.01001,-0.31128,-1.824,-1.053,-4.344
2026-06-14 21:56:19.961,3357719417,50961,1,0.84546,0.02905,0.66748,-4.603,-3.733,-7.634
2026-06-14 21:56:19.961,3357719417,50961,2,0.99365,-0.01978,-0.32227,-3.145,1.008,3.924
2026-06-14 21:56:19.181,3357718637,51181,1,0.82861,0.01294,0.66968,-3.038,3.069,-3.832
2026-06-14 21:56:19.181,3357718637,51181,2,0.9502,0.00122,-0.34082,-5.847,1.679,-0.595
2026-06-14 21:56:19.381,3357718837,51381,1,0.85278,0.03516,0.65796,-6.847,-0.214,-5.435
2026-06-14 21:56:19.381,3357718837,51381,2,0.99243,-0.03857,-0.32568,-0.542,-2.641,7.511
2026-06-14 21:56:19.581,3357719037,51581,1,0.82593,0.03027,0.66968,2.901,4.038,3.626
2026-06-14 21:56:19.581,3357719037,51581,2,0.96118,-0.00415,-0.31567,-2.069,0.664,-1.679
2026-06-14 21:56:20.781,3357720237,51781,1,0.86255,0.02734,0.67017,2.099,0.687,1.557
2026-06-14 21:56:20.781,3357720237,51781,2,0.98364,-0.01123,-0.32837,11.107,0.099,1.13
2026-06-14 21:56:20.269,3357719725,52269,1,0.84692,0.00732,0.65625,9.824,6.336,6.076
2026-06-14 21:56:20.269,3357719725,52269,2,0.94385,0.02466,-0.32959,10.206,6.977,-6.573
2026-06-14 21:56:20.469,3357719925,52469,1,0.83374,0.04443,0.66284,1.115,0.985,1.725
2026-06-14 21:56:20.469,3357719925,52469,2,0.979,0.01245,-0.32275,3.481,-0.389,0.176
2026-06-14 21:56:20.669,3357720125,52669,1,0.8374,0.02295,0.66431,0.13,3.489,2.168
2026-06-14 21:56:20.669,3357720125,52669,2,0.96558,0.00366,-0.31812,5.771,3.718,-0.901
2026-06-14 21:56:21.869,3357721325,52869,1,0.83691,0.03003,0.66064,1.687,1.328,0.137
2026-06-14 21:56:21.869,3357721325,52869,2,0.95752,-0.00586,-0.33936,-1.153,-5.481,3.42
2026-06-14 21:56:21.435,3357720891,53435,1,0.85352,-0.02344,0.66431,-1.298,2.084,3.962
2026-06-14 21:56:21.435,3357720891,53435,2,0.9563,-0.01685,-0.34619,4.397,1.588,-3.962
2026-06-14 21:56:22.833,3357722289,53832,1,0.8418,-0.00659,0.66577,5.366,6.916,4.405
2026-06-14 21:56:22.833,3357722289,53832,2,0.96509,-0.01855,-0.32031,9.298,8.565,-5.191
2026-06-14 21:56:22.032,3357721488,54032,1,0.82349,0.02026,0.6748,1.214,2.473,1.298
2026-06-14 21:56:22.032,3357721488,54032,2,0.96973,-0.02271,-0.32153,2.382,1.053,-2.466
2026-06-14 21:56:22.232,3357721688,54232,1,0.84741,-0.00464,0.67725,3.092,6.45,1.046
2026-06-14 21:56:22.232,3357721688,54232,2,0.98438,-0.02368,-0.33325,-6.718,3.008,-2.748
2026-06-14 21:56:22.448,3357721904,54448,1,0.83911,0.01343,0.67114,3.893,3.45,-1.969
2026-06-14 21:56:22.448,3357721904,54448,2,0.98608,-0.03052,-0.30688,-4.947,3.924,-1.855
2026-06-14 21:56:22.648,3357722104,54648,1,0.79834,0.03149,0.70947,8.466,1.824,4.214
2026-06-14 21:56:22.648,3357722104,54648,2,0.96631,0.00317,-0.30078,7.267,0.122,-8.939
2026-06-14 21:56:23.848,3357723304,54848,1,0.84717,0.02734,0.69409,1.969,-2.863,-0.725
2026-06-14 21:56:23.848,3357723304,54848,2,0.97729,0.03223,-0.31177,-3.389,-0.565,-1.084
2026-06-14 21:56:23.062,3357722518,55062,1,0.84155,0.04004,0.65845,-7.298,-0.038,-6.29
2026-06-14 21:56:23.062,3357722518,55062,2,0.97095,0.02759,-0.30908,-6.084,-1.0,2.427
2026-06-14 21:56:23.262,3357722718,55262,1,0.82642,0.03955,0.66528,-2.489,3.45,-2.58
2026-06-14 21:56:23.262,3357722718,55262,2,0.96436,-0.00586,-0.30737,-1.916,0.366,4.786
2026-06-14 21:56:23.462,3357722918,55462,1,0.82153,0.02637,0.6665,-4.603,1.099,0.679
2026-06-14 21:56:23.462,3357722918,55462,2,0.95386,0.03394,-0.3186,-1.863,0.412,-1.664
2026-06-14 21:56:23.662,3357723118,55662,1,0.93896,0.01514,0.6521,-8.313,0.046,-3.756
2026-06-14 21:56:23.662,3357723118,55662,2,0.96826,0.01074,-0.30591,9.466,4.229,4.214
2026-06-14 21:56:24.862,3357724318,55862,1,0.83838,0.03076,0.65234,-8.038,0.168,-4.603
2026-06-14 21:56:24.862,3357724318,55862,2,0.95654,0.01074,-0.36279,-12.015,-3.855,-1.298
2026-06-14 21:56:24.062,3357723518,56062,1,0.87402,0.00366,0.64038,-3.802,3.137,-3.221
2026-06-14 21:56:24.062,3357723518,56062,2,0.9502,0.00513,-0.31641,4.328,11.344,-2.237
2026-06-14 21:56:24.262,3357723718,56262,1,0.84131,0.02148,0.65283,-1.237,2.771,-0.344
2026-06-14 21:56:24.262,3357723718,56262,2,0.95703,0.00391,-0.34229,-3.16,0.008,-3.328
2026-06-14 21:56:24.462,3357723918,56462,1,0.87036,0.00366,0.65356,2.382,3.641,1.794
2026-06-14 21:56:24.462,3357723918,56462,2,0.97485,0.00342,-0.3186,11.71,9.275,-1.893
2026-06-14 21:56:24.662,3357724118,56662,1,0.83813,0.02686,0.64575,2.954,2.847,2.374
2026-06-14 21:56:24.662,3357724118,56662,2,0.95239,0.02686,-0.33325,-3.008,-0.939,-5.29
2026-06-14 21:56:25.862,3357725318,56862,1,0.89258,0.02271,0.65234,4.802,2.183,0.725
2026-06-14 21:56:25.862,3357725318,56862,2,0.97925,0.02539,-0.31665,14.679,9.092,-5.588
2026-06-14 21:56:25.062,3357724518,57062,1,0.84009,0.04712,0.66016,3.557,2.496,1.305
2026-06-14 21:56:25.062,3357724518,57062,2,0.97827,0.02197,-0.32471,1.733,1.137,-3.267
2026-06-14 21:56:25.262,3357724718,57262,1,0.83594,0.02832,0.67188,2.939,4.992,1.405
2026-06-14 21:56:25.262,3357724718,57262,2,0.96533,0.02222,-0.32202,0.702,1.26,0.015
2026-06-14 21:56:25.499,3357724955,57499,1,0.83594,0.03906,0.65308,-1.809,1.29,-1.359
2026-06-14 21:56:25.499,3357724955,57499,2,0.99072,,-0.32471,-1.458,-1.115,1.802
2026-06-14 21:56:25.699,3357725155,57699,1,0.82251,0.0376,0.66992,1.099,2.458,0.206
2026-06-14 21:56:25.699,3357725155,57699,2,0.98877,-0.00635,-0.31934,-2.046,0.008,1.26
2026-06-14 21:56:26.899,3357726355,57899,1,0.82666,0.02271,0.67261,-0.023,3.122,-0.809
2026-06-14 21:56:26.899,3357726355,57899,2,0.96704,0.01001,-0.32568,-3.748,1.481,0.237
2026-06-14 21:56:26.099,3357725555,58099,1,0.84692,0.03809,0.66943,-2.435,0.794,-2.901
2026-06-14 21:56:26.099,3357725555,58099,2,1.0,-0.03198,-0.31909,-0.756,-0.748,5.244
2026-06-14 21:56:26.299,3357725755,58299,1,0.82397,0.03589,0.67212,2.176,3.252,2.641
2026-06-14 21:56:26.299,3357725755,58299,2,0.97168,-0.00415,-0.3125,-3.313,-0.053,-0.756
2026-06-14 21:56:26.499,3357725955,58499,1,0.85278,0.02441,0.65771,0.237,0.733,0.656
2026-06-14 21:56:26.499,3357725955,58499,2,0.98389,-0.01318,-0.31055,5.641,3.344,0.137
2026-06-14 21:56:26.699,3357726155,58699,1,0.83154,0.03052,0.67847,1.374,2.748,2.397
2026-06-14 21:56:26.699,3357726155,58699,2,1.0166,-0.03979,-0.3042,-5.122,0.794,5.733
2026-06-14 21:56:27.909,3357727365,58909,1,0.85449,0.01001,0.6687,4.702,11.977,1.794
2026-06-14 21:56:27.909,3357727365,58909,2,0.96899,-0.01782,-0.27466,1.969,4.55,-3.481
2026-06-14 21:56:27.339,3357726795,59339,1,0.82275,-0.00391,0.68042,10.099,4.611,11.649
2026-06-14 21:56:27.339,3357726795,59339,2,0.98047,0.00293,-0.30371,1.611,1.412,-3.855
2026-06-14 21:56:28.830,3357728286,59830,1,0.80273,0.04077,0.70435,3.137,2.351,0.008
2026-06-14 21:56:28.830,3357728286,59830,2,1.01245,-0.01758,-0.32373,-1.878,0.298,7.473
2026-06-14 21:56:29.786,3357729242,60786,1,0.86548,0.04639,0.68213,1.298,0.573,0.458
2026-06-14 21:56:29.786,3357729242,60786,2,0.98315,-0.0127,-0.28857,1.336,1.519,2.244
2026-06-14 21:56:30.324,3357729780,62324,2,0.99023,-0.02759,-0.27612,0.977,3.435,0.473
2026-06-14 21:56:47.115,3357746571,79115,1,0.88208,0.04858,0.65479,-5.771,-1.107,-1.947
2026-06-14 21:56:47.115,3357746571,79115,2,0.97168,-0.00342,-0.32129,-0.038,1.695,-1.496
2026-06-14 21:56:48.640,3357748096,80640,1,0.83911,0.04565,0.66138,0.481,2.107,-0.351
2026-06-14 21:56:48.640,3357748096,80640,2,0.97437,0.00024,-0.31323,1.763,2.985,-0.282
2026-06-14 21:56:49.840,3357749296,80840,1,0.83936,0.05176,0.65381,-1.45,1.107,-1.817
2026-06-14 21:56:49.840,3357749296,80840,2,0.96973,0.00049,-0.32153,0.389,1.351,0.824
2026-06-14 21:56:49.040,3357748496,81040,1,0.84058,0.04541,0.67725,0.359,2.084,-0.534
2026-06-14 21:56:49.040,3357748496,81040,2,0.97192,-0.00879,-0.31641,0.565,2.443,-1.229
2026-06-14 21:56:49.240,3357748696,81240,1,0.84106,0.04248,0.65698,1.809,1.038,0.977
2026-06-14 21:56:49.240,3357748696,81240,2,0.96777,0.00049,-0.33008,-0.29,-0.328,-1.092
2026-06-14 21:56:49.440,3357748896,81440,1,0.84399,0.0437,0.6499,1.863,1.939,1.496
2026-06-14 21:56:49.440,3357748896,81440,2,0.97437,0.01074,-0.32617,-0.809,1.145,-1.26
2026-06-14 21:56:49.640,3357749096,81640,1,0.84619,0.05005,0.65698,0.931,3.267,-0.183
2026-06-14 21:56:49.640,3357749096,81640,2,0.96899,0.00415,-0.3252,-1.344,1.031,-0.008
2026-06-14 21:56:50.840,3357750296,81840,1,0.84351,0.04834,0.66528,0.405,1.847,0.16
2026-06-14 21:56:50.840,3357750296,81840,2,0.96729,0.00269,-0.32275,0.221,1.305,-1.168
2026-06-14 21:56:50.040,3357749496,82040,1,0.84424,0.04663,0.65771,0.565,1.42,0.298
2026-06-14 21:56:50.040,3357749496,82040,2,0.97192,0.00806,-0.32324,0.183,1.931,-0.496
2026-06-14 21:56:50.240,3357749696,82240,1,0.84741,0.04565,0.65039,0.718,2.779,0.427
2026-06-14 21:56:50.240,3357749696,82240,2,0.96973,0.00928,-0.32959,,1.435,-0.198
2026-06-14 21:56:50.440,3357749896,82440,1,0.84033,0.04712,0.66284,0.55,3.908,0.679
2026-06-14 21:56:50.440,3357749896,82440,2,0.97168,0.00488,-0.32422,2.252,2.374,-0.443
2026-06-14 21:56:50.640,3357750096,82640,1,0.84595,0.04785,0.64819,0.137,2.359,0.214
2026-06-14 21:56:50.640,3357750096,82640,2,0.97534,-0.00293,-0.33154,3.107,1.641,-0.153
2026-06-14 21:56:51.840,3357751296,82840,1,0.8418,0.03809,0.66211,0.901,2.031,0.641
2026-06-14 21:56:51.840,3357751296,82840,2,0.96729,-0.00317,-0.3186,2.855,2.221,-0.748
2026-06-14 21:56:51.040,3357750496,83040,1,0.84839,0.0481,0.6499,0.748,2.183,0.611
2026-06-14 21:56:51.040,3357750496,83040,2,0.96924,-0.00684,-0.32349,1.496,1.595,-0.015
2026-06-14 21:56:51.240,3357750696,83240,1,0.8501,0.03906,0.65259,0.214,1.771,0.481
2026-06-14 21:56:51.240,3357750696,83240,2,0.96533,0.00439,-0.33081,-1.153,0.565,-1.046
2026-06-14 21:56:51.440,3357750896,83440,1,0.84692,0.03906,0.65649,0.618,1.13,0.26
2026-06-14 21:56:51.440,3357750896,83440,2,0.97095,-0.01001,-0.33423,-1.756,0.687,-0.496
2026-06-14 21:56:52.053,3357751509,84053,1,0.84839,0.03833,0.66016,0.008,2.038,0.756
2026-06-14 21:56:52.053,3357751509,84053,2,0.96558,0.00464,-0.33789,1.145,3.321,-0.321
2026-06-14 21:56:52.460,3357751916,84460,1,0.8584,0.03052,0.65161,0.634,3.885,0.603
2026-06-14 21:56:52.460,3357751916,84460,2,0.97046,-0.00586,-0.32813,2.763,2.176,1.008
2026-06-14 21:56:52.660,3357752116,84660,1,0.84717,0.03638,0.64893,3.038,4.176,1.458
2026-06-14 21:56:52.660,3357752116,84660,2,0.96875,-0.00391,-0.30444,6.496,5.481,-2.252
2026-06-14 21:56:53.982,3357753438,84982,1,0.8396,0.03979,0.65698,-0.092,1.802,-1.153
2026-06-14 21:56:53.982,3357753438,84982,2,0.98193,-0.00366,-0.31787,1.908,1.221,-0.45
2026-06-14 21:56:53.182,3357752638,85182,1,0.84033,0.04297,0.65942,0.702,3.229,-0.031
2026-06-14 21:56:53.182,3357752638,85182,2,0.97266,-0.00488,-0.32397,2.198,1.954,-0.221
2026-06-14 21:56:53.382,3357752838,85382,1,0.84277,0.04663,0.66309,0.473,2.786,0.466
2026-06-14 21:56:53.382,3357752838,85382,2,0.97461,-0.01123,-0.32642,-3.313,-0.008,0.687
2026-06-14 21:56:53.598,3357753054,85598,1,0.84399,0.03882,0.66577,0.229,0.282,0.794
2026-06-14 21:56:53.598,3357753054,85598,2,0.96362,-0.01025,-0.32056,-2.863,-0.069,-0.29
2026-06-14 21:56:54.798,3357754254,85798,1,0.84399,0.03345,0.65771,-0.183,0.786,0.191
2026-06-14 21:56:54.798,3357754254,85798,2,0.96777,0.0022,-0.34277,-2.252,-0.305,-0.366
2026-06-14 21:56:54.998,3357754454,85998,1,0.85034,0.03857,0.65137,-0.863,0.42,-0.588
2026-06-14 21:56:54.998,3357754454,85998,2,0.96411,,-0.34644,-1.198,0.229,-1.405
2026-06-14 21:56:54.513,3357753969,86513,1,0.85815,0.03052,0.6394,,1.763,-0.168
2026-06-14 21:56:54.513,3357753969,86513,2,0.95825,0.0083,-0.33813,-0.046,1.176,-1.282
2026-06-14 21:56:55.213,3357754669,87213,1,0.8501,0.03711,0.63916,1.321,2.771,0.443
2026-06-14 21:56:55.213,3357754669,87213,2,0.96802,0.00537,-0.34863,3.489,2.641,-0.534
2026-06-14 21:56:55.413,3357754869,87413,1,0.85327,0.04224,0.63306,0.481,3.038,-0.061
2026-06-14 21:56:55.413,3357754869,87413,2,0.96704,,-0.33643,3.244,1.664,0.42
2026-06-14 21:56:55.613,3357755069,87613,1,0.85449,0.03833,0.64478,0.198,2.061,0.29
2026-06-14 21:56:55.613,3357755069,87613,2,0.9668,-0.00952,-0.3418,-0.092,1.817,0.336
2026-06-14 21:56:56.813,3357756269,87813,1,0.85742,0.03638,0.63257,0.519,1.802,0.962
2026-06-14 21:56:56.813,3357756269,87813,2,0.96655,0.00928,-0.33887,0.855,1.595,-1.374
2026-06-14 21:56:57.966,3357757422,88965,1,0.86182,0.04321,0.63843,0.435,2.053,-0.16
2026-06-14 21:56:57.966,3357757422,88965,2,0.9624,0.01953,-0.35229,-0.84,1.473,0.107
2026-06-14 21:56:57.248,3357756704,89248,1,0.8689,0.03784,0.63281,0.061,2.069,0.504
2026-06-14 21:56:57.248,3357756704,89248,2,0.96411,0.0105,-0.34229,7.702,7.107,-2.664
2026-06-14 21:56:57.660,3357757116,89660,1,0.8667,0.00464,0.64209,-2.595,4.374,-4.427
2026-06-14 21:56:57.660,3357757116,89660,2,0.97998,-0.03125,-0.30298,1.092,4.504,1.786
2026-06-14 21:56:58.542,3357757998,90542,1,0.83374,0.03931,0.66113,3.878,0.427,1.954
2026-06-14 21:56:58.542,3357757998,90542,2,0.9873,-0.00049,-0.32324,-0.649,0.061,-4.435
2026-06-14 21:56:59.249,3357758705,91249,1,0.84497,0.06885,0.66309,5.519,2.824,2.779
2026-06-14 21:56:59.249,3357758705,91249,2,0.97607,0.01587,-0.32324,2.748,1.336,-0.481
2026-06-14 21:56:59.721,3357759177,91721,1,0.8374,0.04858,0.66211,-0.504,2.496,-0.298
2026-06-14 21:56:59.721,3357759177,91721,2,0.96851,0.00586,-0.31445,1.275,1.718,-0.168
2026-06-14 21:57:00.045,3357759501,92045,1,0.82959,0.04907,0.66577,-0.038,2.351,-0.099
2026-06-14 21:57:00.045,3357759501,92045,2,0.96777,0.00781,-0.32349,0.481,1.069,0.863
2026-06-14 21:57:00.354,3357759810,92354,1,0.83545,0.04321,0.65723,0.58,2.275,0.198
2026-06-14 21:57:00.354,3357759810,92354,2,0.96948,0.01025,-0.31738,1.321,1.275,-0.893
2026-06-14 21:57:01.568,3357761024,93568,1,0.83667,0.04443,0.65894,0.321,1.748,0.153
2026-06-14 21:57:01.568,3357761024,93568,2,0.9729,0.01489,-0.32764,-0.061,0.969,-0.855
2026-06-14 21:57:02.947,3357762403,93946,1,0.84375,0.04712,0.66113,0.733,2.718,1.176
2026-06-14 21:57:02.947,3357762403,93946,2,0.97559,0.00464,-0.32397,2.153,1.855,-0.267
2026-06-14 21:57:02.261,3357761717,94261,1,0.84009,0.04126,0.65283,0.74,3.962,0.412
2026-06-14 21:57:02.261,3357761717,94261,2,0.97192,-0.00635,-0.32397,1.756,1.779,0.26
2026-06-14 21:57:02.611,3357762067,94611,1,0.83765,0.04248,0.66553,1.084,2.87,0.618
2026-06-14 21:57:02.611,3357762067,94611,2,0.96899,-0.0061,-0.32422,-2.183,0.679,0.359
2026-06-14 21:57:03.188,3357762644,95188,1,0.84619,0.04419,0.65479,0.863,0.252,0.725
2026-06-14 21:57:03.188,3357762644,95188,2,0.96948,0.00024,-0.3374,0.282,1.42,-0.649
2026-06-14 21:57:03.476,3357762932,95475,1,0.84399,0.0498,0.65625,0.046,2.366,0.031
2026-06-14 21:57:03.476,3357762932,95475,2,0.97144,0.00586,-0.34082,1.58,1.931,-0.061
2026-06-14 21:57:04.855,3357764311,95855,1,0.84888,0.04395,0.65894,-0.412,2.298,0.458
2026-06-14 21:57:04.855,3357764311,95855,2,0.96606,0.00049,-0.33472,-0.702,1.42,0.153
2026-06-14 21:57:04.146,3357763602,96146,1,0.84521,0.03711,0.65259,-0.313,2.809,0.252
2026-06-14 21:57:04.146,3357763602,96146,2,0.96436,-0.01123,-0.33618,3.344,1.679,-0.336
2026-06-14 21:57:04.617,3357764073,96617,1,0.84937,0.04321,0.65698,0.679,3.031,0.809
2026-06-14 21:57:04.617,3357764073,96617,2,0.96631,-0.01147,-0.33008,1.954,2.649,-0.282
2026-06-14 21:57:05.102,3357764558,97102,1,0.83496,0.03979,0.66309,0.641,1.061,0.099
2026-06-14 21:57:05.102,3357764558,97102,2,0.96436,-0.01611,-0.32983,-3.481,4.053,3.534
2026-06-14 21:57:05.496,3357764952,97495,1,0.86255,0.03809,0.68872,-1.679,5.298,-1.641
2026-06-14 21:57:05.496,3357764952,97495,2,0.98291,-0.00122,-0.2854,-16.779,-8.969,-0.267
2026-06-14 21:57:08.751,3357768207,99750,1,0.83984,0.02002,0.66577,-4.45,-6.084,-5.046
2026-06-14 21:57:21.124,3357780580,113124,2,0.9751,-0.01953,-0.31763,-12.359,0.374,-4.588
2026-06-14 21:57:41.495,3357800951,133495,1,0.84082,0.04492,0.65332,-0.153,2.611,-0.168
2026-06-14 21:57:41.495,3357800951,133495,1,0.84082,0.04492,0.65332,-0.153,2.611,-0.168
2026-06-14 21:57:41.495,3357800951,133495,2,0.96509,0.00171,-0.34229,-6.496,-2.443,7.031
2026-06-14 21:57:50.754,3357810210,141754,1,0.8562,0.05151,0.64063,-4.252,1.817,-7.695
2026-06-14 21:57:50.754,3357810210,141754,2,0.9751,-0.00439,-0.31982,1.168,1.122,0.267
2026-06-14 21:57:53.822,3357813278,144822,1,0.84277,0.05078,0.66357,1.183,4.092,0.527
2026-06-14 21:57:53.822,3357813278,144822,2,0.97168,-0.00757,-0.30664,0.962,1.237,-0.359
2026-06-14 21:57:53.022,3357812478,145022,1,0.82935,0.04736,0.66797,0.626,2.427,0.061
2026-06-14 21:57:53.022,3357812478,145022,2,0.95703,0.04712,-0.3479,-6.405,0.969,9.893
2026-06-14 21:57:56.851,3357816307,147850,1,0.83813,0.0542,0.65771,-17.0,8.664,-10.87
2026-06-14 21:57:56.851,3357816307,147850,2,0.9624,-0.00195,-0.33984,-8.733,-1.382,15.473
2026-06-14 21:57:56.050,3357815506,148050,1,0.83032,-0.0127,0.66504,-12.519,1.641,-10.244
2026-06-14 21:57:56.050,3357815506,148050,2,0.99316,0.0957,-0.24585,9.824,15.305,-18.229
2026-06-14 21:57:59.891,3357819347,150890,1,0.79688,0.08179,0.67456,11.824,4.282,0.672
2026-06-14 21:57:59.891,3357819347,150890,2,0.97095,0.10498,-0.26221,13.252,6.771,-27.626
2026-06-14 21:58:02.823,3357822279,153823,1,0.76294,-0.09448,0.66504,6.168,-1.115,-22.565
2026-06-14 21:58:02.823,3357822279,153823,2,1.00635,-0.1897,-0.45093,7.687,-20.672,-16.771
2026-06-14 21:58:05.848,3357825304,156847,1,0.83789,-0.11816,0.63745,16.351,-3.298,7.427
2026-06-14 21:58:05.848,3357825304,156847,2,0.89209,-0.05908,-0.31787,27.42,-4.641,-6.45
2026-06-14 21:58:05.047,3357824503,157047,1,0.9187,-0.06274,0.63086,23.053,7.534,13.313
2026-06-14 21:58:05.047,3357824503,157047,1,0.9187,-0.06274,0.63086,23.053,7.534,13.313
2026-06-14 21:58:05.047,3357824503,157047,2,0.91577,-0.22095,-0.40283,-25.565,5.168,7.504
2026-06-14 21:58:10.241,3357829697,162241,1,0.84106,-0.22729,0.63989,-7.924,6.87,-9.053
2026-06-14 21:58:10.241,3357829697,162241,2,0.91187,-0.13135,-0.44067,-12.954,5.122,-22.771
2026-06-14 21:58:10.441,3357829897,162441,1,0.85767,-0.07324,0.65308,14.924,-4.023,-13.336
2026-06-14 21:58:10.441,3357829897,162441,2,0.93115,-0.02612,-0.37793,9.656,-5.183,-16.137
2026-06-14 21:58:10.641,3357830097,162641,1,0.8584,-0.0542,0.60547,33.29,-4.366,-2.733
2026-06-14 21:58:10.641,3357830097,162641,2,0.94971,0.10352,-0.33667,9.641,12.939,-31.168
2026-06-14 21:58:11.868,3357831324,162868,1,0.87573,0.17261,0.58813,31.573,9.672,-10.435
2026-06-14 21:58:11.868,3357831324,162868,2,0.98999,0.1748,-0.29565,29.466,17.809,-13.405
2026-06-14 21:58:11.075,3357830531,163075,1,0.84717,0.24854,0.61963,1.183,6.382,-15.015
2026-06-14 21:58:11.075,3357830531,163075,2,0.95825,0.2041,-0.32861,-29.954,-5.832,18.382
2026-06-14 21:58:11.289,3357830745,163289,1,0.85693,0.29639,0.62207,-24.901,-1.733,-19.023
2026-06-14 21:58:11.289,3357830745,163289,2,0.91406,0.20435,-0.33008,-26.443,-1.901,26.206
2026-06-14 21:58:11.579,3357831035,163579,1,0.8335,0.229,0.61816,-38.504,-11.702,-21.756
2026-06-14 21:58:11.579,3357831035,163579,2,0.9502,0.05542,-0.36279,-24.366,-4.878,16.374
2026-06-14 21:58:12.816,3357832272,163816,1,0.88062,0.02148,0.62988,-25.458,3.565,-6.832
2026-06-14 21:58:12.816,3357832272,163816,2,0.96802,0.0564,-0.36035,6.42,2.947,4.901
2026-06-14 21:58:13.642,3357833098,165642,1,0.86401,0.08887,0.63403,3.649,5.427,4.031
2026-06-14 21:58:13.642,3357833098,165642,2,0.95923,0.04077,-0.36694,21.351,11.046,-4.695
2026-06-14 21:58:14.949,3357834405,165949,1,0.81934,0.16333,0.61865,10.74,8.649,9.053
2026-06-14 21:58:14.949,3357834405,165949,2,0.97095,0.03003,-0.3418,36.076,3.718,-5.954
2026-06-14 21:58:14.223,3357833679,166223,1,0.92285,0.38647,0.56055,-21.504,14.198,22.779
2026-06-14 21:58:14.223,3357833679,166223,2,0.9873,0.14502,-0.30005,-0.351,2.313,24.847
2026-06-14 21:58:14.493,3357833949,166493,1,0.90674,0.02539,0.64771,-77.405,-0.672,-39.481
2026-06-14 21:58:14.493,3357833949,166493,2,1.05762,-0.02271,-0.44751,-108.313,-9.641,49.511
2026-06-14 21:58:14.704,3357834160,166704,1,0.80884,-0.14966,0.573,-59.473,21.366,-30.137
2026-06-14 21:58:14.704,3357834160,166704,2,0.86816,-0.29175,-0.47168,-23.382,-0.069,40.191
2026-06-14 21:58:15.933,3357835389,166933,1,0.92065,-0.28906,0.54321,-40.954,16.427,-24.489
2026-06-14 21:58:15.933,3357835389,166933,2,0.89429,-0.33203,-0.36987,2.137,33.443,-18.435
2026-06-14 21:58:15.149,3357834605,167149,1,0.75562,-0.38037,0.6521,58.641,13.473,11.015
2026-06-14 21:58:15.149,3357834605,167149,2,1.24536,0.25952,-0.04956,64.916,7.397,-33.71
2026-06-14 21:58:15.458,3357834914,167458,1,0.6001,0.2876,0.83569,3.687,31.198,-21.176
2026-06-14 21:58:15.458,3357834914,167458,2,0.98193,-0.18628,0.05933,-13.618,29.901,11.267
2026-06-14 21:58:15.719,3357835175,167719,1,0.49561,0.12817,1.01978,22.733,41.153,23.115
2026-06-14 21:58:15.719,3357835175,167719,2,1.03101,-0.00244,0.08472,0.794,8.588,1.687
2026-06-14 21:58:16.991,3357836447,167991,1,0.43384,0.19458,0.98438,-23.038,-1.58,-5.557
2026-06-14 21:58:16.991,3357836447,167991,2,1.06152,-0.08447,0.14819,-18.969,-10.527,16.038
2026-06-14 21:58:19.621,3357839077,171621,1,0.76611,0.07837,0.77686,-14.061,-20.466,-9.176
2026-06-14 21:58:19.621,3357839077,171621,2,0.97705,-0.05542,-0.18579,-8.107,-7.573,3.618
2026-06-14 21:58:20.909,3357840365,171909,1,0.89063,-0.00122,0.77783,-17.649,-16.664,-14.336
2026-06-14 21:58:20.909,3357840365,171909,2,1.0166,0.03003,-0.46045,24.924,-12.817,-38.122
2026-06-14 21:58:20.178,3357839634,172178,1,0.73706,0.06006,0.56616,8.519,-2.359,-3.382
2026-06-14 21:58:20.178,3357839634,172178,2,0.94165,-0.02295,-0.34546,9.153,18.687,-29.863
2026-06-14 21:58:20.489,3357839945,172488,1,0.87109,0.10156,0.67944,17.939,0.115,3.969
2026-06-14 21:58:20.489,3357839945,172488,2,0.99585,0.0459,-0.36597,15.702,3.092,-13.74
2026-06-14 21:58:21.774,3357841230,172774,1,0.85986,0.13525,0.60693,0.107,8.901,-7.359
2026-06-14 21:58:21.774,3357841230,172774,2,0.91016,0.03174,-0.3562,-11.71,0.794,9.16
2026-06-14 21:58:21.049,3357840505,173048,1,0.77539,0.08398,0.71387,0.786,5.015,13.137
2026-06-14 21:58:21.049,3357840505,173048,2,0.97119,-0.00366,-0.26172,5.374,-5.099,5.206
2026-06-14 21:58:21.248,3357840704,173248,1,0.75195,0.04053,0.73047,13.489,-0.046,5.656
2026-06-14 21:58:21.248,3357840704,173248,2,1.00317,0.03076,-0.24219,20.992,3.252,-14.443
2026-06-14 21:58:21.499,3357840955,173499,1,0.79639,0.10303,0.72266,6.13,7.221,-3.87
2026-06-14 21:58:21.499,3357840955,173499,2,1.03394,0.03027,-0.27954,-4.45,11.489,-13.947
2026-06-14 21:58:21.727,3357841183,173727,1,0.8291,0.15332,0.7229,10.412,6.725,-2.84
2026-06-14 21:58:21.727,3357841183,173727,2,0.97925,0.04443,-0.22095,10.733,10.71,-13.84
2026-06-14 21:58:22.063,3357841519,174063,1,0.79614,0.18481,0.73657,7.641,1.229,1.489
2026-06-14 21:58:22.063,3357841519,174063,2,1.05127,0.06689,-0.18872,-7.626,0.183,-0.779
2026-06-14 21:58:22.321,3357841777,174321,1,0.73413,0.18335,0.79541,0.053,6.16,7.115
2026-06-14 21:58:22.321,3357841777,174321,2,1.08203,0.04175,-0.15991,0.527,5.031,12.779
2026-06-14 21:58:22.573,3357842029,174573,1,0.70581,0.05493,0.83618,-4.366,34.702,34.794
2026-06-14 21:58:22.573,3357842029,174573,2,0.97998,0.06396,-0.2583,70.863,-13.084,34.267
2026-06-14 21:58:23.773,3357843229,174773,1,0.69775,-0.28003,0.64819,8.427,-24.198,46.779
2026-06-14 21:58:23.773,3357843229,174773,2,0.82544,-0.20972,-0.27905,10.191,-28.42,-18.672
2026-06-14 21:58:23.001,3357842457,175001,1,1.21338,-0.07495,0.52783,-6.924,-1.817,21.763
2026-06-14 21:58:23.001,3357842457,175001,2,0.97925,-0.16284,-0.37842,43.947,0.313,37.771
2026-06-14 21:58:23.233,3357842689,175233,1,0.69263,0.02466,0.8645,68.893,19.573,74.496
2026-06-14 21:58:23.233,3357842689,175233,2,0.98682,-0.06812,-0.29028,76.931,37.443,-22.496
2026-06-14 21:58:23.538,3357842994,175538,1,0.76807,0.13184,0.74023,61.008,66.198,22.802
2026-06-14 21:58:23.538,3357842994,175538,2,0.9895,0.25513,-0.15552,27.031,65.679,-28.198
2026-06-14 21:58:23.738,3357843194,175738,1,0.35107,0.13525,0.94849,-77.908,37.176,-51.832
2026-06-14 21:58:23.738,3357843194,175738,1,0.35107,0.13525,0.94849,-77.908,37.176,-51.832
2026-06-14 21:58:23.738,3357843194,175738,2,0.99683,-0.0083,-0.19824,9.008,8.305,-5.061
2026-06-14 21:58:29.937,3357849393,180937,1,0.73315,-0.05542,0.72632,-24.687,12.344,-21.817
2026-06-14 21:58:29.937,3357849393,180937,2,0.90356,-0.06689,-0.3125,8.45,9.137,10.458
2026-06-14 21:58:29.137,3357848593,181137,1,0.90796,-0.16333,0.73877,-14.565,-34.405,-31.107
2026-06-14 21:58:29.137,3357848593,181137,2,0.92065,-0.13892,-0.25391,-77.947,-26.718,-5.16
2026-06-14 21:58:29.337,3357848793,181337,1,0.69141,0.13428,0.71606,11.206,4.962,-12.115
2026-06-14 21:58:29.337,3357848793,181337,2,0.97046,0.0918,-0.29834,1.626,12.42,-1.695
2026-06-14 21:58:32.934,3357852390,183934,1,0.75659,0.15796,0.73193,4.191,21.702,-0.198
2026-06-14 21:58:32.934,3357852390,183934,2,0.97827,0.12305,-0.28882,-3.992,17.237,-4.71
2026-06-14 21:58:35.821,3357855277,186821,1,0.83716,0.04736,0.66846,4.481,1.908,-0.336
2026-06-14 21:58:35.821,3357855277,186821,2,0.94409,0.03247,-0.38159,0.473,-0.107,-2.672
2026-06-14 21:58:35.021,3357854477,187021,1,0.83105,0.06982,0.67676,2.611,2.229,0.45
2026-06-14 21:58:35.021,3357854477,187021,2,1.07422,0.05884,-0.06812,103.542,10.58,-45.397
2026-06-14 21:58:38.935,3357858391,189935,1,0.77466,-0.13232,0.79907,68.038,11.145,45.511
2026-06-14 21:58:38.935,3357858391,189935,2,0.92285,0.31079,-0.27954,-14.092,-15.863,26.397
2026-06-14 21:58:41.969,3357861425,192969,1,0.71191,0.35474,0.70337,-26.58,-16.374,-1.756
2026-06-14 21:58:41.969,3357861425,192969,2,0.97192,-0.06909,-0.39771,2.534,-2.137,3.076
2026-06-14 21:58:44.011,3357863467,196011,1,0.82959,-0.05396,0.64917,-2.969,1.718,2.229
2026-06-14 21:58:44.011,3357863467,196011,2,0.92212,0.00928,-0.36523,0.206,-0.382,6.908
2026-06-14 21:58:44.211,3357863667,196211,1,0.8269,-0.00391,0.6792,1.779,-5.947,2.656
2026-06-14 21:58:44.211,3357863667,196211,2,0.95068,0.09277,-0.37427,-3.168,-4.252,-4.031
2026-06-14 21:58:44.691,3357864147,196691,1,0.86084,0.05347,0.65503,2.641,8.282,-0.397
2026-06-14 21:58:44.691,3357864147,196691,2,1.00928,0.04077,-0.33301,10.985,14.534,-5.534
2026-06-14 21:58:45.905,3357865361,196905,1,0.86157,-0.08276,0.62598,4.611,1.153,-8.847
2026-06-14 21:58:45.905,3357865361,196905,2,0.927,0.03345,-0.33643,-15.756,22.031,-22.87
2026-06-14 21:58:45.126,3357864582,197126,1,0.83325,-0.03369,0.78052,3.13,8.366,-23.374
2026-06-14 21:58:45.126,3357864582,197126,2,0.92896,0.03882,-0.34058,-0.008,-2.145,11.969
2026-06-14 21:58:45.510,3357864966,197510,1,0.81592,-0.04053,0.67432,-15.069,-4.031,-6.191
2026-06-14 21:58:45.510,3357864966,197510,2,0.92456,-0.06494,-0.38965,-4.733,-10.229,12.427
2026-06-14 21:58:45.710,3357865166,197710,1,0.83252,-0.01294,0.64185,-10.809,-8.443,-2.786
2026-06-14 21:58:45.710,3357865166,197710,2,0.89355,0.04883,-0.38208,-8.336,-0.809,6.595
2026-06-14 21:58:46.980,3357866436,197980,1,0.89355,0.08521,0.64551,42.038,27.107,8.183
2026-06-14 21:58:46.980,3357866436,197980,2,0.94189,0.10571,-0.31616,38.908,41.595,-47.641
2026-06-14 21:58:46.181,3357865637,198181,1,0.72607,0.33081,0.72607,65.947,26.954,34.992
2026-06-14 21:58:46.181,3357865637,198181,2,0.89819,0.31421,-0.27661,17.511,0.031,-1.435
2026-06-14 21:58:46.381,3357865837,198381,1,0.79736,0.34448,0.66309,9.878,0.214,23.87
2026-06-14 21:58:46.381,3357865837,198381,2,1.2041,0.05518,-0.38843,63.74,-14.672,25.107
2026-06-14 21:58:46.698,3357866154,198698,1,0.66553,-0.07422,0.78687,31.687,-7.58,90.435
2026-06-14 21:58:46.698,3357866154,198698,2,1.12939,-0.17676,-0.26709,49.313,-16.786,-13.84
2026-06-14 21:58:47.917,3357867373,198917,1,0.68945,-0.21045,0.74146,34.008,-4.0,42.16
2026-06-14 21:58:47.917,3357867373,198917,2,0.89355,-0.24561,-0.27588,50.458,-15.168,-1.137
2026-06-14 21:58:47.141,3357866597,199141,1,0.8418,-0.19629,0.65527,53.191,1.198,23.924
2026-06-14 21:58:47.141,3357866597,199141,2,0.94336,-0.14307,-0.4043,34.947,8.74,-30.489
2026-06-14 21:58:47.341,3357866797,199341,1,0.88477,-0.04077,0.54224,23.252,1.954,-13.298
2026-06-14 21:58:47.341,3357866797,199341,2,0.86816,-0.1167,-0.48096,16.29,46.107,-10.916
2026-06-14 21:58:47.541,3357866997,199541,1,0.9978,-0.07275,0.93604,24.779,-29.832,-15.672
2026-06-14 21:58:47.541,3357866997,199541,2,0.95703,-0.07202,-0.08179,22.244,-31.305,0.565
2026-06-14 21:58:48.791,3357868247,199791,1,0.68481,0.26025,0.58325,11.069,-18.542,8.008
2026-06-14 21:58:48.791,3357868247,199791,2,1.15356,0.12622,-0.11206,14.924,39.611,-6.466
2026-06-14 21:58:48.039,3357867495,200039,1,0.73218,0.29004,0.6853,-35.672,52.45,-29.137
2026-06-14 21:58:48.039,3357867495,200039,2,0.99609,0.09448,-0.17261,-44.389,67.939,35.397
2026-06-14 21:58:48.239,3357867695,200239,1,0.23145,0.13892,1.04077,0.511,11.763,-2.534
2026-06-14 21:58:48.239,3357867695,200239,2,0.86719,0.28687,-0.24316,-65.099,-52.824,-5.031
2026-06-14 21:58:48.439,3357867895,200439,1,1.08325,0.33691,0.61206,-55.069,-49.878,-46.412
2026-06-14 21:58:48.439,3357867895,200439,2,1.54614,-0.73193,-0.12988,-142.573,-82.0,79.038
2026-06-14 21:58:48.668,3357868124,200668,1,0.38354,-0.25073,1.11304,35.0,5.435,100.626
2026-06-14 21:58:48.668,3357868124,200668,2,1.02148,-0.17236,-0.104,-47.496,-30.435,27.176
2026-06-14 21:58:49.868,3357869324,200868,1,0.62378,0.00293,0.69287,-27.267,-65.511,-8.191
2026-06-14 21:58:49.868,3357869324,200868,2,1.05981,-0.22852,-0.0542,9.122,-38.641,19.206
2026-06-14 21:58:49.068,3357868524,201068,1,0.9165,-0.26123,0.59106,-4.145,29.954,-1.885
2026-06-14 21:58:49.068,3357868524,201068,2,0.98242,-0.09766,-0.34863,63.153,43.649,-44.069
2026-06-14 21:58:49.288,3357868744,201288,1,0.73267,-0.07544,0.67969,37.504,23.641,16.511
2026-06-14 21:58:49.288,3357868744,201288,2,0.76392,-0.20508,-0.39917,56.954,-2.954,-23.405
2026-06-14 21:58:49.488,3357868944,201488,1,1.04224,-0.34546,0.57056,85.618,-3.137,33.336
2026-06-14 21:58:49.488,3357868944,201488,2,0.87329,-0.19043,-0.46777,51.145,8.344,-97.771
2026-06-14 21:58:49.688,3357869144,201688,1,0.59106,0.29761,1.01074,-72.008,-19.733,-106.473
2026-06-14 21:58:49.688,3357869144,201688,2,0.71069,0.26685,-0.33203,-52.664,-57.763,11.13
2026-06-14 21:58:50.888,3357870344,201888,1,0.69775,0.23218,0.56104,-32.366,9.26,-0.489
2026-06-14 21:58:50.888,3357870344,201888,2,0.89648,0.1145,-0.30151,-59.603,6.985,39.481
2026-06-14 21:58:50.092,3357869548,202092,1,0.86841,-0.10034,0.71387,-14.672,11.55,-18.992
2026-06-14 21:58:50.092,3357869548,202092,2,0.98828,0.42969,-0.56299,23.282,0.42,-37.71
2026-06-14 21:58:50.314,3357869770,202314,1,0.60718,-0.12109,1.00854,-79.069,-2.366,-38.534
2026-06-14 21:58:50.314,3357869770,202314,2,1.00342,-0.19287,-0.21411,-38.29,-20.092,72.817
2026-06-14 21:58:50.534,3357869990,202534,1,0.75537,-0.07275,0.50781,-20.153,-13.718,-51.664
2026-06-14 21:58:50.534,3357869990,202534,2,1.04688,-0.11816,-0.44531,-6.595,-7.542,-1.931
2026-06-14 21:58:51.846,3357871302,202846,1,0.71655,0.26465,0.90308,42.534,45.13,23.298
2026-06-14 21:58:51.846,3357871302,202846,2,0.82422,0.19727,-0.25024,19.038,15.42,-49.443
2026-06-14 21:58:51.099,3357870555,203099,1,0.7749,0.19482,0.56152,4.939,19.985,20.824
2026-06-14 21:58:51.099,3357870555,203099,2,0.91846,0.24976,-0.42676,25.954,27.824,-4.0
2026-06-14 21:58:51.433,3357870889,203433,1,0.5542,-0.19116,0.70068,-34.809,-29.885,-16.099
2026-06-14 21:58:51.433,3357870889,203433,2,0.6665,-0.16382,-0.4248,-27.588,0.374,12.733
2026-06-14 21:58:52.142,3357871598,204142,1,0.67529,0.10815,0.59937,-84.267,14.611,-44.313
2026-06-14 21:58:52.142,3357871598,204142,2,1.05518,-0.12256,-0.46924,-74.962,-22.901,64.168
2026-06-14 21:58:52.572,3357872028,204572,1,0.65503,-0.39893,0.65601,-25.412,30.069,-6.595
2026-06-14 21:58:52.572,3357872028,204572,2,0.94824,-0.25488,-0.35132,-55.466,-9.107,43.42
2026-06-14 21:58:53.883,3357873339,204883,1,0.76294,-0.26221,0.59497,-42.237,2.298,-43.26
2026-06-14 21:58:53.883,3357873339,204883,2,0.88818,-0.18555,-0.45435,-57.344,1.015,1.71
2026-06-14 21:58:53.167,3357872623,205167,1,0.89453,-0.02588,0.67871,-13.534,6.481,-45.924
2026-06-14 21:58:53.167,3357872623,205167,2,0.89209,-0.18018,-0.30884,-66.397,-7.435,17.397
2026-06-14 21:58:53.367,3357872823,205367,1,0.84448,0.15747,0.77734,-38.076,16.687,-51.115
2026-06-14 21:58:53.367,3357872823,205367,2,0.9021,0.09912,-0.32544,-81.519,25.588,25.305
2026-06-14 21:58:53.567,3357873023,205567,1,0.7207,0.27344,0.72339,-67.008,8.244,-60.359
2026-06-14 21:58:53.567,3357873023,205567,2,0.8833,-0.05786,-0.2959,-122.359,-31.992,56.542
2026-06-14 21:58:54.895,3357874351,205895,1,0.90625,-0.18018,0.69385,-69.855,-2.221,-65.519
2026-06-14 21:58:54.895,3357874351,205895,2,0.96509,-0.20117,-0.37549,-46.809,16.58,31.427
2026-06-14 21:58:54.102,3357873558,206102,1,0.77002,-0.04517,0.71362,-24.534,7.252,-49.725
2026-06-14 21:58:54.102,3357873558,206102,2,1.00098,-0.12183,-0.31641,-40.015,8.58,8.191
2026-06-14 21:58:54.401,3357873857,206401,1,0.82397,0.15234,0.71606,28.962,-4.183,12.145
2026-06-14 21:58:54.401,3357873857,206401,2,0.94824,0.04321,-0.3125,16.214,-6.351,-18.702
2026-06-14 21:58:54.633,3357874089,206633,1,0.79224,0.16333,0.66553,26.916,8.847,12.672
2026-06-14 21:58:54.633,3357874089,206633,2,0.98779,0.11523,-0.2793,21.244,15.046,-23.008
2026-06-14 21:58:55.833,3357875289,206833,1,0.77734,0.30249,0.7085,36.908,23.611,5.137
2026-06-14 21:58:55.833,3357875289,206833,2,0.9397,0.30518,-0.23389,4.221,0.908,-1.817
2026-06-14 21:58:55.060,3357874516,207060,1,0.68506,0.43213,0.73145,-1.092,0.42,-5.046
2026-06-14 21:58:55.060,3357874516,207060,2,1.0188,0.16479,-0.28149,-15.603,-16.511,26.718
2026-06-14 21:58:55.397,3357874853,207397,1,0.75806,0.22168,0.68628,-12.969,-3.374,10.069
2026-06-14 21:58:55.397,3357874853,207397,2,0.95923,0.11084,-0.32666,-14.443,-4.076,4.534
2026-06-14 21:58:55.631,3357875087,207631,1,0.78174,0.19507,0.69653,-10.595,-6.687,-8.115
2026-06-14 21:58:55.631,3357875087,207631,2,0.98022,0.07104,-0.31567,-8.924,0.733,10.344
2026-06-14 21:58:56.879,3357876335,207879,1,0.80176,0.17383,0.70068,-11.954,-0.748,-3.931
2026-06-14 21:58:56.879,3357876335,207879,2,0.96973,0.04688,-0.31152,-7.069,-0.084,7.794
2026-06-14 21:58:56.371,3357875827,208371,1,0.78223,0.17725,0.70654,3.351,3.588,2.55
2026-06-14 21:58:56.371,3357875827,208371,2,0.97363,0.07007,-0.2959,7.489,4.992,-5.061
2026-06-14 21:58:56.723,3357876179,208723,1,0.77441,0.19458,0.71777,8.084,4.145,5.092
2026-06-14 21:58:56.723,3357876179,208723,2,0.97534,0.09229,-0.31519,9.901,2.565,-4.58
2026-06-14 21:58:57.923,3357877379,208923,1,0.78491,0.20703,0.71167,8.55,3.176,5.252
2026-06-14 21:58:57.923,3357877379,208923,2,0.96606,0.08813,-0.29663,6.634,3.656,-3.611
2026-06-14 21:58:57.165,3357876621,209165,1,0.77515,0.19238,0.70288,5.756,3.489,5.908
2026-06-14 21:58:57.165,3357876621,209165,2,0.9707,0.09155,-0.30151,6.015,2.534,-2.847
2026-06-14 21:58:57.483,3357876939,209483,1,0.7644,0.21655,0.71387,3.42,4.611,1.542
2026-06-14 21:58:57.483,3357876939,209483,2,0.96484,0.07983,-0.30029,1.603,3.115,-1.214
2026-06-14 21:58:57.694,3357877150,209694,1,0.77783,0.20532,0.7146,0.511,1.794,3.229
2026-06-14 21:58:57.694,3357877150,209694,2,0.98389,0.07202,-0.30298,4.0,0.832,2.008
2026-06-14 21:58:58.965,3357878421,209965,1,0.7312,0.20483,0.72729,0.229,-0.832,4.542
2026-06-14 21:58:58.965,3357878421,209965,2,0.98364,0.0686,-0.27783,-1.611,0.618,3.229
2026-06-14 21:58:58.214,3357877670,210214,1,0.79297,0.17065,0.70605,-2.985,-0.153,0.885
2026-06-14 21:58:58.214,3357877670,210214,2,0.96655,0.06885,-0.30176,-11.847,-3.527,3.527
2026-06-14 21:58:58.414,3357877870,210414,1,0.79883,0.15527,0.70825,-3.771,-0.099,-2.237
2026-06-14 21:58:58.414,3357877870,210414,2,0.97192,0.06714,-0.30322,-3.069,-0.74,2.191
2026-06-14 21:58:58.648,3357878104,210648,1,0.80151,0.1499,0.69751,-5.046,0.359,-0.634
2026-06-14 21:58:58.648,3357878104,210648,2,0.97339,0.06104,-0.32373,-6.916,-0.382,2.855
2026-06-14 21:58:59.866,3357879322,210865,1,0.79614,0.14966,0.7002,-1.656,1.527,-2.817
2026-06-14 21:58:59.866,3357879322,210865,2,0.96338,0.05518,-0.32104,-1.756,0.336,1.832
2026-06-14 21:58:59.124,3357878580,211124,1,0.79834,0.14697,0.69238,0.733,2.069,0.84
2026-06-14 21:58:59.124,3357878580,211124,2,0.97607,0.05786,-0.30933,8.947,1.939,-2.557
2026-06-14 21:58:59.428,3357878884,211428,1,0.79663,0.15527,0.69849,2.809,3.183,1.74
2026-06-14 21:58:59.428,3357878884,211428,2,0.96729,0.05176,-0.32422,4.26,2.153,-1.031
2026-06-14 21:58:59.677,3357879133,211677,1,0.80029,0.146,0.698,2.26,3.496,1.947
2026-06-14 21:58:59.677,3357879133,211677,2,0.98022,0.04907,-0.31763,-1.0,2.595,-1.672
2026-06-14 21:59:00.877,3357880333,211877,1,0.7981,0.15381,0.70068,1.351,3.061,1.649
2026-06-14 21:59:00.877,3357880333,211877,2,0.98022,0.04712,-0.2981,1.58,2.504,-0.969
2026-06-14 21:59:00.172,3357879628,212172,1,0.82983,0.17505,0.69775,1.389,3.427,-0.191
2026-06-14 21:59:00.172,3357879628,212172,2,0.98047,0.0542,-0.31396,3.374,1.893,-3.756
2026-06-14 21:59:00.405,3357879861,212405,1,0.79785,0.13989,0.70508,0.687,0.656,1.618
2026-06-14 21:59:00.405,3357879861,212405,2,0.99243,0.05762,-0.3125,6.122,2.573,-1.947
2026-06-14 21:59:01.798,3357881254,212798,1,0.8125,0.15381,0.68604,-9.847,-5.313,-4.603
2026-06-14 21:59:01.798,3357881254,212798,2,0.96509,0.04419,-0.35449,-13.168,-0.29,8.122
2026-06-14 21:59:01.115,3357880571,213115,1,0.80908,0.14111,0.67554,-8.153,7.0,-7.107
2026-06-14 21:59:01.115,3357880571,213115,2,0.9541,0.05029,-0.33911,-0.656,2.305,-1.824
2026-06-14 21:59:01.349,3357880805,213349,1,0.7981,0.15063,0.69385,6.901,-3.0,-6.046
2026-06-14 21:59:01.349,3357880805,213349,2,0.95752,0.05176,-0.33545,-10.794,-4.771,-1.336
2026-06-14 21:59:01.587,3357881043,213587,1,0.8396,0.14771,0.66357,7.084,3.427,-2.779
2026-06-14 21:59:01.587,3357881043,213587,2,0.97534,0.07373,-0.35791,8.779,6.718,-4.076
2026-06-14 21:59:02.868,3357882324,213868,1,0.80225,0.18628,0.6626,-3.099,4.191,-1.931
2026-06-14 21:59:02.868,3357882324,213868,2,0.96021,0.06958,-0.32935,4.489,1.015,-3.198
2026-06-14 21:59:02.088,3357881544,214087,1,0.81055,0.19873,0.66309,5.008,3.885,0.191
2026-06-14 21:59:02.088,3357881544,214087,2,0.98389,0.06616,-0.32471,5.382,7.038,-3.466
2026-06-14 21:59:02.287,3357881743,214287,1,0.78247,0.23169,0.69238,2.962,5.305,-3.229
2026-06-14 21:59:02.287,3357881743,214287,2,0.97607,0.07544,-0.33862,3.427,-0.908,-3.374
2026-06-14 21:59:02.589,3357882045,214589,1,0.80884,0.25244,0.67065,3.863,4.443,6.061
2026-06-14 21:59:02.589,3357882045,214589,2,0.96289,0.08594,-0.34595,-3.908,-0.405,5.145
2026-06-14 21:59:03.796,3357883252,214796,1,0.81177,0.21167,0.67261,1.656,2.656,2.382
2026-06-14 21:59:03.796,3357883252,214796,2,0.96533,0.08057,-0.34009,-0.664,-0.466,2.153
2026-06-14 21:59:03.167,3357882623,215167,1,0.77686,0.2041,0.69043,-8.053,-0.588,-3.16
2026-06-14 21:59:03.167,3357882623,215167,2,0.96802,0.05591,-0.33496,0.664,-1.634,-6.389
2026-06-14 21:59:03.509,3357882965,215509,1,0.82251,0.16675,0.66748,14.183,1.26,11.336
2026-06-14 21:59:03.509,3357882965,215509,2,0.99023,0.08447,-0.36084,7.382,14.405,-6.802
2026-06-14 21:59:03.709,3357883165,215709,1,0.81201,0.21704,0.66211,5.374,13.756,-0.733
2026-06-14 21:59:03.709,3357883165,215709,2,0.97192,0.11597,-0.31885,3.863,10.992,-0.344
2026-06-14 21:59:04.011,3357883467,216010,1,0.77026,0.23267,0.70728,-20.137,5.893,-10.099
2026-06-14 21:59:04.011,3357883467,216010,2,0.9812,0.08545,-0.29443,-18.183,5.901,13.069
2026-06-14 21:59:04.223,3357883679,216223,1,0.75854,0.19678,0.73193,-25.107,2.321,-16.366
2026-06-14 21:59:04.223,3357883679,216223,2,0.99512,0.03149,-0.26978,-26.809,3.588,17.031
2026-06-14 21:59:04.445,3357883901,216445,1,0.7522,0.1394,0.74463,-21.282,2.489,-19.466
2026-06-14 21:59:04.445,3357883901,216445,2,0.98779,-0.0061,-0.25293,-22.786,0.672,10.244
2026-06-14 21:59:04.645,3357884101,216645,1,0.7439,0.15039,0.75391,-4.679,1.244,-7.557
2026-06-14 21:59:04.645,3357884101,216645,2,0.99927,0.00903,-0.25513,1.244,0.832,-4.687
2026-06-14 21:59:05.902,3357885358,216902,1,0.74927,0.1814,0.74316,6.954,1.687,5.565
2026-06-14 21:59:05.902,3357885358,216902,2,0.99463,0.0354,-0.26074,5.344,0.969,-3.229
2026-06-14 21:59:05.120,3357884576,217120,1,0.75244,0.16528,0.74927,4.802,2.046,5.969
2026-06-14 21:59:05.120,3357884576,217120,2,0.99512,0.03491,-0.25977,2.641,-0.443,-1.198
2026-06-14 21:59:05.320,3357884776,217320,1,0.75439,0.16064,0.74731,4.153,0.115,4.985
2026-06-14 21:59:05.320,3357884776,217320,2,0.98364,0.00537,-0.31421,10.038,-6.87,-0.908
2026-06-14 21:59:05.674,3357885130,217674,1,0.82129,0.13721,0.69995,6.603,-0.496,9.16
2026-06-14 21:59:05.674,3357885130,217674,2,1.00806,-0.00317,-0.29443,7.855,3.191,-3.321
2026-06-14 21:59:06.874,3357886330,217874,1,0.65259,0.21167,0.79272,1.229,-4.061,12.893
2026-06-14 21:59:06.874,3357886330,217874,2,0.94067,0.19336,-0.24463,-25.634,-13.695,-14.756
2026-06-14 21:59:06.074,3357885530,218074,1,0.80664,0.29541,0.68555,-31.305,-28.977,-10.817
2026-06-14 21:59:06.074,3357885530,218074,2,1.14917,-0.13452,-0.47778,-50.275,-43.649,75.008
2026-06-14 21:59:06.274,3357885730,218274,1,0.86621,-0.03174,0.54443,-33.115,14.45,31.901
2026-06-14 21:59:06.274,3357885730,218274,2,0.93262,-0.17773,-0.39648,-13.237,3.542,45.435
2026-06-14 21:59:06.474,3357885930,218474,1,0.78467,-0.26929,0.6311,-20.221,9.802,7.542
2026-06-14 21:59:06.474,3357885930,218474,2,0.87061,-0.20483,-0.40625,9.55,1.061,-33.405
2026-06-14 21:59:07.983,3357887439,218983,1,0.74829,0.02173,0.70313,24.954,1.641,20.824
2026-06-14 21:59:07.983,3357887439,218983,2,1.03271,0.07178,-0.27612,50.313,2.794,-25.244
2026-06-14 21:59:07.183,3357886639,219183,1,0.78687,0.0249,0.68726,40.122,-0.099,15.58
2026-06-14 21:59:07.183,3357886639,219183,2,0.95142,0.01294,-0.33154,19.458,4.137,-13.817
2026-06-14 21:59:07.383,3357886839,219383,1,0.78394,0.01831,0.67456,10.802,2.695,0.16
2026-06-14 21:59:07.383,3357886839,219383,2,0.98315,-0.0437,-0.33252,2.092,3.176,9.992
2026-06-14 21:59:07.668,3357887124,219668,1,0.89185,0.09326,0.72485,2.176,37.397,13.931
2026-06-14 21:59:07.668,3357887124,219668,2,0.97778,0.05005,-0.23389,2.359,34.534,20.099
2026-06-14 21:59:08.900,3357888356,219900,1,0.72681,0.104,0.8457,-38.786,25.794,6.176
2026-06-14 21:59:08.900,3357888356,219900,2,0.94653,-0.09106,-0.08569,-60.656,1.214,59.176
2026-06-14 21:59:08.163,3357887619,220163,1,0.50513,-0.39893,0.89502,-1.519,17.42,11.733
2026-06-14 21:59:08.163,3357887619,220163,2,0.97949,-0.40161,-0.0979,25.87,-0.519,-10.115
2026-06-14 21:59:08.446,3357887902,220445,1,0.57617,-0.18213,0.91309,36.153,-10.74,25.145
2026-06-14 21:59:08.446,3357887902,220445,2,1.01953,-0.08594,-0.06909,22.771,-5.282,-26.878
2026-06-14 21:59:08.645,3357888101,220645,1,0.63354,-0.13306,0.87158,4.305,-0.443,-3.496
2026-06-14 21:59:08.645,3357888101,220645,2,1.01904,-0.13379,-0.10376,0.893,-5.641,-5.16
2026-06-14 21:59:09.873,3357889329,220873,1,0.59302,-0.14746,0.8811,6.786,1.137,0.84
2026-06-14 21:59:09.873,3357889329,220873,2,1.05005,-0.11475,-0.11255,-3.015,1.099,2.641
2026-06-14 21:59:09.088,3357888544,221088,1,0.58691,-0.14282,0.87695,-1.847,2.145,-2.298
2026-06-14 21:59:09.088,3357888544,221088,2,1.03271,-0.13818,-0.10718,-8.641,-0.405,2.985
2026-06-14 21:59:09.305,3357888761,221305,1,0.59399,-0.16406,0.87109,-1.794,0.008,-5.71
2026-06-14 21:59:09.305,3357888761,221305,2,1.03271,-0.13281,-0.12817,-4.275,-1.282,-2.786
2026-06-14 21:59:09.505,3357888961,221505,1,0.6145,-0.13721,0.87427,3.481,-1.107,-2.847
2026-06-14 21:59:09.505,3357888961,221505,2,1.03955,-0.11304,-0.13916,-0.771,-0.069,-4.015
2026-06-14 21:59:09.705,3357889161,221705,1,0.62158,-0.13354,0.86768,3.466,-0.198,-0.359
2026-06-14 21:59:09.705,3357889161,221705,2,1.01367,-0.11621,-0.146,-7.137,-1.198,-2.489
2026-06-14 21:59:10.957,3357890413,221956,1,0.71289,-0.16797,0.85303,10.908,-18.71,-31.763
2026-06-14 21:59:10.957,3357890413,221956,2,0.99854,-0.04224,-0.20825,-9.107,-7.565,-19.55
2026-06-14 21:59:10.186,3357889642,222186,1,0.75049,-0.08569,0.72729,-33.649,-14.183,-30.74
2026-06-14 21:59:10.186,3357889642,222186,2,0.95483,-0.12695,-0.28833,-44.084,-16.405,24.13
2026-06-14 21:59:10.386,3357889842,222386,1,0.86499,-0.19458,0.69336,-46.641,-8.366,-46.527
2026-06-14 21:59:10.386,3357889842,222386,2,0.91113,0.12988,-0.31299,-74.87,-26.183,38.802
2026-06-14 21:59:10.667,3357890123,222667,1,0.75098,0.08252,0.73291,-23.695,-0.656,-49.023
2026-06-14 21:59:10.667,3357890123,222667,2,0.90503,0.05103,-0.28076,-67.336,3.008,-1.076
2026-06-14 21:59:11.892,3357891348,222892,1,0.86084,0.42163,0.60083,-19.344,5.832,-22.214
2026-06-14 21:59:11.892,3357891348,222892,2,0.92285,0.1604,-0.35107,-44.664,2.618,27.168
2026-06-14 21:59:11.167,3357890623,223167,1,0.78857,0.24414,0.74951,-38.992,-23.916,11.916
2026-06-14 21:59:11.167,3357890623,223167,2,1.09326,0.13623,-0.05249,3.26,-13.099,-44.053
2026-06-14 21:59:11.477,3357890933,223477,1,0.82397,0.0293,0.5918,49.916,-26.71,36.427
2026-06-14 21:59:11.477,3357890933,223477,2,0.87354,-0.03369,-0.48975,111.809,10.412,-38.702
2026-06-14 21:59:11.718,3357891174,223718,1,0.90186,-0.08057,0.51782,86.588,21.733,82.0
2026-06-14 21:59:11.718,3357891174,223718,2,0.88672,-0.0061,-0.46729,85.107,30.649,-65.389
2026-06-14 21:59:12.918,3357892374,223918,1,0.97217,-0.01831,0.6189,105.947,-24.145,65.947
2026-06-14 21:59:12.918,3357892374,223918,2,0.97754,0.20166,-0.13989,141.664,42.023,-64.84
2026-06-14 21:59:12.171,3357891627,224171,1,0.69971,0.29907,0.69287,60.824,7.107,58.122
2026-06-14 21:59:12.171,3357891627,224171,2,1.04102,0.35596,-0.22754,60.351,15.954,-38.679
2026-06-14 21:59:12.408,3357891864,224408,1,0.87305,0.30078,0.69043,11.794,4.855,22.969
2026-06-14 21:59:12.408,3357891864,224408,2,0.97534,0.17383,-0.2854,4.053,16.557,29.122
2026-06-14 21:59:12.677,3357892133,224677,1,0.69995,-0.06177,0.71313,-58.031,-9.008,-44.153
2026-06-14 21:59:12.677,3357892133,224677,2,0.87622,-0.11597,-0.28906,-69.679,6.389,38.405
2026-06-14 21:59:13.990,3357893446,224990,1,0.76123,-0.24121,0.69458,-47.718,-1.817,-64.038
2026-06-14 21:59:13.990,3357893446,224990,2,0.91187,-0.25391,-0.36841,-54.466,-48.74,47.466
2026-06-14 21:59:13.323,3357892779,225323,1,0.85205,0.08447,0.76245,-17.198,-5.023,-15.55
2026-06-14 21:59:13.323,3357892779,225323,2,0.95288,0.09619,-0.25049,-63.939,12.191,-1.313
2026-06-14 21:59:14.813,3357894269,225813,1,0.84033,0.14844,0.69067,-20.695,8.145,18.557
2026-06-14 21:59:14.813,3357894269,225813,2,1.30273,-0.33179,-0.5293,-25.42,-45.931,43.863
2026-06-14 21:59:14.115,3357893571,226115,1,0.68628,-0.15771,0.77246,17.573,4.038,-1.107
2026-06-14 21:59:14.115,3357893571,226115,2,0.87915,-0.14722,-0.32666,23.947,-6.725,-18.702
2026-06-14 21:59:14.320,3357893776,226320,1,0.89233,-0.06006,0.55493,34.107,1.901,18.137
2026-06-14 21:59:14.320,3357893776,226320,2,0.94507,-0.09424,-0.45679,31.237,3.427,-31.466
2026-06-14 21:59:14.541,3357893997,226541,1,0.92822,-0.07959,0.78027,49.832,-28.374,9.206
2026-06-14 21:59:14.541,3357893997,226541,2,1.00659,0.24707,-0.08154,44.542,27.908,-23.412
2026-06-14 21:59:15.890,3357895346,226890,1,0.7688,0.19263,0.63989,11.0,8.725,10.053
2026-06-14 21:59:15.890,3357895346,226890,2,0.90869,0.16162,-0.34131,7.069,0.779,3.779
2026-06-14 21:59:15.147,3357894603,227147,1,0.82495,0.18652,0.70898,-4.908,17.603,22.412
2026-06-14 21:59:15.147,3357894603,227147,2,1.19312,0.09521,-0.44385,-13.084,-44.939,13.985
2026-06-14 21:59:15.347,3357894803,227347,1,0.61865,-0.12524,0.72388,-1.252,5.389,21.901
2026-06-14 21:59:15.347,3357894803,227347,2,1.13037,-0.21533,-0.27832,-70.679,-24.748,31.275
2026-06-14 21:59:15.547,3357895003,227547,1,0.74902,-0.10303,0.62695,1.489,-4.901,-12.748
2026-06-14 21:59:15.547,3357895003,227547,2,0.93408,-0.13623,-0.39697,6.527,10.13,-12.344
2026-06-14 21:59:16.832,3357896288,227832,1,0.81763,-0.07031,0.69678,19.496,11.244,-7.603
2026-06-14 21:59:16.832,3357896288,227832,2,1.09717,-0.05371,-0.29224,24.87,4.405,-25.573
2026-06-14 21:59:16.055,3357895511,228055,1,0.66553,0.302,0.74365,24.496,-6.573,4.763
2026-06-14 21:59:16.055,3357895511,228055,2,1.01465,0.15698,-0.13062,48.588,17.649,-11.634
2026-06-14 21:59:16.255,3357895711,228255,1,0.72437,0.25244,0.69751,2.099,0.908,6.832
2026-06-14 21:59:16.255,3357895711,228255,2,0.92627,0.12988,-0.21313,-3.756,4.916,-2.763
2026-06-14 21:59:16.599,3357896055,228599,1,0.76367,0.17505,0.71069,-0.748,9.053,33.763
2026-06-14 21:59:16.599,3357896055,228599,2,0.84912,0.12183,-0.10083,46.382,-3.328,-25.656
2026-06-14 21:59:17.876,3357897332,228876,1,0.68774,-0.125,0.75562,-1.939,-15.679,8.771
2026-06-14 21:59:17.876,3357897332,228876,2,1.05371,-0.09985,-0.34497,38.664,5.931,-22.527
2026-06-14 21:59:17.111,3357896567,229111,1,0.77148,-0.146,0.66211,48.008,4.13,38.527
2026-06-14 21:59:17.111,3357896567,229111,2,0.95874,-0.12573,-0.37231,51.328,2.206,-25.313
2026-06-14 21:59:17.311,3357896767,229311,1,0.85449,-0.12012,0.71191,71.0,11.824,54.947
2026-06-14 21:59:17.311,3357896767,229311,2,0.95581,0.05786,-0.29248,44.87,16.992,-39.962
2026-06-14 21:59:17.562,3357897018,229561,1,0.79297,0.01001,0.79004,56.42,7.122,17.023
2026-06-14 21:59:17.562,3357897018,229561,2,1.0354,0.1333,-0.17725,4.977,10.885,-5.634
2026-06-14 21:59:18.805,3357898261,229804,1,0.70605,0.16211,0.79126,5.656,-0.611,-7.023
2026-06-14 21:59:18.805,3357898261,229804,2,0.99951,0.0896,-0.2312,-8.802,-6.0,3.733
2026-06-14 21:59:18.016,3357897472,230016,1,0.75757,0.14233,0.7395,-17.58,-9.534,1.748
2026-06-14 21:59:18.016,3357897472,230016,2,1.01123,0.08789,-0.27808,-17.687,-12.588,14.878
2026-06-14 21:59:18.216,3357897672,230216,1,0.78784,0.04883,0.7417,-12.87,-4.313,-1.931
2026-06-14 21:59:18.216,3357897672,230216,2,0.99634,-0.01367,-0.33081,-6.649,-4.824,17.023
2026-06-14 21:59:18.492,3357897948,230491,1,0.80688,-0.06836,0.71265,-4.084,-2.702,-1.107
2026-06-14 21:59:18.492,3357897948,230491,2,1.01147,-0.07861,-0.30713,-3.374,4.443,2.916
2026-06-14 21:59:18.712,3357898168,230712,1,0.81299,-0.02075,0.72949,-4.122,5.527,-8.435
2026-06-14 21:59:18.712,3357898168,230712,2,0.98682,-0.02905,-0.33057,-15.244,2.443,1.321
2026-06-14 21:59:19.011,3357898467,231011,1,0.80249,-0.00464,0.71558,-5.542,5.672,-9.115
2026-06-14 21:59:19.011,3357898467,231011,2,0.98169,0.01611,-0.30615,-9.718,4.221,-0.229
2026-06-14 21:59:19.289,3357898745,231289,1,0.80054,0.03369,0.71484,0.137,4.74,4.87
2026-06-14 21:59:19.289,3357898745,231289,2,0.98926,0.00537,-0.26099,10.443,8.137,-1.267
2026-06-14 21:59:19.560,3357899016,231560,1,0.74731,-0.01294,0.76489,3.489,1.42,10.069
2026-06-14 21:59:19.560,3357899016,231560,2,0.9834,0.02637,-0.27002,8.198,-1.954,-6.229
2026-06-14 21:59:20.767,3357900223,231767,1,0.79126,0.00171,0.71045,5.824,-1.366,2.626
2026-06-14 21:59:20.767,3357900223,231767,2,0.99829,0.01978,-0.27686,2.916,2.55,-4.702
2026-06-14 21:59:20.967,3357900423,231967,1,0.77002,0.04272,0.72949,3.458,-1.076,-4.26
2026-06-14 21:59:20.967,3357900423,231967,2,1.00415,0.01001,-0.30029,-12.87,-3.359,6.42
2026-06-14 21:59:20.176,3357899632,232176,1,0.79956,-0.01563,0.71411,-4.817,2.969,-7.817
2026-06-14 21:59:20.176,3357899632,232176,2,1.00684,-0.01245,-0.28394,-9.031,4.206,4.336
2026-06-14 21:59:20.464,3357899920,232464,1,0.77051,0.01538,0.75928,-1.282,9.542,-0.901
2026-06-14 21:59:20.464,3357899920,232464,2,0.98096,0.00757,-0.26416,-4.443,0.16,6.809
2026-06-14 21:59:20.741,3357900197,232741,1,0.74487,0.03442,0.74854,2.763,0.603,3.977
2026-06-14 21:59:20.741,3357900197,232741,2,1.00049,0.01392,-0.26245,10.221,0.466,-5.763
2026-06-14 21:59:21.941,3357901397,232941,1,0.80151,0.02393,0.72681,3.901,1.405,2.924
2026-06-14 21:59:21.941,3357901397,232941,2,0.98804,0.02539,-0.26245,-7.481,-3.626,4.092
2026-06-14 21:59:21.229,3357900685,233229,1,0.75537,0.06348,0.75439,-12.412,-5.611,-1.748
2026-06-14 21:59:21.229,3357900685,233229,2,1.01196,-0.02808,-0.27759,5.351,6.405,-4.031
2026-06-14 21:59:21.430,3357900886,233430,1,0.77002,0.01953,0.74341,2.878,6.366,-2.321
2026-06-14 21:59:21.430,3357900886,233430,2,1.00024,0.01465,-0.25098,-17.679,-3.023,4.275
2026-06-14 21:59:21.677,3357901133,233677,1,0.78491,0.02612,0.73193,3.443,0.863,0.954
2026-06-14 21:59:21.677,3357901133,233677,2,0.99854,0.03809,-0.26758,3.076,3.321,-0.74
2026-06-14 21:59:22.924,3357902380,233924,1,0.76758,0.04785,0.73779,0.473,6.626,0.84
2026-06-14 21:59:22.924,3357902380,233924,2,0.97949,0.03418,-0.23535,12.466,9.466,2.244
2026-06-14 21:59:22.124,3357901580,234124,1,0.72559,0.02148,0.76025,0.244,3.496,0.618
2026-06-14 21:59:22.124,3357901580,234124,2,1.00098,0.00073,-0.26074,-2.023,1.244,-3.237
2026-06-14 21:59:22.324,3357901780,234324,1,0.75928,0.02368,0.74561,3.863,-1.115,-0.809
2026-06-14 21:59:22.324,3357901780,234324,2,1.00391,0.02539,-0.26123,-0.58,-2.176,-3.687
2026-06-14 21:59:22.597,3357902053,234596,1,0.76123,0.0647,0.74634,-1.595,-0.481,-3.069
2026-06-14 21:59:22.597,3357902053,234596,2,0.99414,0.01831,-0.27734,-2.473,0.023,-0.55
2026-06-14 21:59:23.869,3357903325,234868,1,0.79028,0.07495,0.71997,-7.824,-5.771,-8.214
2026-06-14 21:59:23.869,3357903325,234868,2,1.00195,0.01123,-0.29126,-1.687,3.985,-0.588
2026-06-14 21:59:23.077,3357902533,235077,1,0.78442,0.02026,0.74683,1.809,8.382,2.397
2026-06-14 21:59:23.077,3357902533,235077,2,1.00342,0.00879,-0.24927,17.168,14.466,-5.031
2026-06-14 21:59:23.277,3357902733,235277,1,0.74585,0.07544,0.77686,7.092,6.794,10.977
2026-06-14 21:59:23.277,3357902733,235277,2,1.0105,0.03149,-0.24121,5.786,3.198,-1.305
2026-06-14 21:59:23.584,3357903040,235584,1,0.74512,0.052,0.79834,-4.573,1.031,6.695
2026-06-14 21:59:23.584,3357903040,235584,2,0.99683,0.01025,-0.24731,-2.74,4.466,0.977
2026-06-14 21:59:24.812,3357904268,235812,1,0.75439,0.02344,0.75244,-0.221,5.374,-4.237
2026-06-14 21:59:24.812,3357904268,235812,2,1.00732,0.01758,-0.22485,2.565,3.252,5.115
2026-06-14 21:59:24.089,3357903545,236089,1,0.73511,0.01758,0.78394,,-3.26,1.634
2026-06-14 21:59:24.089,3357903545,236089,2,0.9917,0.01465,-0.25244,-0.206,-5.061,-2.634
2026-06-14 21:59:24.312,3357903768,236312,1,0.7522,0.04541,0.75586,2.191,-5.061,4.496
2026-06-14 21:59:24.312,3357903768,236312,2,0.99927,0.02661,-0.26367,-7.611,-9.573,3.817
2026-06-14 21:59:24.512,3357903968,236512,1,0.79297,0.00391,0.72119,1.305,1.298,-1.198
2026-06-14 21:59:24.512,3357903968,236512,2,0.99414,0.01099,-0.28296,-4.214,8.267,2.053
2026-06-14 21:59:25.816,3357905272,236816,1,0.75659,0.03345,0.75708,-3.695,7.031,-6.863
2026-06-14 21:59:25.816,3357905272,236816,2,0.9812,0.00928,-0.25635,-5.443,1.305,1.084
2026-06-14 21:59:25.016,3357904472,237016,1,0.74512,0.04858,0.77612,-8.595,-2.29,2.237
2026-06-14 21:59:25.016,3357904472,237016,2,0.9541,0.04688,-0.22705,-13.618,-13.481,4.916
2026-06-14 21:59:25.245,3357904701,237244,1,0.76953,0.0564,0.75293,15.336,1.725,6.29
2026-06-14 21:59:25.245,3357904701,237244,2,1.00317,0.04028,-0.25049,8.855,-2.481,-2.137
2026-06-14 21:59:25.444,3357904900,237444,1,0.80273,0.01099,0.71533,1.0,2.015,2.679
2026-06-14 21:59:25.444,3357904900,237444,2,0.99316,0.03394,-0.27515,-5.855,9.252,0.672
2026-06-14 21:59:26.887,3357906343,237887,1,0.80493,0.05591,0.72632,-14.252,-1.947,-5.481
2026-06-14 21:59:26.887,3357906343,237887,2,0.97388,0.01953,-0.29419,-15.687,-4.168,12.366
2026-06-14 21:59:26.204,3357905660,238204,1,0.82178,-0.07056,0.68457,-17.527,0.885,-11.718
2026-06-14 21:59:26.204,3357905660,238204,2,0.97974,-0.05298,-0.31396,-20.42,1.374,9.328
2026-06-14 21:59:26.475,3357905931,238475,1,0.77148,-0.09595,0.77319,10.321,7.427,-3.359
2026-06-14 21:59:26.475,3357905931,238475,2,0.95361,-0.07422,-0.34717,11.137,-1.954,-13.061
2026-06-14 21:59:26.675,3357906131,238675,1,0.83423,-0.01392,0.68872,-2.382,-14.153,-7.435
2026-06-14 21:59:26.675,3357906131,238675,2,0.98315,-0.04712,-0.34814,-14.45,-6.313,5.954
2026-06-14 21:59:27.875,3357907331,238875,1,0.80249,0.00659,0.70996,-14.237,10.954,-9.664
2026-06-14 21:59:27.875,3357907331,238875,2,0.94141,-0.00635,-0.36255,-7.176,-0.847,4.069
2026-06-14 21:59:27.193,3357906649,239193,1,0.79834,0.06372,0.6604,-4.664,11.466,-13.519
2026-06-14 21:59:27.193,3357906649,239193,2,1.00049,0.08398,-0.32446,-3.237,11.489,-6.641
2026-06-14 21:59:27.411,3357906867,239411,1,0.80518,0.12329,0.68384,-6.733,6.809,-17.863
2026-06-14 21:59:27.411,3357906867,239411,2,0.9519,0.09399,-0.31616,-12.794,6.786,2.397
2026-06-14 21:59:27.697,3357907153,239697,1,0.8147,0.14258,0.68433,-22.328,-1.794,-12.412
2026-06-14 21:59:27.697,3357907153,239697,2,0.95972,0.02686,-0.3269,-23.137,-7.473,15.618
2026-06-14 21:59:28.959,3357908415,239959,1,0.84619,0.05859,0.65967,-27.336,-2.87,0.695
2026-06-14 21:59:28.959,3357908415,239959,2,0.97607,-0.03516,-0.32861,-8.168,-5.321,18.786
2026-06-14 21:59:28.159,3357907615,240159,1,0.82959,-0.03638,0.66577,-18.374,2.885,2.145
2026-06-14 21:59:28.159,3357907615,240159,2,0.93091,-0.15845,-0.41455,-8.176,19.908,19.656
2026-06-14 21:59:28.528,3357907984,240528,1,0.7356,-0.27856,0.61304,-4.771,-10.382,-0.702
2026-06-14 21:59:28.528,3357907984,240528,2,0.92017,-0.20752,-0.38184,-1.687,-0.122,-3.725
2026-06-14 21:59:29.748,3357909204,240748,1,0.79443,-0.14258,0.64111,0.985,-19.534,-1.702
2026-06-14 21:59:29.748,3357909204,240748,2,0.96973,0.00757,-0.3584,28.45,-2.595,-15.511
2026-06-14 21:59:29.948,3357909404,240948,1,0.91479,0.0105,0.73633,7.389,15.458,-1.42
2026-06-14 21:59:29.948,3357909404,240948,2,0.90479,-0.11108,-0.38965,-18.275,-3.779,17.29
2026-06-14 21:59:29.467,3357908923,241466,1,0.85059,-0.03833,0.65063,-4.496,-4.214,0.198
2026-06-14 21:59:29.467,3357908923,241466,2,0.90796,-0.2644,-0.37915,6.061,4.855,4.809
2026-06-14 21:59:30.744,3357910200,241744,1,0.82324,-0.03979,0.64038,-1.137,-1.29,-4.389
2026-06-14 21:59:30.744,3357910200,241744,2,0.87451,-0.33276,-0.42847,-1.847,-7.87,5.038
2026-06-14 21:59:30.102,3357909558,242102,1,0.85474,-0.01318,0.625,-3.748,3.832,-3.206
2026-06-14 21:59:30.102,3357909558,242102,2,0.87061,-0.33862,-0.42847,-5.427,3.466,2.305
2026-06-14 21:59:30.390,3357909846,242389,1,0.85767,-0.02368,0.64404,-2.901,5.176,-0.26
2026-06-14 21:59:30.390,3357909846,242389,2,0.90137,-0.30273,-0.40015,-16.718,-0.542,-13.878
2026-06-14 21:59:30.708,3357910164,242708,1,0.84961,-0.00586,0.65137,-2.099,-0.641,-0.252
2026-06-14 21:59:30.708,3357910164,242708,2,0.89697,-0.24365,-0.41138,0.176,0.924,3.282
2026-06-14 21:59:31.976,3357911432,242976,1,0.86548,-0.00903,0.63159,-1.832,4.313,0.588
2026-06-14 21:59:31.976,3357911432,242976,2,0.88452,-0.27515,-0.42236,3.344,6.336,-0.58
2026-06-14 21:59:31.236,3357910692,243236,1,0.83032,-0.01685,0.64771,4.443,7.336,2.771
2026-06-14 21:59:31.236,3357910692,243236,2,0.88232,-0.27148,-0.42114,9.847,4.45,-4.412
2026-06-14 21:59:31.436,3357910892,243436,1,0.8313,0.00342,0.66895,3.092,3.427,1.977
2026-06-14 21:59:31.436,3357910892,243436,2,0.89893,-0.27344,-0.38794,6.618,3.313,-1.634
2026-06-14 21:59:31.638,3357911094,243638,1,0.83179,-0.03149,0.68921,5.924,7.763,1.557
2026-06-14 21:59:31.638,3357911094,243638,2,0.90942,-0.28418,-0.3772,3.069,2.641,-2.008
2026-06-14 21:59:32.871,3357912327,243871,1,0.82813,-0.00903,0.69067,-0.214,3.237,0.534
2026-06-14 21:59:32.871,3357912327,243871,2,0.90625,-0.27612,-0.37939,-3.824,-1.176,0.298
2026-06-14 21:59:32.071,3357911527,244071,1,0.82251,-0.00977,0.68091,-0.183,-2.237,0.221
2026-06-14 21:59:32.071,3357911527,244071,2,0.90796,-0.26929,-0.3916,-0.168,-0.695,-1.855
2026-06-14 21:59:32.305,3357911761,244305,1,0.84106,-0.00708,0.65015,3.573,0.252,0.939
2026-06-14 21:59:32.305,3357911761,244305,2,0.90723,-0.28076,-0.40405,3.557,1.229,-0.664
2026-06-14 21:59:32.518,3357911974,244518,1,0.83765,-0.00293,0.66187,5.817,4.588,1.565
2026-06-14 21:59:32.518,3357911974,244518,2,0.88989,-0.26367,-0.41113,5.046,3.672,-1.656
2026-06-14 21:59:33.803,3357913259,244803,1,0.83838,0.00317,0.65796,0.947,1.412,-0.427
2026-06-14 21:59:33.803,3357913259,244803,2,0.89893,-0.28271,-0.40674,0.672,-0.542,1.855
2026-06-14 21:59:33.003,3357912459,245003,1,0.83789,0.00049,0.66797,2.611,3.107,0.695
2026-06-14 21:59:33.003,3357912459,245003,2,0.89722,-0.27759,-0.39893,5.969,4.702,-3.885
2026-06-14 21:59:33.203,3357912659,245203,1,0.84204,0.03394,0.65991,4.298,6.893,5.313
2026-06-14 21:59:33.203,3357912659,245203,2,0.90918,-0.27588,-0.36523,0.031,1.908,1.618
2026-06-14 21:59:33.534,3357912990,245534,1,0.82764,0.00879,0.70654,-6.053,4.008,-1.679
2026-06-14 21:59:33.534,3357912990,245534,2,0.90747,-0.29834,-0.38086,0.069,1.221,0.817
2026-06-14 21:59:33.742,3357913198,245742,1,0.82544,-0.0083,0.67798,0.58,1.038,1.244
2026-06-14 21:59:33.742,3357913198,245742,2,0.90479,-0.2998,-0.37354,0.458,-0.137,-1.069
2026-06-14 21:59:34.991,3357914447,245991,1,0.82642,-0.01587,0.68506,5.244,0.679,2.626
2026-06-14 21:59:34.991,3357914447,245991,2,0.89575,-0.27881,-0.39697,-0.71,-2.038,-4.763
2026-06-14 21:59:34.195,3357913651,246194,1,0.83252,0.00244,0.66504,1.771,-1.595,1.626
2026-06-14 21:59:34.195,3357913651,246194,2,0.9021,-0.28101,-0.40137,0.733,0.725,-0.191
2026-06-14 21:59:34.589,3357914045,246589,1,0.84766,0.0061,0.6582,-1.137,3.992,-2.435
2026-06-14 21:59:34.589,3357914045,246589,2,0.89795,-0.27417,-0.40259,-0.069,4.053,1.26
2026-06-14 21:59:35.789,3357915245,246789,1,0.8418,0.0061,0.6626,-0.588,2.229,0.023
2026-06-14 21:59:35.789,3357915245,246789,2,0.89648,-0.27637,-0.40039,2.382,4.099,-0.015
2026-06-14 21:59:35.077,3357914533,247077,1,0.83496,0.00854,0.6665,-0.573,2.389,-0.443
2026-06-14 21:59:35.077,3357914533,247077,2,0.90552,-0.27124,-0.39136,-0.748,2.878,0.664
2026-06-14 21:59:35.277,3357914733,247277,1,0.83911,0.00732,0.66968,-0.969,2.809,0.153
2026-06-14 21:59:35.277,3357914733,247277,2,0.90454,-0.28979,-0.39722,7.634,3.29,-2.397
2026-06-14 21:59:35.597,3357915053,247597,1,0.82495,-0.00562,0.66431,4.29,3.634,2.794
2026-06-14 21:59:35.597,3357915053,247597,2,0.90723,-0.2959,-0.38501,5.649,2.389,-2.702
2026-06-14 21:59:36.825,3357916281,247825,1,0.82764,-0.00684,0.68726,3.168,2.885,4.221
2026-06-14 21:59:36.825,3357916281,247825,2,0.90308,-0.28589,-0.375,3.611,1.389,-2.443
2026-06-14 21:59:36.121,3357915577,248121,1,0.83057,-0.00757,0.67798,2.16,2.13,1.45
2026-06-14 21:59:36.121,3357915577,248121,2,0.90015,-0.27954,-0.36719,0.046,2.71,-2.176
2026-06-14 21:59:36.423,3357915879,248422,1,0.8418,0.01001,0.67993,3.237,3.489,2.771
2026-06-14 21:59:36.423,3357915879,248422,2,0.90186,-0.28369,-0.3772,3.817,4.763,-2.542
2026-06-14 21:59:36.681,3357916137,248680,1,0.823,-0.00098,0.69604,-0.267,5.084,1.458
2026-06-14 21:59:36.681,3357916137,248680,2,0.91846,-0.27075,-0.35083,-2.359,4.16,-0.847
2026-06-14 21:59:37.948,3357917404,248948,1,0.81372,0.00146,0.6936,-0.863,1.496,-1.55
2026-06-14 21:59:37.948,3357917404,248948,2,0.92871,-0.27026,-0.35791,-0.679,0.023,0.626
2026-06-14 21:59:37.148,3357916604,249148,1,0.81616,-0.00122,0.69556,2.664,2.656,1.748
2026-06-14 21:59:37.148,3357916604,249148,2,0.92993,-0.28125,-0.35352,4.534,1.313,-2.008
2026-06-14 21:59:37.409,3357916865,249408,1,0.82446,0.02515,0.68335,3.45,2.84,0.718
2026-06-14 21:59:37.409,3357916865,249408,2,0.9231,-0.27271,-0.35718,5.511,3.878,-1.695
2026-06-14 21:59:37.693,3357917149,249693,1,0.8208,-0.00171,0.68018,1.618,1.198,1.237
2026-06-14 21:59:37.693,3357917149,249693,2,0.91602,-0.28857,-0.35547,0.443,1.191,1.053
2026-06-14 21:59:38.132,3357917588,250132,1,0.82202,-0.00537,0.68481,-0.42,1.16,-0.313
2026-06-14 21:59:38.132,3357917588,250132,2,0.91602,-0.29077,-0.36499,-0.519,1.267,0.641
2026-06-14 21:59:38.332,3357917788,250332,1,0.81934,-0.00293,0.69727,0.389,2.443,-0.511
2026-06-14 21:59:38.332,3357917788,250332,2,0.91626,-0.29272,-0.3584,-1.611,0.221,-0.374
2026-06-14 21:59:38.532,3357917988,250532,1,0.81274,-0.00122,0.69434,2.099,2.214,-0.366
2026-06-14 21:59:38.532,3357917988,250532,2,0.91528,-0.29419,-0.36353,-1.649,2.244,-2.16
2026-06-14 21:59:39.768,3357919224,250768,1,0.82495,0.00562,0.67773,0.733,1.168,0.473
2026-06-14 21:59:39.768,3357919224,250768,2,0.91211,-0.28906,-0.36011,-2.0,0.191,-0.267
2026-06-14 21:59:39.020,3357918476,251020,1,0.81934,0.00635,0.69067,1.099,0.901,0.84
2026-06-14 21:59:39.020,3357918476,251020,2,0.91772,-0.27344,-0.35815,0.305,0.885,-1.099
2026-06-14 21:59:39.220,3357918676,251220,1,0.81909,0.01001,0.68188,2.191,2.038,0.466
2026-06-14 21:59:39.220,3357918676,251220,2,0.91382,-0.27002,-0.36694,-0.924,0.954,-0.229
2026-06-14 21:59:39.458,3357918914,251458,1,0.81421,0.00073,0.69043,0.802,2.405,0.542
2026-06-14 21:59:39.458,3357918914,251458,2,0.91797,-0.2771,-0.38062,3.573,2.924,0.366
2026-06-14 21:59:39.718,3357919174,251718,1,0.83374,-0.00024,0.66821,1.679,3.458,1.374
2026-06-14 21:59:39.718,3357919174,251718,2,0.91943,-0.27515,-0.34766,11.901,11.45,-1.809
2026-06-14 21:59:40.987,3357920443,251987,1,0.80444,0.00464,0.69434,-0.511,2.878,1.45
2026-06-14 21:59:40.987,3357920443,251987,2,0.92578,-0.29346,-0.33105,2.321,2.115,-0.718
2026-06-14 21:59:40.263,3357919719,252263,1,0.81372,0.00635,0.7041,0.328,1.924,0.626
2026-06-14 21:59:40.263,3357919719,252263,2,0.92993,-0.28735,-0.33984,-0.878,-0.618,0.725
2026-06-14 21:59:40.463,3357919919,252463,1,0.81738,,0.70166,0.214,1.679,0.053
2026-06-14 21:59:40.463,3357919919,252463,2,0.92627,-0.28687,-0.35449,-2.336,-0.198,-0.092
2026-06-14 21:59:40.673,3357920129,252673,1,0.81421,0.00537,0.68799,0.481,1.038,-0.061
2026-06-14 21:59:40.673,3357920129,252673,2,0.91553,-0.28198,-0.34863,-2.16,0.771,-0.084
2026-06-14 21:59:41.886,3357921342,252886,1,0.81836,0.00415,0.69336,1.908,1.366,0.977
2026-06-14 21:59:41.886,3357921342,252886,2,0.91992,-0.28955,-0.35718,0.718,1.084,-0.863
2026-06-14 21:59:41.187,3357920643,253186,1,0.81665,0.01221,0.69019,0.16,1.786,-0.122
2026-06-14 21:59:41.187,3357920643,253186,2,0.91626,-0.27954,-0.35718,-2.328,1.267,0.221
2026-06-14 21:59:41.443,3357920899,253442,1,0.80884,0.01196,0.70117,0.412,2.13,-0.527
2026-06-14 21:59:41.443,3357920899,253442,2,0.9209,-0.28979,-0.35449,-0.878,0.855,-0.305
2026-06-14 21:59:41.642,3357921098,253642,1,0.82275,0.01392,0.68823,0.695,1.832,-0.122
2026-06-14 21:59:41.642,3357921098,253642,2,0.91626,-0.28271,-0.3728,1.756,2.206,-0.901
2026-06-14 21:59:42.930,3357922386,253930,1,0.81909,0.00732,0.68872,0.84,4.061,1.649
2026-06-14 21:59:42.930,3357922386,253930,2,0.92212,-0.28687,-0.35449,3.863,3.412,-1.328
2026-06-14 21:59:42.130,3357921586,254130,1,0.82275,0.0083,0.69849,0.45,3.824,0.916
2026-06-14 21:59:42.130,3357921586,254130,2,0.92139,-0.28906,-0.34839,0.626,3.405,-0.137
2026-06-14 21:59:42.408,3357921864,254408,1,0.82959,-0.0061,0.7085,-2.267,2.267,0.458
2026-06-14 21:59:42.408,3357921864,254408,2,0.94507,-0.26758,-0.31714,-2.443,-4.153,0.863
2026-06-14 21:59:42.702,3357922158,254702,1,0.8252,0.00024,0.68994,1.107,-1.069,-0.557
2026-06-14 21:59:42.702,3357922158,254702,2,0.9209,-0.27295,-0.36182,-5.901,1.351,0.313
2026-06-14 21:59:43.011,3357922467,255010,1,0.82446,-0.01318,0.69604,1.275,4.214,1.725
2026-06-14 21:59:43.011,3357922467,255010,2,0.9165,-0.24707,-0.35474,2.344,-2.122,-7.992
2026-06-14T21:59:42.832650,,,,,,,,,
2026-06-14 21:59:43.386,3357922842,255386,1,0.81958,0.00562,0.69897,5.878,4.595,2.061
2026-06-14 21:59:43.386,3357922842,255386,2,0.91089,-0.29956,-0.35278,-14.641,2.985,2.969
2026-06-14 21:59:43.654,3357923110,255654,1,0.81494,-0.00024,0.6814,-11.275,-1.366,-10.664
2026-06-14 21:59:43.654,3357923110,255654,2,0.89966,-0.28369,-0.36646,-19.435,-0.519,11.031
2026-06-14 21:59:44.901,3357924357,255901,1,0.83228,0.00537,0.68433,-6.519,0.061,-6.053
2026-06-14 21:59:44.901,3357924357,255901,2,0.9104,-0.30444,-0.39478,0.687,-3.573,4.802
2026-06-14 21:59:44.149,3357923605,256149,1,0.83057,-0.00903,0.67114,7.145,4.84,6.42
2026-06-14 21:59:44.149,3357923605,256149,2,0.91602,-0.29224,-0.38232,5.221,-2.298,-1.122
2026-06-14 21:59:44.540,3357923996,256540,1,0.82837,0.00146,0.68213,4.29,2.168,5.481
2026-06-14 21:59:44.540,3357923996,256540,2,0.90503,-0.3186,-0.38135,4.458,0.45,-0.58
2026-06-14 21:59:45.900,3357925356,256900,1,0.83057,-0.00854,0.67456,2.802,4.405,1.107
2026-06-14 21:59:45.900,3357925356,256900,2,0.90942,-0.30493,-0.36963,1.573,4.481,-1.366
2026-06-14 21:59:45.147,3357924603,257147,1,0.81421,0.00342,0.69116,-1.252,5.664,-2.366
2026-06-14 21:59:45.147,3357924603,257147,2,0.90405,-0.28662,-0.354,-4.962,7.969,-0.977
2026-06-14 21:59:46.837,3357926293,257837,1,0.80811,-0.0249,0.69653,8.26,2.076,1.29
2026-06-14 21:59:46.837,3357926293,257837,2,0.92944,-0.28564,-0.34033,5.145,-7.305,-0.962
2026-06-14 21:59:46.343,3357925799,258342,1,0.83594,0.00928,0.68457,3.214,4.214,-1.046
2026-06-14 21:59:46.343,3357925799,258342,2,0.91479,-0.28564,-0.354,5.145,9.748,-3.252
2026-06-14 21:59:47.132,3357926588,259132,1,0.8064,-0.00635,0.70874,5.664,1.145,2.687
2026-06-14 21:59:47.132,3357926588,259132,2,0.91699,-0.29565,-0.34448,-0.099,-0.511,-0.931
2026-06-14 21:59:48.907,3357928363,259907,1,0.81543,0.01489,0.69897,0.702,1.672,1.45
2026-06-14 21:59:48.907,3357928363,259907,2,0.91724,-0.29761,-0.37354,-1.802,2.046,-0.076
2026-06-14 21:59:48.305,3357927761,260305,1,0.80981,0.03101,0.69678,1.939,-0.214,0.092
2026-06-14 21:59:48.305,3357927761,260305,2,0.91406,-0.28784,-0.35547,3.305,1.992,0.626
2026-06-14 21:59:49.856,3357929312,260856,1,0.81641,0.01758,0.69092,0.023,-0.802,-0.611
2026-06-14 21:59:49.856,3357929312,260856,2,0.89502,-0.29761,-0.38135,-3.42,0.641,1.947
2026-06-14 21:59:49.354,3357928810,261354,1,0.81885,,0.65283,-7.832,-1.137,-5.87
2026-06-14 21:59:49.354,3357928810,261354,2,0.89697,-0.28442,-0.38281,-7.71,0.649,7.237
2026-06-14 21:59:49.715,3357929171,261715,1,0.84131,-0.00317,0.65894,-9.183,5.649,
2026-06-14 21:59:49.715,3357929171,261715,2,0.90479,-0.25684,-0.39331,29.046,-4.16,-6.26
2026-06-14 21:59:50.237,3357929693,262237,1,0.83545,,0.66577,3.542,12.42,8.534
2026-06-14 21:59:50.237,3357929693,262237,2,0.90186,-0.2854,-0.40576,-3.496,-7.168,5.145
2026-06-14 21:59:50.652,3357930108,262652,1,0.83325,-0.02832,0.67261,1.389,1.603,0.664
2026-06-14 21:59:50.652,3357930108,262652,2,0.88965,-0.26685,-0.44702,7.634,1.58,-5.405
2026-06-14 21:59:51.055,3357930511,263055,1,0.82031,-0.02979,0.67822,3.527,2.519,2.618
2026-06-14 21:59:51.055,3357930511,263055,2,0.88135,-0.26978,-0.40942,-0.069,2.87,0.046
2026-06-14 21:59:51.456,3357930912,263455,1,0.81396,-0.02856,0.68799,-10.863,4.466,-11.42
2026-06-14 21:59:51.456,3357930912,263455,2,0.88354,-0.31543,-0.40112,-4.405,3.672,1.786
2026-06-14 21:59:52.949,3357932405,263949,1,0.82349,0.00317,0.67285,2.603,-2.183,0.794
2026-06-14 21:59:52.949,3357932405,263949,2,0.92188,-0.3186,-0.43457,20.611,-0.603,-4.733
2026-06-14 21:59:52.329,3357931785,264329,1,0.82568,0.04102,0.67749,7.26,5.565,4.542
2026-06-14 21:59:52.329,3357931785,264329,2,0.88379,-0.28296,-0.42603,3.023,3.931,-0.664
2026-06-14 21:59:52.634,3357932090,264634,1,0.80811,-0.01196,0.67603,4.992,6.084,2.336
2026-06-14 21:59:52.634,3357932090,264634,2,0.88232,-0.25049,-0.39575,-8.649,-4.214,1.198
2026-06-14 21:59:53.946,3357933402,264946,1,0.82983,0.00732,0.67676,4.382,0.42,1.565
2026-06-14 21:59:53.946,3357933402,264946,2,0.89258,-0.26978,-0.4187,3.87,0.565,-0.038
2026-06-14 21:59:53.326,3357932782,265326,1,0.82227,-0.00464,0.68115,2.802,2.588,5.076
2026-06-14 21:59:53.326,3357932782,265326,2,0.88989,-0.29199,-0.38501,-0.603,0.237,1.427
2026-06-14 21:59:53.658,3357933114,265658,1,0.83032,0.00586,0.67896,2.397,1.786,0.389
2026-06-14 21:59:53.658,3357933114,265658,2,0.89575,-0.28442,-0.40576,2.458,1.87,0.069
2026-06-14 21:59:54.867,3357934323,265867,1,0.82764,0.00464,0.68115,2.229,2.412,2.099
2026-06-14 21:59:54.867,3357934323,265867,2,0.89233,-0.29004,-0.40503,2.405,-0.45,-0.191
2026-06-14 21:59:54.145,3357933601,266145,1,0.83789,0.01025,0.67993,1.977,3.458,2.305
2026-06-14 21:59:54.145,3357933601,266145,2,0.88574,-0.27856,-0.39331,0.55,3.038,-0.626
2026-06-14 21:59:54.393,3357933849,266393,1,0.83887,0.01172,0.67041,-1.389,1.145,-2.084
2026-06-14 21:59:54.393,3357933849,266393,2,0.89331,-0.30957,-0.41431,-1.084,1.779,2.687
2026-06-14 21:59:54.593,3357934049,266593,1,0.82617,0.0061,0.68213,-1.344,5.351,-0.397
2026-06-14 21:59:54.593,3357934049,266593,2,0.89014,-0.30737,-0.3894,0.855,5.29,-0.641
2026-06-14 21:59:55.793,3357935249,266793,1,0.82129,0.00806,0.69116,1.313,3.534,1.305
2026-06-14 21:59:55.793,3357935249,266793,2,0.89795,-0.3147,-0.37744,1.885,0.756,-0.214
2026-06-14 21:59:55.139,3357934595,267139,1,0.81787,0.01147,0.6875,1.42,1.626,-0.649
2026-06-14 21:59:55.139,3357934595,267139,2,0.89233,-0.30957,-0.39648,-2.252,0.183,-0.305
2026-06-14 21:59:55.340,3357934796,267340,1,0.82153,0.0127,0.68359,0.496,0.87,-0.298
2026-06-14 21:59:55.340,3357934796,267340,2,0.8855,-0.30298,-0.39746,-0.595,0.809,-0.71
2026-06-14 21:59:55.556,3357935012,267556,1,0.823,0.00537,0.68066,1.527,1.901,0.87
2026-06-14 21:59:55.556,3357935012,267556,2,0.89087,-0.29858,-0.396,2.389,0.878,-1.733
2026-06-14 21:59:56.756,3357936212,267756,1,0.82471,0.01123,0.68506,1.702,2.55,1.382
2026-06-14 21:59:56.756,3357936212,267756,2,0.89282,-0.29541,-0.39575,0.038,1.527,0.412
2026-06-14 21:59:56.030,3357935486,268030,1,0.82764,0.00977,0.67847,-0.191,2.847,-0.794
2026-06-14 21:59:56.030,3357935486,268030,2,0.88867,-0.30981,-0.39697,-0.947,2.321,-0.16
2026-06-14 21:59:56.245,3357935701,268244,1,0.82813,0.01221,0.68457,0.092,2.473,0.496
2026-06-14 21:59:56.245,3357935701,268244,2,0.89233,-0.30737,-0.39404,3.863,2.29,-1.427
2026-06-14 21:59:56.444,3357935900,268444,1,0.82397,0.01245,0.68359,1.802,2.649,1.794
2026-06-14 21:59:56.444,3357935900,268444,2,0.89478,-0.30884,-0.38623,3.718,2.031,-1.282
2026-06-14 21:59:56.644,3357936100,268644,1,0.8252,0.01099,0.68677,1.168,2.802,0.809
2026-06-14 21:59:56.644,3357936100,268644,2,0.89258,-0.29663,-0.38452,-2.305,0.954,0.985
2026-06-14 21:59:57.932,3357937388,268931,1,0.81152,0.0144,0.69189,-1.71,1.634,-1.763
2026-06-14 21:59:57.932,3357937388,268931,2,0.89307,-0.29932,-0.40527,-0.534,0.664,0.031
2026-06-14 21:59:57.174,3357936630,269174,1,0.82837,0.00366,0.67603,1.977,2.076,0.992
2026-06-14 21:59:57.174,3357936630,269174,2,0.89111,-0.31689,-0.39453,1.969,0.779,-1.565
2026-06-14 21:59:57.412,3357936868,269412,1,0.82178,0.01392,0.67627,1.45,2.779,0.87
2026-06-14 21:59:57.412,3357936868,269412,2,0.88843,-0.29712,-0.39917,0.611,1.298,-0.206
2026-06-14 21:59:57.659,3357937115,269659,1,0.82495,0.01001,0.67847,1.122,2.252,0.252
2026-06-14 21:59:57.659,3357937115,269659,2,0.88428,-0.29932,-0.39331,-0.321,1.977,-1.191
2026-06-14 21:59:58.912,3357938368,269912,1,0.82837,0.01245,0.68018,0.557,1.252,-0.13
2026-06-14 21:59:58.912,3357938368,269912,2,0.89136,-0.302,-0.41553,0.565,1.305,0.061
2026-06-14 21:59:58.211,3357937667,270211,1,0.83032,0.0127,0.67358,-0.511,2.908,-0.847
2026-06-14 21:59:58.211,3357937667,270211,2,0.88916,-0.31396,-0.39795,-0.656,2.779,0.84
2026-06-14 21:59:58.597,3357938053,270597,1,0.82666,-0.00073,0.67993,1.351,3.557,1.672
2026-06-14 21:59:58.597,3357938053,270597,2,0.89526,-0.31714,-0.38257,2.664,2.511,-1.519
2026-06-14 21:59:59.091,3357938547,271091,1,0.82031,0.01221,0.68677,-0.359,-0.878,-0.847
2026-06-14 21:59:59.091,3357938547,271091,2,0.88184,-0.32495,-0.39404,0.244,-0.015,-0.519
2026-06-14 21:59:59.327,3357938783,271327,1,0.81885,0.0061,0.68408,2.565,2.42,1.634
2026-06-14 21:59:59.327,3357938783,271327,2,0.88965,-0.30762,-0.40747,2.191,0.466,-1.786
2026-06-14 21:59:59.531,3357938987,271531,1,0.83594,0.01196,0.67456,2.282,1.351,1.405
2026-06-14 21:59:59.531,3357938987,271531,2,0.88843,-0.31372,-0.39819,1.588,1.321,-1.29
2026-06-14 22:00:00.756,3357940212,271756,1,0.83008,0.01758,0.66553,2.519,2.695,1.153
2026-06-14 22:00:00.756,3357940212,271756,2,1.02881,-0.38135,-0.2959,45.855,32.069,-19.947
2026-06-14 22:00:00.059,3357939515,272059,1,0.76318,0.05127,0.72949,5.695,6.252,4.603
2026-06-14 22:00:00.059,3357939515,272059,2,0.91797,-0.25098,-0.27856,0.511,0.962,-5.756
2026-06-14 22:00:00.307,3357939763,272307,1,0.82227,0.00269,0.70313,6.573,11.489,2.534
2026-06-14 22:00:00.307,3357939763,272307,2,0.94189,-0.21533,-0.31616,19.107,11.076,-12.031
2026-06-14 22:00:00.566,3357940022,272566,1,0.71582,-0.04688,0.78491,11.244,4.282,12.802
2026-06-14 22:00:00.566,3357940022,272566,2,0.99194,-0.27344,-0.25781,9.511,-7.832,-2.595
2026-06-14 22:00:01.991,3357941447,272991,1,0.75488,-0.01685,0.76538,-2.153,-14.435,-7.122
2026-06-14 22:00:01.991,3357941447,272991,2,0.96216,-0.20386,-0.32617,-21.382,-9.611,0.725
2026-06-14 22:00:01.273,3357940729,273273,1,0.81348,0.06226,0.69604,-7.29,-2.725,-12.893
2026-06-14 22:00:01.273,3357940729,273273,2,0.93579,-0.19019,-0.36987,-9.908,2.618,9.382
2026-06-14 22:00:01.473,3357940929,273473,1,0.77686,0.01929,0.71802,-8.321,1.87,-7.038
2026-06-14 22:00:01.473,3357940929,273473,2,0.89185,-0.24707,-0.39697,-4.328,-1.603,8.809
2026-06-14 22:00:01.673,3357941129,273673,1,0.80664,0.0127,0.68213,5.29,3.763,6.962
2026-06-14 22:00:01.673,3357941129,273673,2,0.91724,-0.22876,-0.38232,15.206,-5.672,7.977
2026-06-14 22:00:02.983,3357942439,273982,1,0.80981,-0.00024,0.70142,-4.275,0.992,1.962
2026-06-14 22:00:02.983,3357942439,273982,2,0.91479,-0.28247,-0.36206,-1.168,0.588,2.916
2026-06-14 22:00:02.207,3357941663,274207,1,0.81714,0.0083,0.70752,-2.954,0.443,-2.679
2026-06-14 22:00:02.207,3357941663,274207,2,0.90234,-0.29028,-0.36841,-0.496,-2.382,3.115
2026-06-14 22:00:02.474,3357941930,274474,1,0.81494,0.04565,0.71411,-5.328,-0.122,-2.763
2026-06-14 22:00:02.474,3357941930,274474,2,0.90356,-0.30322,-0.38208,-7.656,-0.26,2.672
2026-06-14 22:00:03.777,3357943233,274777,1,0.83691,0.02148,0.68018,2.221,0.519,0.092
2026-06-14 22:00:03.777,3357943233,274777,2,0.89307,-0.30249,-0.41016,-0.733,-2.351,1.893
2026-06-14 22:00:03.006,3357942462,275006,1,0.83813,0.00903,0.67358,3.237,3.527,3.046
2026-06-14 22:00:03.006,3357942462,275006,2,0.88916,-0.28662,-0.40991,4.908,3.031,-3.947
2026-06-14 22:00:03.228,3357942684,275227,1,0.83252,0.02515,0.67358,2.809,2.908,1.916
2026-06-14 22:00:03.228,3357942684,275227,2,0.89111,-0.30151,-0.40405,-2.557,1.893,1.137
2026-06-14 22:00:04.903,3357944359,275903,1,0.81812,0.02197,0.68262,1.885,2.466,1.107
2026-06-14 22:00:04.903,3357944359,275903,2,0.88794,-0.29321,-0.40283,0.13,0.527,-0.473
2026-06-14 22:00:04.298,3357943754,276298,1,0.82349,0.0249,0.68018,-0.939,0.298,-1.107
2026-06-14 22:00:04.298,3357943754,276298,2,0.89478,-0.30737,-0.40137,-1.031,0.458,0.496
2026-06-14 22:00:04.544,3357944000,276544,1,0.82935,0.03223,0.67578,2.145,3.267,1.779
2026-06-14 22:00:04.544,3357944000,276544,2,0.89331,-0.30225,-0.39941,6.267,3.092,-1.42
2026-06-14 22:00:05.744,3357945200,276744,1,0.823,0.02002,0.6748,1.618,4.061,2.092
2026-06-14 22:00:05.744,3357945200,276744,2,0.89648,-0.29663,-0.38892,0.115,1.481,0.214
2026-06-14 22:00:05.099,3357944555,277099,1,0.81885,0.02222,0.68774,0.015,1.885,-1.008
2026-06-14 22:00:05.099,3357944555,277099,2,0.89209,-0.30664,-0.38208,-0.351,0.878,-0.641
2026-06-14 22:00:05.311,3357944767,277310,1,0.8269,0.0271,0.67896,2.87,2.313,2.16
2026-06-14 22:00:05.311,3357944767,277310,2,0.89038,-0.30029,-0.38892,1.542,2.58,-3.191
2026-06-14 22:00:05.622,3357945078,277622,1,0.80859,0.04126,0.69727,0.603,1.229,-1.298
2026-06-14 22:00:05.622,3357945078,277622,2,0.89478,-0.30688,-0.39893,3.672,4.763,-5.069
2026-06-14 22:00:06.822,3357946278,277822,1,0.83862,0.02319,0.6626,-1.84,1.153,-1.053
2026-06-14 22:00:06.822,3357946278,277822,2,0.91431,-0.3103,-0.37964,4.015,6.672,-1.053
2026-06-14 22:00:06.037,3357945493,278037,1,0.79834,-0.01538,0.67236,-6.031,-0.412,0.282
2026-06-14 22:00:06.037,3357945493,278037,2,0.90186,-0.26196,-0.37207,-6.603,4.046,1.267
2026-06-14 22:00:06.256,3357945712,278256,1,0.81274,-0.00659,0.68213,-3.252,4.496,5.275
2026-06-14 22:00:06.256,3357945712,278256,2,0.8999,-0.28809,-0.34106,-11.45,1.893,-4.702
2026-06-14 22:00:06.500,3357945956,278500,1,0.82129,0.03882,0.70679,10.534,3.42,6.42
2026-06-14 22:00:06.500,3357945956,278500,2,0.94189,-0.2522,-0.35938,11.634,-2.099,-8.618
2026-06-14 22:00:07.876,3357947332,278876,1,0.81274,0.05566,0.70825,0.382,-1.023,-1.695
2026-06-14 22:00:07.876,3357947332,278876,2,0.88379,-0.30225,-0.39429,5.588,3.87,-1.42
2026-06-14 22:00:08.978,3357948434,279978,1,0.82397,0.01929,0.68408,-0.595,1.763,-1.069
2026-06-14 22:00:08.978,3357948434,279978,2,0.88721,-0.29517,-0.40161,-1.008,0.176,-0.084
2026-06-14 22:00:08.701,3357948157,280701,1,0.8374,0.021,0.67627,-1.656,-1.153,-2.893
2026-06-14 22:00:08.701,3357948157,280701,2,0.88477,-0.30054,-0.41455,-1.122,-0.779,0.473
2026-06-14 22:00:09.908,3357949364,280908,1,0.83569,0.02808,0.66309,0.817,1.351,1.053
2026-06-14 22:00:09.908,3357949364,280908,2,0.89478,-0.30005,-0.3999,6.779,4.939,-4.908
2026-06-14 22:00:09.138,3357948594,281138,1,0.82642,0.01563,0.67041,-2.267,3.962,-2.321
2026-06-14 22:00:09.138,3357948594,281138,2,0.89282,-0.28564,-0.38135,-5.977,3.634,-1.588
2026-06-14 22:00:09.404,3357948860,281404,1,0.83545,0.03882,0.66675,-3.786,1.893,-2.977
2026-06-14 22:00:09.404,3357948860,281404,2,0.89795,-0.30078,-0.41016,-4.733,6.252,3.382
2026-06-14 22:00:10.758,3357950214,281758,1,0.81348,0.03857,0.68091,-2.824,8.214,-3.863
2026-06-14 22:00:10.758,3357950214,281758,2,0.9209,-0.3103,-0.36377,3.58,-3.092,10.824
2026-06-14 22:00:10.727,3357950183,282727,1,0.66479,0.12158,0.72095,14.656,-6.107,22.153
2026-06-14 22:00:10.727,3357950183,282727,2,0.91455,-0.2561,-0.42505,-9.076,-4.481,-13.977
2026-06-14 22:00:12.090,3357951546,284090,1,0.86011,-0.07471,0.67139,44.901,13.496,-0.718
2026-06-14 22:00:12.090,3357951546,284090,2,0.99658,-0.05444,-0.31494,48.29,38.344,-42.221
2026-06-14 22:00:12.366,3357951822,284366,1,0.61499,0.28516,0.81567,47.031,36.519,-20.71
2026-06-14 22:00:12.366,3357951822,284366,2,1.07104,0.10303,-0.14771,3.328,43.908,-18.405
2026-06-14 22:00:12.642,3357952098,284641,1,0.40649,0.41309,0.95044,-14.382,31.115,-34.863
2026-06-14 22:00:12.642,3357952098,284641,2,0.9895,0.12451,-0.00586,-7.58,12.74,-1.626
2026-06-14 22:00:13.841,3357953297,284841,1,0.4668,0.32983,0.89575,-2.229,-9.16,-4.061
2026-06-14 22:00:13.841,3357953297,284841,2,0.99927,0.22095,-0.07935,-16.305,-20.527,6.962
2026-06-14 22:00:13.041,3357952497,285041,1,0.58813,0.48193,0.78467,5.603,-28.679,10.115
2026-06-14 22:00:13.041,3357952497,285041,2,0.97803,0.08105,-0.33008,4.023,-21.115,31.725
2026-06-14 22:00:13.392,3357952848,285392,1,0.80371,0.02734,0.7627,1.45,-19.695,25.137
2026-06-14 22:00:13.392,3357952848,285392,2,0.927,-0.15186,-0.42773,61.802,-16.832,-17.282
2026-06-14 22:00:13.643,3357953099,285643,1,0.86157,-0.01831,0.604,69.794,5.305,86.038
2026-06-14 22:00:13.643,3357953099,285643,2,0.88062,-0.05103,-0.50464,124.153,20.893,-64.794
2026-06-14 22:00:14.935,3357954391,285935,1,0.8623,-0.08569,0.60498,96.802,9.412,69.26
2026-06-14 22:00:14.935,3357954391,285935,2,1.00342,-0.03101,-0.46558,129.26,8.099,-76.382
2026-06-14 22:00:14.243,3357953699,286243,1,0.70239,0.31738,0.62158,87.397,17.42,76.191
2026-06-14 22:00:14.243,3357953699,286243,2,0.96655,0.26978,-0.30688,80.626,36.519,-67.557
2026-06-14 22:00:14.463,3357953919,286463,1,0.81519,0.41919,0.68335,58.145,-14.176,59.313
2026-06-14 22:00:14.463,3357953919,286463,2,1.33521,0.17993,-0.49097,89.924,-8.267,18.214
2026-06-14 22:00:14.663,3357954119,286663,1,0.95142,-0.0835,0.71973,46.313,-4.023,61.351
2026-06-14 22:00:14.663,3357954119,286663,2,0.75415,-0.0188,-0.43579,92.473,7.969,-46.656
2026-06-14 22:00:15.940,3357955396,286940,1,0.7666,-0.10449,0.6731,87.924,-2.107,72.405
2026-06-14 22:00:15.940,3357955396,286940,2,1.02881,-0.0022,-0.44775,88.511,21.832,-53.664
2026-06-14 22:00:15.140,3357954596,287140,1,0.79492,0.1582,0.6416,86.954,6.397,51.725
2026-06-14 22:00:15.140,3357954596,287140,2,0.89014,0.12793,-0.41724,62.405,-7.985,-22.061
2026-06-14 22:00:15.406,3357954862,287406,1,0.75879,0.26758,0.63574,48.557,14.672,23.565
2026-06-14 22:00:15.406,3357954862,287406,2,0.96094,0.13989,-0.29468,21.779,-0.641,-6.55
2026-06-14 22:00:15.682,3357955138,287682,1,0.72339,0.37354,0.71582,2.557,-4.588,11.947
2026-06-14 22:00:15.682,3357955138,287682,2,0.90308,0.21997,-0.34375,-19.153,-32.962,11.504
2026-06-14 22:00:16.943,3357956399,287943,1,0.87183,0.11499,0.60376,-15.779,-12.695,4.809
2026-06-14 22:00:16.943,3357956399,287943,2,0.88281,0.08398,-0.36865,-5.916,-2.611,-6.885
2026-06-14 22:00:16.143,3357955599,288143,1,0.84009,0.06567,0.65283,-5.794,1.511,8.779
2026-06-14 22:00:16.143,3357955599,288143,2,0.92383,0.03906,-0.44189,-16.0,-0.931,10.023
2026-06-14 22:00:16.382,3357955838,288382,1,0.89258,0.02271,0.62305,-19.443,-0.733,-7.802
2026-06-14 22:00:16.382,3357955838,288382,2,0.89697,-0.01123,-0.42773,-7.511,7.107,12.435
2026-06-14 22:00:16.582,3357956038,288582,1,0.83911,0.00928,0.64844,-11.473,5.183,-7.038
2026-06-14 22:00:16.582,3357956038,288582,2,0.91382,-0.01758,-0.4292,-4.397,-0.458,6.863
2026-06-14 22:00:17.782,3357957238,288782,1,0.87305,0.02075,0.62305,-0.122,1.244,-1.298
2026-06-14 22:00:17.782,3357957238,288782,2,0.92163,0.00195,-0.43237,4.756,3.023,-2.939
2026-06-14 22:00:17.982,3357957438,288982,1,0.86377,0.05737,0.62915,7.985,6.382,2.321
2026-06-14 22:00:17.982,3357957438,288982,2,0.92578,0.01538,-0.40356,11.763,6.221,-5.992
2026-06-14 22:00:17.271,3357956727,289271,1,0.854,0.073,0.63843,12.832,7.641,4.725
2026-06-14 22:00:17.271,3357956727,289271,2,0.93262,0.03101,-0.41577,7.588,6.969,-9.496
2026-06-14 22:00:17.475,3357956931,289475,1,0.83057,0.1123,0.66504,12.947,6.992,5.137
2026-06-14 22:00:17.475,3357956931,289475,2,0.94727,0.03882,-0.37183,7.145,4.26,-8.794
2026-06-14 22:00:17.675,3357957131,289675,1,0.82544,0.12061,0.66943,10.718,2.679,6.939
2026-06-14 22:00:17.675,3357957131,289675,2,0.94336,0.05713,-0.38843,7.901,-0.053,-4.588
2026-06-14 22:00:18.966,3357958422,289966,1,0.84888,0.1001,0.66211,3.748,0.985,4.504
2026-06-14 22:00:18.966,3357958422,289966,2,0.94067,0.04688,-0.38013,0.313,2.74,-2.084
2026-06-14 22:00:18.166,3357957622,290166,1,0.84473,0.09155,0.66138,2.137,5.527,-1.55
2026-06-14 22:00:18.166,3357957622,290166,2,0.94287,0.05469,-0.38062,-5.603,3.176,-1.038
2026-06-14 22:00:18.410,3357957866,290410,1,0.82813,0.11255,0.67383,3.702,5.153,-2.519
2026-06-14 22:00:18.410,3357957866,290410,2,0.94507,0.06738,-0.36304,1.107,3.947,-3.649
2026-06-14 22:00:18.631,3357958087,290631,1,0.82129,0.13916,0.66821,3.557,3.427,-0.496
2026-06-14 22:00:18.631,3357958087,290631,2,0.95239,0.0813,-0.36133,0.947,2.916,-2.313
2026-06-14 22:00:19.831,3357959287,290831,1,0.81787,0.14893,0.67554,3.473,2.771,1.16
2026-06-14 22:00:19.831,3357959287,290831,2,0.94775,0.06592,-0.37012,6.053,-0.885,0.374
2026-06-14 22:00:19.146,3357958602,291145,1,0.82666,0.12793,0.6731,-0.672,-1.092,5.366
2026-06-14 22:00:19.146,3357958602,291145,2,0.94507,0.04468,-0.37231,9.664,-2.588,2.031
2026-06-14 22:00:19.382,3357958838,291382,1,0.84155,0.11255,0.66357,-2.328,-1.55,5.542
2026-06-14 22:00:19.382,3357958838,291382,2,0.95142,0.03906,-0.40991,7.885,-2.855,3.931
2026-06-14 22:00:19.582,3357959038,291582,1,0.85571,0.10083,0.65479,-2.336,2.382,5.771
2026-06-14 22:00:19.582,3357959038,291582,2,0.94019,0.03784,-0.3938,1.443,0.603,1.061
2026-06-14 22:00:20.792,3357960248,291792,1,0.83862,0.08154,0.65479,-1.481,5.817,3.634
2026-06-14 22:00:20.792,3357960248,291792,2,0.93408,0.02759,-0.39551,-6.153,1.382,0.634
2026-06-14 22:00:20.045,3357959501,292045,1,0.84473,0.05273,0.65894,-1.031,4.481,1.679
2026-06-14 22:00:20.045,3357959501,292045,2,0.92554,0.06641,-0.36621,-0.252,8.733,-9.58
2026-06-14 22:00:20.280,3357959736,292280,1,0.7981,0.0603,0.68652,8.763,7.084,0.908
2026-06-14 22:00:20.280,3357959736,292280,2,0.93628,0.04541,-0.38403,-0.573,1.244,-6.221
2026-06-14 22:00:20.480,3357959936,292480,1,0.82642,0.04028,0.68677,7.962,-0.763,1.405
2026-06-14 22:00:20.480,3357959936,292480,2,0.93994,0.03955,-0.39624,4.962,0.405,-5.328
2026-06-14 22:00:20.680,3357960136,292680,1,0.86621,0.04907,0.66162,5.855,2.733,6.573
2026-06-14 22:00:20.680,3357960136,292680,2,0.9397,0.03076,-0.38599,11.756,3.947,-0.947
2026-06-14 22:00:21.959,3357961415,292959,1,0.8269,0.02393,0.68481,5.496,4.878,11.015
2026-06-14 22:00:21.959,3357961415,292959,2,0.95142,0.02832,-0.38965,9.366,3.748,-1.382
2026-06-14 22:00:21.159,3357960615,293159,1,0.82251,0.00952,0.68994,2.611,4.221,4.84
2026-06-14 22:00:21.159,3357960615,293159,2,0.94336,0.02295,-0.37476,9.527,4.405,2.298
2026-06-14 22:00:21.359,3357960815,293359,1,0.81396,0.01758,0.69189,-0.824,0.878,-2.863
2026-06-14 22:00:21.359,3357960815,293359,2,0.93359,0.00537,-0.36963,4.718,0.901,4.244
2026-06-14 22:00:21.559,3357961015,293559,1,0.8103,0.03784,0.67432,-8.282,-5.45,-5.893
2026-06-14 22:00:21.559,3357961015,293559,2,0.94727,0.04028,-0.40137,-12.198,-1.534,7.664
2026-06-14 22:00:22.872,3357962328,293872,1,0.86719,0.07642,0.65649,-4.641,0.084,-8.718
2026-06-14 22:00:22.872,3357962328,293872,2,0.93555,0.04175,-0.39819,-3.359,1.191,0.992
2026-06-14 22:00:22.072,3357961528,294072,1,0.84106,0.09277,0.66064,-1.496,2.832,-4.87
2026-06-14 22:00:22.072,3357961528,294072,2,0.92725,0.05493,-0.39722,-9.038,1.718,-0.481
2026-06-14 22:00:22.272,3357961728,294272,1,0.84863,0.10352,0.64771,2.977,0.015,-2.763
2026-06-14 22:00:22.272,3357961728,294272,2,0.92041,0.0127,-0.41064,9.687,-0.191,0.908
2026-06-14 22:00:25.582,3357965038,297582,1,0.85913,0.01709,0.63525,5.985,-0.397,13.26
2026-06-14 22:00:25.582,3357965038,297582,2,0.9248,0.01123,-0.44165,10.557,-0.618,-7.122
2026-06-14 22:00:26.963,3357966419,297963,1,0.86255,0.03125,0.63281,20.26,2.023,11.015
2026-06-14 22:00:26.963,3357966419,297963,2,0.91553,0.11816,-0.40698,-16.947,3.702,1.015
2026-06-14 22:00:26.463,3357965919,298463,1,0.84668,0.08984,0.63062,-19.412,2.496,-25.115
2026-06-14 22:00:26.463,3357965919,298463,2,0.97266,0.09619,-0.4292,-55.443,-5.847,37.344
2026-06-14 22:00:27.816,3357967272,298816,1,0.85791,0.03906,0.62036,-59.527,4.137,-41.634
2026-06-14 22:00:27.816,3357967272,298816,2,0.94482,-0.01099,-0.44043,-57.87,7.031,43.412
2026-06-14 22:00:27.100,3357966556,299100,1,0.85962,-0.05103,0.66382,-64.626,3.702,-24.359
2026-06-14 22:00:27.100,3357966556,299100,2,0.87793,-0.23267,-0.44238,-27.137,5.893,24.176
2026-06-14 22:00:27.384,3357966840,299384,1,0.84009,-0.26758,0.61475,16.924,3.237,-2.573
2026-06-14 22:00:27.384,3357966840,299384,2,0.88696,-0.17725,-0.4458,18.214,9.481,-40.542
2026-06-14 22:00:27.660,3357967116,299660,1,0.73364,0.10815,0.7688,56.626,54.557,1.099
2026-06-14 22:00:27.660,3357967116,299660,2,0.9502,0.104,-0.41553,10.626,13.328,-9.198
2026-06-14 22:00:28.860,3357968316,299860,1,0.73047,0.34106,0.71289,50.206,25.061,26.687
2026-06-14 22:00:28.860,3357968316,299860,2,0.92578,0.28931,-0.28638,35.427,2.733,-29.191
2026-06-14 22:00:28.210,3357967666,300210,1,0.7478,0.45557,0.67261,-17.656,-6.0,6.58
2026-06-14 22:00:28.210,3357967666,300210,2,1.11914,0.08252,-0.39355,-44.908,-27.969,59.153
2026-06-14 22:00:28.479,3357967935,300479,1,0.80493,0.05762,0.62183,-42.099,-7.153,-0.076
2026-06-14 22:00:28.479,3357967935,300479,2,0.97095,0.02441,-0.34082,-8.412,-1.168,13.237
2026-06-14 22:00:28.679,3357968135,300679,1,0.8313,0.01196,0.68628,-13.412,-1.534,4.695
2026-06-14 22:00:28.679,3357968135,300679,2,0.97729,-0.0603,-0.38281,9.878,6.0,-7.313
2026-06-14 22:00:29.951,3357969407,300951,1,0.81372,-0.0686,0.68579,16.45,10.13,2.855
2026-06-14 22:00:29.951,3357969407,300951,2,0.98755,-0.073,-0.3313,27.603,17.489,-29.473
2026-06-14 22:00:29.243,3357968699,301243,1,0.71191,0.26294,0.71704,76.863,60.855,25.351
2026-06-14 22:00:29.243,3357968699,301243,2,0.91968,0.29199,-0.33887,57.145,35.542,-27.679
2026-06-14 22:00:29.443,3357968899,301443,1,0.65625,0.38159,0.71777,-9.748,-1.0,5.183
2026-06-14 22:00:29.443,3357968899,301443,2,0.81592,0.32813,-0.28491,-34.168,-26.794,24.542
2026-06-14 22:00:29.643,3357969099,301643,1,0.95752,0.06763,0.76221,-40.092,-22.008,-10.679
2026-06-14 22:00:29.643,3357969099,301643,2,0.80176,0.0752,-0.28003,-1.496,31.87,-11.115
2026-06-14 22:00:30.860,3357970316,301860,1,0.80762,-0.05493,0.84937,-24.221,21.313,-5.985
2026-06-14 22:00:30.860,3357970316,301860,2,0.9021,-0.07886,-0.33203,-22.557,3.305,25.053
2026-06-14 22:00:30.093,3357969549,302093,1,0.82935,-0.08154,0.69653,-20.038,3.534,-11.771
2026-06-14 22:00:30.093,3357969549,302093,2,1.00293,-0.16797,-0.35889,-19.42,2.748,16.84
2026-06-14 22:00:30.293,3357969749,302293,1,0.74951,-0.06665,0.72339,2.031,2.847,2.603
2026-06-14 22:00:30.293,3357969749,302293,2,0.95972,-0.07983,-0.35474,2.29,-4.137,-3.0
2026-06-14 22:00:30.493,3357969949,302493,1,0.79541,-0.04541,0.72046,5.603,-2.847,1.58
2026-06-14 22:00:30.493,3357969949,302493,2,0.96631,-0.06909,-0.35889,6.519,-4.641,-7.26
2026-06-14 22:00:31.840,3357971296,302839,1,0.80249,-0.00635,0.69946,7.702,-2.725,5.733
2026-06-14 22:00:31.840,3357971296,302839,2,0.95264,-0.01245,-0.37109,12.603,-0.542,-6.359
2026-06-14 22:00:31.064,3357970520,303064,1,0.81128,0.02979,0.68823,11.489,-2.29,9.618
2026-06-14 22:00:31.064,3357970520,303064,2,0.9563,0.02661,-0.3772,8.481,-2.786,-9.031
2026-06-14 22:00:31.264,3357970720,303264,1,0.83643,0.04102,0.66821,10.817,0.611,6.588
2026-06-14 22:00:31.264,3357970720,303264,2,0.94116,0.04126,-0.38281,8.718,1.824,-6.153
2026-06-14 22:00:31.464,3357970920,303464,1,0.8313,0.02856,0.6687,5.366,-1.176,1.718
2026-06-14 22:00:31.464,3357970920,303464,2,0.93774,0.01001,-0.38672,3.771,3.29,-2.534
2026-06-14 22:00:32.839,3357972295,303838,1,0.82715,-0.00708,0.64722,-2.038,0.046,-6.008
2026-06-14 22:00:32.839,3357972295,303838,2,0.94141,0.01172,-0.42407,-23.084,-8.985,1.328
2026-06-14 22:00:32.038,3357971494,304038,1,0.84473,0.04663,0.66553,0.366,3.0,-4.298
2026-06-14 22:00:32.038,3357971494,304038,2,0.93433,0.01294,-0.41113,3.153,0.931,0.137
2026-06-14 22:00:32.276,3357971732,304275,1,0.85791,0.04028,0.65552,-3.099,2.046,-0.802
2026-06-14 22:00:32.276,3357971732,304275,2,0.93433,-0.00513,-0.40649,-1.0,0.527,2.794
2026-06-14 22:00:32.514,3357971970,304514,1,0.84302,0.02612,0.65259,-1.29,0.832,-0.046
2026-06-14 22:00:32.514,3357971970,304514,2,0.93555,-0.00781,-0.41333,-0.344,0.908,1.031
2026-06-14 22:00:33.797,3357973253,304797,1,0.84619,0.02295,0.66431,0.901,2.015,1.595
2026-06-14 22:00:33.797,3357973253,304797,2,0.93384,-0.01123,-0.41357,2.649,2.748,0.298
2026-06-14 22:00:33.997,3357973453,304997,1,0.84692,0.03516,0.65186,2.145,2.359,2.969
2026-06-14 22:00:33.997,3357973453,304997,2,0.9375,0.01172,-0.38843,2.122,5.374,-0.901
2026-06-14 22:00:33.197,3357972653,305197,1,0.83008,0.04053,0.66528,-5.992,2.038,1.145
2026-06-14 22:00:33.197,3357972653,305197,2,0.93286,0.01538,-0.38843,-9.802,-0.122,6.122
2026-06-14 22:00:33.397,3357972853,305397,1,0.85132,0.00952,0.66382,-8.878,2.504,-2.061
2026-06-14 22:00:33.397,3357972853,305397,2,0.96069,0.00732,-0.37622,-10.489,3.954,2.511
2026-06-14 22:00:33.597,3357973053,305597,1,0.84058,0.01294,0.66919,-4.588,12.092,-1.695
2026-06-14 22:00:33.597,3357973053,305597,2,0.96777,0.03369,-0.34009,-13.695,17.29,1.191
2026-06-14 22:00:34.848,3357974304,305848,1,0.79248,-0.04395,0.74609,-6.824,20.076,-11.435
2026-06-14 22:00:34.848,3357974304,305848,2,0.95703,-0.03076,-0.29492,-5.382,7.634,9.168
2026-06-14 22:00:34.099,3357973555,306098,1,0.72607,-0.02173,0.77441,-4.45,3.809,-8.962
2026-06-14 22:00:34.099,3357973555,306098,2,0.98145,-0.04614,-0.28516,-3.931,0.107,0.74
2026-06-14 22:00:34.298,3357973754,306298,1,0.75269,-0.00024,0.7373,0.519,-6.603,-5.229
2026-06-14 22:00:34.298,3357973754,306298,2,0.98608,-0.01685,-0.30347,2.885,-2.641,1.336
2026-06-14 22:00:34.525,3357973981,306525,1,0.78687,0.00757,0.73657,2.656,-1.947,1.412
2026-06-14 22:00:34.525,3357973981,306525,2,0.97095,-0.01343,-0.31348,0.74,0.328,-2.718
2026-06-14 22:00:35.983,3357975439,306983,1,0.75757,0.00439,0.75854,5.336,3.206,6.702
2026-06-14 22:00:35.983,3357975439,306983,2,0.96851,-0.02026,-0.31592,13.13,-2.679,-9.863
2026-06-14 22:00:35.247,3357974703,307247,1,0.76855,-0.00146,0.72949,17.092,-3.908,7.244
2026-06-14 22:00:35.247,3357974703,307247,2,0.97144,-0.00488,-0.33716,13.092,-1.725,-13.351
2026-06-14 22:00:35.543,3357974999,307543,1,0.80273,0.03687,0.7041,11.763,-6.466,5.405
2026-06-14 22:00:35.543,3357974999,307543,2,0.96191,0.03296,-0.36475,12.855,-9.565,-5.45
2026-06-14 22:00:36.869,3357976325,307869,1,0.8728,0.06372,0.63989,8.328,-4.504,3.55
2026-06-14 22:00:36.869,3357976325,307869,2,0.96729,0.08032,-0.37817,10.58,10.359,-13.954
2026-06-14 22:00:36.069,3357975525,308069,1,0.80664,0.20142,0.64917,20.237,1.901,-1.832
2026-06-14 22:00:36.069,3357975525,308069,2,0.94312,0.11475,-0.42407,26.191,-14.771,4.55
2026-06-14 22:00:36.269,3357975725,308269,1,0.83911,0.21631,0.6604,0.702,0.687,10.351
2026-06-14 22:00:36.269,3357975725,308269,2,0.95117,0.11206,-0.41357,-4.679,0.328,-1.748
2026-06-14 22:00:36.507,3357975963,308507,1,0.86255,0.12646,0.63672,5.84,6.985,6.496
2026-06-14 22:00:36.507,3357975963,308507,2,0.94116,0.05957,-0.41943,-2.771,5.42,0.908
2026-06-14 22:00:37.749,3357977205,308749,1,0.83398,0.07764,0.65698,-0.008,5.176,0.435
2026-06-14 22:00:37.749,3357977205,308749,2,0.92798,0.0459,-0.38599,-6.053,2.008,-6.809
2026-06-14 22:00:37.949,3357977405,308949,1,0.83252,0.05859,0.64526,8.618,-2.244,2.863
2026-06-14 22:00:37.949,3357977405,308949,2,0.92627,0.01172,-0.3877,-2.206,0.397,-7.992
2026-06-14 22:00:37.149,3357976605,309149,1,0.84692,0.05225,0.67407,10.504,1.473,3.985
2026-06-14 22:00:37.149,3357976605,309149,2,0.94727,0.0354,-0.40479,5.763,5.282,5.672
2026-06-14 22:00:37.422,3357976878,309422,1,0.81836,0.06274,0.68213,-15.0,-0.84,-7.595
2026-06-14 22:00:37.422,3357976878,309422,2,0.95459,0.0293,-0.427,-12.748,-2.626,14.679
2026-06-14 22:00:37.683,3357977139,309683,1,0.84961,0.06543,0.63916,-17.763,-1.099,-9.527
2026-06-14 22:00:37.683,3357977139,309683,2,0.93677,0.06567,-0.36694,-3.092,4.412,0.336
2026-06-14 22:00:38.004,3357977460,310004,1,0.83325,0.11816,0.64844,-2.641,-0.168,-9.458
2026-06-14 22:00:38.004,3357977460,310004,2,0.93481,0.04248,-0.4021,-13.489,-2.229,3.412
2026-06-14 22:00:38.304,3357977760,310304,1,0.87231,0.11646,0.64453,-5.542,-2.595,-8.038
2026-06-14 22:00:38.304,3357977760,310304,2,0.93457,0.02148,-0.3855,-2.26,3.145,2.313
2026-06-14 22:00:38.504,3357977960,310504,1,0.82642,0.10278,0.65186,1.802,2.756,3.641
2026-06-14 22:00:38.504,3357977960,310504,2,0.94043,0.02417,-0.38867,-2.099,1.084,-3.206
2026-06-14 22:00:39.786,3357979242,310785,1,0.90332,0.09131,0.66528,-6.977,3.13,-0.237
2026-06-14 22:00:39.786,3357979242,310785,2,0.93408,0.00537,-0.38306,-4.527,3.702,4.763
2026-06-14 22:00:39.090,3357978546,311090,1,0.82861,0.04321,0.63354,-7.084,0.206,-2.13
2026-06-14 22:00:39.090,3357978546,311090,2,0.97876,-0.03979,-0.42969,-2.229,-1.786,7.397
2026-06-14 22:00:39.290,3357978746,311290,1,0.79834,0.0354,0.64844,2.527,5.214,2.878
2026-06-14 22:00:39.290,3357978746,311290,2,0.93921,-0.01367,-0.40137,-4.748,0.74,-3.115
2026-06-14 22:00:39.490,3357978946,311490,1,0.83765,0.05957,0.63477,-1.74,-1.244,-3.962
2026-06-14 22:00:39.490,3357978946,311490,2,0.94922,-0.00684,-0.35718,15.84,8.252,0.351
2026-06-14 22:00:40.775,3357980231,311775,1,0.81494,0.07983,0.677,2.924,2.664,0.244
2026-06-14 22:00:40.775,3357980231,311775,2,0.95508,-0.00952,-0.37891,-0.618,0.351,0.481
2026-06-14 22:00:40.997,3357980453,311997,1,0.82007,0.0459,0.66626,2.565,6.382,4.527
2026-06-14 22:00:40.997,3357980453,311997,2,0.92212,0.00171,-0.39722,-6.099,1.779,-2.0
2026-06-14 22:00:40.334,3357979790,312334,1,0.85547,0.05591,0.66382,5.573,5.489,2.336
2026-06-14 22:00:40.334,3357979790,312334,2,0.94189,0.00293,-0.3938,-4.489,2.435,-3.824
2026-06-14 22:00:40.650,3357980106,312649,1,0.84082,0.06763,0.6687,1.924,0.267,-0.939
2026-06-14 22:00:40.650,3357980106,312649,2,0.93994,-0.00073,-0.39038,-0.527,-0.595,-3.191
2026-06-14 22:00:41.970,3357981426,312970,1,0.85229,0.0791,0.64136,-1.389,-1.008,-0.489
2026-06-14 22:00:41.970,3357981426,312970,2,0.92944,0.01294,-0.41162,-1.771,-1.084,-0.344
2026-06-14 22:00:41.223,3357980679,313223,1,0.85742,0.07397,0.63672,1.71,1.389,1.702
2026-06-14 22:00:41.223,3357980679,313223,2,0.92261,0.01978,-0.4043,0.641,0.481,-2.305
2026-06-14 22:00:41.423,3357980879,313423,1,0.87207,0.06934,0.63721,3.977,2.374,1.969
2026-06-14 22:00:41.423,3357980879,313423,2,0.92896,0.01782,-0.40308,3.802,3.168,-2.244
2026-06-14 22:00:41.623,3357981079,313623,1,0.85327,0.08374,0.63232,1.588,-0.191,0.382
2026-06-14 22:00:41.623,3357981079,313623,2,0.93018,0.03662,-0.40308,9.168,6.069,-2.504
2026-06-14 22:00:42.983,3357982439,313983,1,0.86597,0.07544,0.61694,2.221,1.153,1.878
2026-06-14 22:00:42.983,3357982439,313983,2,0.94653,0.00391,-0.41479,9.817,4.939,0.817
2026-06-14 22:00:42.225,3357981681,314225,1,0.83911,0.06567,0.64722,5.305,6.298,4.031
2026-06-14 22:00:42.225,3357981681,314225,2,0.92261,0.00049,-0.40381,3.489,3.206,-2.58
2026-06-14 22:00:42.425,3357981881,314425,1,0.85767,0.07544,0.64355,3.374,3.878,2.519
2026-06-14 22:00:42.425,3357981881,314425,2,0.93677,0.01367,-0.39746,1.954,2.71,-3.382
2026-06-14 22:00:42.652,3357982108,314651,1,0.854,0.0813,0.63843,4.687,2.87,1.305
2026-06-14 22:00:42.652,3357982108,314651,2,0.93481,0.02417,-0.39185,1.336,1.611,-3.351
2026-06-14 22:00:43.851,3357983307,314851,1,0.85156,0.09106,0.63867,3.557,1.069,-0.046
2026-06-14 22:00:43.851,3357983307,314851,2,0.92798,0.02319,-0.39087,3.244,1.565,-0.87
2026-06-14 22:00:43.051,3357982507,315051,1,0.85791,0.08911,0.64502,1.359,1.305,0.015
2026-06-14 22:00:43.051,3357982507,315051,2,0.93042,0.02344,-0.40186,4.137,2.122,-1.053
2026-06-14 22:00:43.349,3357982805,315349,1,0.86475,0.07935,0.63184,0.282,1.947,1.603
2026-06-14 22:00:43.349,3357982805,315349,2,0.93262,0.01538,-0.39478,-0.389,1.145,-0.29
2026-06-14 22:00:43.610,3357983066,315609,1,0.8606,0.07886,0.63232,-0.137,2.26,-0.397
2026-06-14 22:00:43.610,3357983066,315609,2,0.93164,0.01416,-0.39404,-1.336,0.55,0.313
2026-06-14 22:00:44.857,3357984313,315857,1,0.85376,0.0791,0.64331,1.061,1.702,-0.481
2026-06-14 22:00:44.857,3357984313,315857,2,0.92798,0.0166,-0.4021,-2.351,0.084,-1.458
2026-06-14 22:00:44.068,3357983524,316068,1,0.8584,0.0813,0.63135,1.435,0.84,0.885
2026-06-14 22:00:44.068,3357983524,316068,2,0.9502,0.03003,-0.4104,0.038,0.901,-2.168
2026-06-14 22:00:44.268,3357983724,316268,1,0.87183,0.08057,0.63037,2.229,3.832,1.725
2026-06-14 22:00:44.268,3357983724,316268,2,0.91943,0.03149,-0.3999,0.656,-1.756,0.626
2026-06-14 22:00:44.514,3357983970,316514,1,0.86401,0.08203,0.62646,-0.878,-0.29,1.076
2026-06-14 22:00:44.514,3357983970,316514,2,0.9436,0.01636,-0.42505,-2.916,-2.221,1.733
2026-06-14 22:00:45.783,3357985239,316782,1,0.84619,0.07959,0.63574,0.519,3.328,1.412
2026-06-14 22:00:45.783,3357985239,316782,2,0.92017,0.0459,-0.42163,-2.076,-0.794,-1.489
2026-06-14 22:00:45.982,3357985438,316982,1,0.89209,0.07275,0.61572,1.023,0.214,-0.939
2026-06-14 22:00:45.982,3357985438,316982,2,0.93262,0.03076,-0.39453,12.435,11.076,-3.076
2026-06-14 22:00:45.182,3357984638,317182,1,0.8252,0.08447,0.65747,3.802,4.191,0.031
2026-06-14 22:00:45.182,3357984638,317182,2,0.95557,0.00464,-0.41602,4.008,-0.221,1.084
2026-06-14 22:00:45.466,3357984922,317466,1,0.8623,0.08276,0.63184,6.802,8.443,4.634
2026-06-14 22:00:45.466,3357984922,317466,2,0.93604,0.02979,-0.41333,1.817,4.55,-2.244
2026-06-14 22:00:45.720,3357985176,317720,1,0.87354,0.08496,0.62671,1.992,4.985,-2.099
2026-06-14 22:00:45.720,3357985176,317720,2,0.93213,0.0293,-0.39063,-3.733,5.099,0.244
2026-06-14 22:00:46.968,3357986424,317968,1,0.84521,0.11792,0.6438,10.229,2.977,5.573
2026-06-14 22:00:46.968,3357986424,317968,2,0.93213,0.05103,-0.39038,6.305,-1.695,-3.443
2026-06-14 22:00:46.259,3357985715,318259,1,0.8479,0.104,0.65234,5.878,2.969,3.344
2026-06-14 22:00:46.259,3357985715,318259,2,0.93994,0.05786,-0.38989,5.298,1.053,-6.649
2026-06-14 22:00:47.807,3357987263,318807,1,0.86035,0.1228,0.63672,1.855,3.191,1.702
2026-06-14 22:00:47.807,3357987263,318807,2,0.93701,0.03979,-0.39136,3.947,1.679,-4.176
2026-06-14 22:00:47.614,3357987070,319614,1,0.83154,0.15088,0.65479,24.725,6.229,12.466
2026-06-14 22:00:47.614,3357987070,319614,2,0.94604,0.11743,-0.34839,15.74,6.282,-12.435
2026-06-14 22:00:48.041,3357987497,320041,1,0.82129,0.19312,0.66333,3.511,4.382,0.58
2026-06-14 22:00:48.041,3357987497,320041,2,0.94995,0.13501,-0.35229,-9.519,0.595,3.779
2026-06-14 22:00:48.726,3357988182,320726,1,0.81909,0.17798,0.66162,-1.885,4.412,-1.679
2026-06-14 22:00:48.726,3357988182,320726,2,0.95068,0.11426,-0.34375,-6.58,1.038,2.641
2026-06-14 22:00:49.123,3357988579,321123,1,0.81006,0.1687,0.68286,0.099,1.473,0.763
2026-06-14 22:00:49.123,3357988579,321123,2,0.95264,0.08301,-0.3457,2.076,-3.603,-1.931
2026-06-14 22:00:49.394,3357988850,321394,1,0.80029,0.1687,0.71582,-10.389,-3.977,3.87
2026-06-14 22:00:49.394,3357988850,321394,2,0.91553,0.11475,-0.35205,-25.611,-10.099,10.191
2026-06-14 22:00:49.594,3357989050,321594,1,0.83228,0.18896,0.65698,-30.55,-8.427,-24.588
2026-06-14 22:00:49.594,3357989050,321594,2,0.94995,0.11523,-0.36475,-44.87,-9.481,24.534
2026-06-14 22:00:50.794,3357990250,321794,1,0.85791,0.17407,0.62012,-33.305,-4.084,-22.374
2026-06-14 22:00:50.794,3357990250,321794,2,0.92139,0.07935,-0.37891,-32.771,4.008,18.214
2026-06-14 22:00:50.035,3357989491,322035,1,0.85034,0.1731,0.62305,-43.092,-4.13,-25.779
2026-06-14 22:00:50.035,3357989491,322035,2,0.96094,0.06787,-0.4082,-44.847,3.786,24.634
2026-06-14 22:00:50.258,3357989714,322258,1,0.86353,0.1167,0.66626,-28.115,7.084,-14.0
2026-06-14 22:00:50.258,3357989714,322258,2,0.94897,0.02417,-0.34766,-16.115,7.13,10.015
2026-06-14 22:00:50.475,3357989931,322475,1,0.81519,0.13672,0.677,12.542,4.588,-1.168
2026-06-14 22:00:50.475,3357989931,322475,2,0.96021,0.04419,-0.31958,15.824,12.206,-10.565
2026-06-14 22:00:50.698,3357990154,322697,1,0.80127,0.16748,0.68628,23.809,1.58,15.626
2026-06-14 22:00:50.698,3357990154,322697,2,0.9248,0.04712,-0.29395,19.137,12.748,34.756
2026-06-14 22:00:51.201,3357990657,323201,1,0.68701,-0.24194,0.8125,16.389,5.519,25.344
2026-06-14 22:00:51.201,3357990657,323201,2,0.98975,0.08081,-0.26221,5.244,1.351,-10.435
2026-06-14 22:00:51.506,3357990962,323505,1,0.78027,0.08496,0.66016,16.641,-4.931,-13.496
2026-06-14 22:00:51.506,3357990962,323505,2,0.94214,0.0708,-0.31958,15.649,-9.084,-7.008
2026-06-14 22:00:52.955,3357992411,323955,1,0.79175,0.20728,0.70044,10.328,-3.985,3.023
2026-06-14 22:00:52.955,3357992411,323955,2,0.96265,0.07666,-0.33789,2.275,0.466,-6.969
2026-06-14 22:00:52.391,3357991847,324391,1,0.81714,0.22656,0.64185,9.176,3.084,0.473
2026-06-14 22:00:52.391,3357991847,324391,2,0.93555,0.11621,-0.33154,-12.473,4.092,7.366
2026-06-14 22:00:53.745,3357993201,324745,1,0.81396,0.22925,0.69189,-18.542,-1.588,-13.679
2026-06-14 22:00:53.745,3357993201,324745,2,0.97681,0.03931,-0.32861,-11.511,-0.71,12.168
2026-06-14 22:00:53.060,3357992516,325060,1,0.79688,0.13599,0.68506,-15.954,-0.038,-3.885
2026-06-14 22:00:53.060,3357992516,325060,2,0.9624,-0.01025,-0.33105,-10.435,-1.282,2.046
2026-06-14 22:00:53.316,3357992772,325316,1,0.81201,0.08789,0.68579,-0.626,4.214,1.74
2026-06-14 22:00:53.316,3357992772,325316,2,0.94019,-0.02319,-0.354,1.214,-2.931,-5.115
2026-06-14 22:00:53.581,3357993037,325581,1,0.81714,0.05762,0.7002,16.16,-0.328,11.328
2026-06-14 22:00:53.581,3357993037,325581,2,0.95923,0.01001,-0.36475,26.58,-0.153,-10.153
2026-06-14 22:00:54.800,3357994256,325800,1,0.84106,0.08374,0.65967,21.176,-4.908,14.084
2026-06-14 22:00:54.800,3357994256,325800,2,0.94775,0.01392,-0.38867,21.076,-1.015,-15.069
2026-06-14 22:00:54.032,3357993488,326032,1,0.83765,0.08667,0.64868,34.366,4.603,22.435
2026-06-14 22:00:54.032,3357993488,326032,2,0.96411,0.03711,-0.33716,37.13,14.435,-16.809
2026-06-14 22:00:54.308,3357993764,326308,1,0.84448,0.19873,0.64771,16.702,5.252,11.656
2026-06-14 22:00:54.308,3357993764,326308,2,0.96509,0.09741,-0.375,6.328,1.046,-3.328
2026-06-14 22:00:54.560,3357994016,326560,1,0.82764,0.21484,0.63867,6.817,1.534,-0.771
2026-06-14 22:00:54.560,3357994016,326560,2,0.94067,0.11157,-0.36963,-14.015,0.794,4.458
2026-06-14 22:00:55.808,3357995264,326808,1,0.8335,0.22949,0.63037,-6.13,0.931,-11.947
2026-06-14 22:00:55.808,3357995264,326808,2,0.9436,0.11621,-0.36987,-13.206,2.015,4.763
2026-06-14 22:00:55.084,3357994540,327083,1,0.8291,0.23218,0.6438,-10.275,5.237,-6.504
2026-06-14 22:00:55.084,3357994540,327083,2,0.96655,0.08252,-0.36279,-2.076,2.176,0.282
2026-06-14 22:00:55.332,3357994788,327332,1,0.80347,0.19702,0.66772,-0.137,3.237,5.397
2026-06-14 22:00:55.332,3357994788,327332,2,0.96387,0.07471,-0.32471,-5.122,-2.756,-5.26
2026-06-14 22:00:55.535,3357994991,327535,1,0.80151,0.13037,0.68652,2.214,-1.504,9.031
2026-06-14 22:00:55.535,3357994991,327535,2,0.9436,0.06909,-0.31519,-0.542,-3.939,-7.817
2026-06-14 22:00:55.735,3357995191,327735,1,0.8186,0.13574,0.68286,6.16,-2.489,5.847
2026-06-14 22:00:55.735,3357995191,327735,2,0.98364,0.09302,-0.35547,7.092,3.038,-6.42
2026-06-14 22:00:56.983,3357996439,327983,1,0.82886,0.12573,0.6731,-3.84,-0.168,-3.153
2026-06-14 22:00:56.983,3357996439,327983,2,0.95166,0.073,-0.34863,-6.221,-0.412,5.855
2026-06-14 22:00:56.183,3357995639,328183,1,0.83398,0.12939,0.66479,-6.244,3.183,-2.42
2026-06-14 22:00:56.183,3357995639,328183,2,0.94702,0.07837,-0.35596,2.656,0.924,6.122
2026-06-14 22:00:56.383,3357995839,328383,1,0.82178,0.16211,0.65356,-3.58,3.649,-3.252
2026-06-14 22:00:56.383,3357995839,328383,2,0.93604,0.1106,-0.35229,2.359,6.618,8.145
2026-06-14 22:00:56.632,3357996088,328632,1,0.91113,0.22388,0.63696,-17.885,7.74,-4.275
2026-06-14 22:00:56.632,3357996088,328632,2,0.91162,0.0979,-0.34644,-16.137,5.031,13.756
2026-06-14 22:00:57.872,3357997328,328872,1,0.81055,0.16162,0.65894,-5.977,5.221,-7.939
2026-06-14 22:00:57.872,3357997328,328872,2,0.94482,0.05664,-0.30298,-27.221,-3.107,11.496
2026-06-14 22:00:57.072,3357996528,329072,1,0.82959,0.15723,0.70801,-6.58,-1.405,0.901
2026-06-14 22:00:57.072,3357996528,329072,2,0.93164,0.1333,-0.37183,2.611,1.924,5.229
2026-06-14 22:00:57.272,3357996728,329272,1,0.97681,0.25,0.6272,-25.824,15.672,-15.626
2026-06-14 22:00:57.272,3357996728,329272,2,0.96899,0.00439,-0.26343,-38.053,20.557,16.893
2026-06-14 22:00:57.591,3357997047,329591,1,0.75684,0.06885,0.72656,-35.336,13.931,-26.45
2026-06-14 22:00:57.591,3357997047,329591,2,1.03833,-0.11646,-0.22192,-36.779,12.809,19.214
2026-06-14 22:00:58.003,3357997459,330003,1,0.5708,-0.02051,0.89795,33.702,1.802,15.603
2026-06-14 22:00:58.003,3357997459,330003,2,0.97998,-0.11938,-0.16064,12.565,-21.824,-36.718
2026-06-14 22:00:58.232,3357997688,330232,1,0.66675,0.27173,0.77417,60.458,-22.519,61.634
2026-06-14 22:00:58.232,3357997688,330232,2,0.94971,0.06006,-0.3855,35.229,-24.847,-17.573
2026-06-14 22:00:59.908,3357999364,330908,1,1.17334,0.19238,0.43994,-32.405,-2.015,-44.763
2026-06-14 22:00:59.908,3357999364,330908,2,1.08472,0.06128,-0.24414,-40.664,78.847,42.985
2026-06-14 22:00:59.244,3357998700,331244,1,0.73389,0.19482,0.81348,-58.336,27.305,-56.298
2026-06-14 22:00:59.244,3357998700,331244,2,0.95093,-0.00708,-0.27759,-56.473,17.221,39.0
2026-06-14 22:00:59.444,3357998900,331444,1,0.54272,0.18604,0.85742,-50.756,17.389,-22.817
2026-06-14 22:00:59.444,3357998900,331444,2,1.02002,0.00928,-0.13867,-17.214,-18.214,-12.611
2026-06-14 22:00:59.644,3357999100,331644,1,0.73584,0.1709,0.81689,8.366,-10.656,-8.718
2026-06-14 22:00:59.644,3357999100,331644,2,1.02734,0.08618,-0.2666,-15.427,-1.382,5.656
2026-06-14 22:01:00.966,3358000422,331965,1,0.74341,0.17822,0.79785,1.221,-0.328,-24.046
2026-06-14 22:01:00.966,3358000422,331965,2,1.00269,0.07617,-0.31641,15.336,-2.397,-13.969
2026-06-14 22:01:00.243,3357999699,332243,1,0.81323,0.22998,0.71094,23.725,0.779,11.13
2026-06-14 22:01:00.243,3357999699,332243,2,0.93726,0.0896,-0.34741,23.992,-7.359,4.557
2026-06-14 22:01:00.458,3357999914,332458,1,0.79028,0.13892,0.72534,-24.069,-9.595,38.099
2026-06-14 22:01:00.458,3357999914,332458,2,0.94849,-0.09961,-0.35498,-13.534,-3.565,29.328
2026-06-14 22:01:01.832,3358001288,332832,1,0.82642,-0.17358,0.70313,21.687,18.229,20.366
2026-06-14 22:01:01.832,3358001288,332832,2,0.90088,0.06396,-0.38892,49.557,-25.137,-18.809
2026-06-14 22:01:01.173,3358000629,333173,1,0.71851,0.29126,0.78931,39.198,13.718,22.267
2026-06-14 22:01:01.173,3358000629,333173,2,0.99707,0.10229,-0.20728,23.336,1.366,-17.679
2026-06-14 22:01:01.373,3358000829,333373,1,0.71387,0.18311,0.76538,29.885,-0.237,30.229
2026-06-14 22:01:01.373,3358000829,333373,2,0.99878,0.12573,-0.29297,62.649,10.244,-38.015
2026-06-14 22:01:02.782,3358002238,333781,1,0.75854,0.3584,0.70044,49.45,17.527,36.16
2026-06-14 22:01:02.782,3358002238,333781,2,0.96973,0.18896,-0.2832,-40.076,-24.847,-5.603
2026-06-14 22:01:02.333,3358001789,334333,1,0.80029,0.23779,0.72461,10.107,-1.115,2.397
2026-06-14 22:01:02.333,3358001789,334333,2,1.01245,0.2207,-0.29077,-22.947,-6.641,13.573
2026-06-14 22:01:02.559,3358002015,334559,1,0.73145,0.26782,0.729,-33.206,-9.763,-21.58
2026-06-14 22:01:02.559,3358002015,334559,2,0.97192,0.10815,-0.34229,-48.45,-16.115,49.771
2026-06-14 22:01:03.954,3358003410,334954,1,0.80054,-0.01733,0.68628,-49.244,-4.008,-12.916
2026-06-14 22:01:03.954,3358003410,334954,2,0.96387,-0.07886,-0.33228,-9.275,4.832,20.008
2026-06-14 22:01:03.316,3358002772,335316,1,0.74316,0.01978,0.75732,1.305,6.26,11.786
2026-06-14 22:01:03.316,3358002772,335316,2,0.9646,0.01978,-0.35522,13.534,-9.534,-11.832
2026-06-14 22:01:04.950,3358004406,335950,1,0.82324,-0.03735,0.69116,12.214,-3.084,5.115
2026-06-14 22:01:04.950,3358004406,335950,2,0.94946,0.05591,-0.37598,3.908,-0.992,-13.084
2026-06-14 22:01:04.382,3358003838,336382,1,0.81421,0.02051,0.70117,4.695,5.061,-6.603
2026-06-14 22:01:04.382,3358003838,336382,2,0.9585,0.0481,-0.36426,-10.26,4.107,4.824
2026-06-14 22:01:05.787,3358005243,336787,1,0.80347,0.00806,0.71704,-3.29,5.076,-2.061
2026-06-14 22:01:05.787,3358005243,336787,2,0.96777,-0.00757,-0.35742,-3.847,-1.084,8.687
2026-06-14 22:01:05.161,3358004617,337161,1,0.76611,-0.02759,0.72754,-8.893,-3.145,-7.733
2026-06-14 22:01:05.161,3358004617,337161,2,0.93701,-0.04517,-0.3623,-14.038,-7.366,9.046
2026-06-14 22:01:05.361,3358004817,337361,1,0.8335,-0.03125,0.67725,-6.107,-1.015,-7.58
2026-06-14 22:01:05.361,3358004817,337361,2,0.95703,0.00098,-0.34937,17.847,8.824,-16.321
2026-06-14 22:01:06.986,3358006442,337986,1,0.84277,0.12134,0.67407,8.725,3.084,2.824
2026-06-14 22:01:06.986,3358006442,337986,2,0.9812,0.10645,-0.33301,18.939,13.305,-15.542
2026-06-14 22:01:06.220,3358005676,338220,1,0.80835,0.1731,0.68945,8.565,5.489,0.374
2026-06-14 22:01:06.220,3358005676,338220,2,0.96851,0.08936,-0.32349,2.74,3.351,-7.282
2026-06-14 22:01:06.420,3358005876,338420,1,0.79883,0.12671,0.68726,13.656,3.321,5.176
2026-06-14 22:01:06.420,3358005876,338420,2,0.9751,0.08936,-0.29199,12.802,5.756,-16.092
2026-06-14 22:01:06.624,3358006080,338624,1,0.80591,0.1394,0.71436,14.099,0.916,8.84
2026-06-14 22:01:06.624,3358006080,338624,2,0.97559,0.10327,-0.32056,5.718,-2.687,-7.718
2026-06-14 22:01:07.841,3358007297,338841,1,0.79053,0.12939,0.71045,-1.351,1.656,2.771
2026-06-14 22:01:07.841,3358007297,338841,2,0.97192,0.07935,-0.32813,-6.511,3.893,0.756
2026-06-14 22:01:07.122,3358006578,339122,1,0.80884,0.06616,0.698,-14.55,5.031,3.786
