datetime,epoch_ms,ts_millis,mpu_id,ax,ay,az,gx,gy,gz
2026-06-15T00:04:34.099419,,,,,,,,,
2026-06-15 00:04:35.302,3365414758,7302,1,0.87598,0.04492,0.64746,31.267,-6.588,27.26
2026-06-15 00:04:35.302,3365414758,7302,2,0.99487,0.0813,0.25146,28.397,2.878,3.137
2026-06-15 00:04:35.692,3365415148,7692,1,0.83521,0.0415,0.61743,14.13,4.817,-0.55
2026-06-15 00:04:35.692,3365415148,7692,2,1.05493,0.0437,0.27637,8.672,0.878,2.855
2026-06-15 00:04:36.023,3365415479,8023,1,0.854,-0.02563,0.63257,-4.847,-1.557,-1.382
2026-06-15 00:04:36.023,3365415479,8023,2,1.01245,0.09863,0.28101,-0.069,6.656,1.908
2026-06-15 00:04:36.533,3365415989,8533,1,0.86768,-0.02612,0.62183,-3.267,0.29,-6.115
2026-06-15 00:04:36.533,3365415989,8533,2,1.06665,0.0498,0.29932,-31.458,-14.267,-5.947
2026-06-15 00:04:36.775,3365416231,8775,1,0.84863,0.04614,0.61523,12.206,-19.962,2.45
2026-06-15 00:04:36.775,3365416231,8775,2,1.30273,-0.07275,0.2063,-38.565,-50.992,11.878
2026-06-15 00:04:37.975,3365417431,8975,1,0.94092,-0.00293,0.47852,6.511,10.412,1.664
2026-06-15 00:04:37.975,3365417431,8975,2,1.07153,0.07349,0.06006,-0.168,-0.458,6.443
2026-06-15 00:04:37.247,3365416703,9247,1,0.92847,-0.0061,0.56201,-9.809,3.557,-0.718
2026-06-15 00:04:37.247,3365416703,9247,2,1.05444,0.00073,0.27222,14.42,6.87,0.695
2026-06-15 00:04:37.447,3365416903,9447,1,0.91943,0.05884,0.5481,-15.603,-11.382,-5.756
2026-06-15 00:04:37.447,3365416903,9447,2,1.08569,0.01025,0.21704,-15.298,-5.634,7.84
2026-06-15 00:04:37.738,3365417194,9738,1,0.93237,-0.021,0.48804,-14.26,1.55,-0.595
2026-06-15 00:04:37.738,3365417194,9738,2,1.05322,-0.01831,0.22412,-9.107,-3.305,-0.099
2026-06-15 00:04:38.963,3365418419,9963,1,0.95215,-0.05762,0.48901,-3.13,2.244,-1.45
2026-06-15 00:04:38.963,3365418419,9963,2,1.07275,-0.04834,0.21826,12.832,5.527,0.183
2026-06-15 00:04:38.211,3365417667,10211,1,0.93628,-0.02832,0.48584,10.397,5.435,2.809
2026-06-15 00:04:38.211,3365417667,10211,2,1.0127,-0.02515,0.2478,-0.115,3.733,1.137
2026-06-15 00:04:38.574,3365418030,10574,1,0.94507,-0.06104,0.50732,0.672,1.267,1.084
2026-06-15 00:04:38.574,3365418030,10574,2,1.06152,-0.0459,0.25659,15.206,-3.008,1.595
2026-06-15 00:04:39.910,3365419366,10910,1,0.93457,0.02222,0.50244,20.718,5.626,7.45
2026-06-15 00:04:39.910,3365419366,10910,2,1.06152,0.03223,0.20996,17.992,10.076,2.305
2026-06-15 00:04:39.165,3365418621,11165,1,0.90088,0.02002,0.55615,-10.634,0.611,-3.473
2026-06-15 00:04:39.165,3365418621,11165,2,1.05566,0.01123,0.24365,-9.634,3.069,1.519
2026-06-15 00:04:39.451,3365418907,11451,1,0.91528,-0.08179,0.51367,-7.58,5.473,-12.779
2026-06-15 00:04:39.451,3365418907,11451,2,1.03955,-0.05737,0.27808,-7.817,2.695,-3.427
2026-06-15 00:04:39.744,3365419200,11743,1,0.92456,-0.01782,0.51587,-0.099,2.664,-3.313
2026-06-15 00:04:39.744,3365419200,11743,2,1.05127,-0.05371,0.25732,-0.26,2.336,-3.504
2026-06-15 00:04:40.983,3365420439,11983,1,0.90479,-0.00952,0.53149,-3.71,4.779,-5.511
2026-06-15 00:04:40.983,3365420439,11983,2,1.03442,-0.05273,0.26099,-15.405,-3.71,-10.504
2026-06-15 00:04:40.360,3365419816,12360,1,0.91846,0.00562,0.53442,9.244,1.954,8.328
2026-06-15 00:04:40.360,3365419816,12360,2,1.0542,0.00464,0.22021,-4.855,-0.305,-3.618
2026-06-15 00:04:40.633,3365420089,12633,1,0.91406,0.00342,0.53467,5.504,1.053,3.534
2026-06-15 00:04:40.633,3365420089,12633,2,1.05615,-0.00977,0.22656,2.847,0.84,-1.046
2026-06-15 00:04:40.833,3365420289,12833,1,0.92334,-0.00195,0.53271,5.931,-0.107,2.954
2026-06-15 00:04:40.833,3365420289,12833,2,1.06128,-0.00537,0.22241,4.115,2.328,-0.282
2026-06-15 00:04:41.033,3365420489,13033,1,0.92407,0.00146,0.51514,3.183,4.176,0.939
2026-06-15 00:04:41.033,3365420489,13033,2,1.06201,-0.0022,0.23389,4.771,2.901,0.641
2026-06-15 00:04:41.345,3365420801,13345,1,0.9248,-0.00879,0.52588,1.099,0.893,0.733
2026-06-15 00:04:41.345,3365420801,13345,2,1.04736,-0.00366,0.24365,-2.115,0.87,-3.092
2026-06-15 00:04:41.576,3365421032,13575,1,0.93042,0.00781,0.52148,1.763,0.641,0.214
2026-06-15 00:04:41.576,3365421032,13575,2,1.04907,-0.00513,0.23145,0.305,1.702,-1.779
2026-06-15 00:04:41.796,3365421252,13796,1,0.92627,0.01147,0.51709,0.168,-1.198,-0.321
2026-06-15 00:04:41.796,3365421252,13796,2,1.052,-0.00171,0.23047,2.305,2.023,0.504
2026-06-15 00:04:42.996,3365422452,13996,1,0.93237,0.00146,0.50342,-0.885,1.504,0.626
2026-06-15 00:04:42.996,3365422452,13996,2,1.052,-0.00513,0.23535,1.382,1.87,1.031
2026-06-15 00:04:42.264,3365421720,14263,1,0.93872,0.00269,0.49756,-1.55,3.87,0.374
2026-06-15 00:04:42.264,3365421720,14263,2,1.05786,-0.01196,0.22754,-2.466,2.282,-0.603
2026-06-15 00:04:42.494,3365421950,14493,1,0.92896,-0.00098,0.51538,-1.031,5.206,0.595
2026-06-15 00:04:42.494,3365421950,14493,2,1.05176,-0.00586,0.23267,-0.947,1.427,-0.87
2026-06-15 00:04:42.755,3365422211,14755,1,0.92871,-0.0022,0.52686,1.313,4.053,0.809
2026-06-15 00:04:42.755,3365422211,14755,2,1.04688,-0.00366,0.24316,3.351,3.595,-1.115
2026-06-15 00:04:43.955,3365423411,14955,1,0.92773,0.00513,0.51831,1.366,2.443,-0.198
2026-06-15 00:04:43.955,3365423411,14955,2,1.05835,-0.00781,0.24438,0.046,3.863,-0.656
2026-06-15 00:04:43.202,3365422658,15202,1,0.93335,-0.00244,0.52173,-0.443,4.351,-0.206
2026-06-15 00:04:43.202,3365422658,15202,2,1.0542,-0.00488,0.25049,-4.336,0.183,-1.55
2026-06-15 00:04:43.408,3365422864,15408,1,0.9165,-0.0022,0.5332,-0.244,5.542,-0.359
2026-06-15 00:04:43.408,3365422864,15408,2,1.04224,,0.25879,-3.084,2.26,-1.427
2026-06-15 00:04:43.671,3365423127,15671,1,0.91895,-0.00781,0.53271,-2.053,2.298,-2.244
2026-06-15 00:04:43.671,3365423127,15671,2,1.04761,-0.00781,0.24731,-1.069,1.038,-0.55
2026-06-15 00:04:44.904,3365424360,15904,1,0.92358,0.00073,0.54102,0.542,0.702,-1.237
2026-06-15 00:04:44.904,3365424360,15904,2,1.05298,-0.00195,0.24072,-0.504,2.038,-1.076
2026-06-15 00:04:44.104,3365423560,16104,1,0.92944,0.00293,0.53125,0.328,1.924,-0.389
2026-06-15 00:04:44.104,3365423560,16104,2,1.04761,,0.25732,1.534,2.618,-1.389
2026-06-15 00:04:44.304,3365423760,16304,1,0.9292,0.00806,0.53198,3.29,4.779,1.542
2026-06-15 00:04:44.304,3365423760,16304,2,1.052,-0.00049,0.24585,11.015,7.008,2.0
2026-06-15 00:04:44.504,3365423960,16504,1,0.90942,0.0105,0.54712,2.168,3.664,2.84
2026-06-15 00:04:44.504,3365423960,16504,2,1.04541,0.00708,0.25562,1.824,2.16,-0.443
2026-06-15 00:04:44.704,3365424160,16704,1,0.91113,0.00513,0.53809,-0.534,0.435,1.076
2026-06-15 00:04:44.704,3365424160,16704,2,1.05811,0.0083,0.25781,3.29,3.168,1.405
2026-06-15 00:04:45.904,3365425360,16904,1,0.91821,0.00098,0.54321,2.214,3.489,-8.45
2026-06-15 00:04:45.904,3365425360,16904,2,1.01147,0.01172,0.34546,4.817,7.878,0.221
2026-06-15 00:04:45.104,3365424560,17104,1,0.9209,0.0022,0.53052,1.344,-0.145,1.641
2026-06-15 00:04:45.104,3365424560,17104,2,1.04272,0.00342,0.25269,5.305,-0.122,-1.183
2026-06-15 00:04:45.304,3365424760,17304,1,0.92139,0.03003,0.52515,12.718,0.725,3.756
2026-06-15 00:04:45.304,3365424760,17304,2,1.06128,0.0249,0.26587,17.351,-2.687,-1.031
2026-06-15 00:04:45.504,3365424960,17504,1,0.9458,0.0542,0.5603,7.191,8.084,1.023
2026-06-15 00:04:45.504,3365424960,17504,2,1.06812,0.00635,0.27441,2.0,-2.908,0.366
2026-06-15 00:04:45.704,3365425160,17704,1,0.96362,-0.02783,0.52271,0.427,4.794,2.008
2026-06-15 00:04:45.704,3365425160,17704,2,1.03247,-0.06738,0.2124,-14.817,11.0,-6.824
2026-06-15 00:04:46.904,3365426360,17904,1,0.9248,-0.0332,0.50269,-1.695,7.58,5.206
2026-06-15 00:04:46.904,3365426360,17904,2,1.17334,-0.03149,0.28101,37.114,-1.58,15.328
2026-06-15 00:04:46.125,3365425581,18125,1,0.95435,0.02417,0.53906,4.336,-2.939,-8.74
2026-06-15 00:04:46.125,3365425581,18125,2,1.06348,-0.00928,0.38257,9.908,6.344,10.511
2026-06-15 00:04:46.325,3365425781,18325,1,0.86841,0.00977,0.58301,1.534,-1.74,4.557
2026-06-15 00:04:46.325,3365425781,18325,2,1.03564,0.03442,0.35034,4.595,-0.855,2.069
2026-06-15 00:04:46.526,3365425982,18526,1,0.87671,0.0437,0.59937,2.573,-2.031,5.481
2026-06-15T00:04:45.713379,,,,,,,,,
2026-06-15 00:04:46.526,3365425982,18526,2,1.07202,0.03174,0.25024,-10.26,-8.16,-6.16
2026-06-15 00:04:46.758,3365426214,18758,1,0.88452,0.08423,0.54468,-10.672,0.252,-3.397
2026-06-15 00:04:46.758,3365426214,18758,2,1.01489,0.09351,0.19019,-11.786,8.023,-4.626
2026-06-15 00:04:47.968,3365427424,18968,1,0.89063,0.03955,0.53638,-8.725,6.115,-2.656
2026-06-15 00:04:47.968,3365427424,18968,2,1.11011,-0.07813,0.2749,-44.412,-29.053,-9.244
2026-06-15 00:04:47.183,3365426639,19183,1,0.91357,-0.06519,0.53735,-25.107,0.565,-10.206
2026-06-15 00:04:47.183,3365426639,19183,2,1.0957,0.01636,0.27075,-34.634,1.649,-13.817
2026-06-15 00:04:47.408,3365426864,19408,1,0.90088,-0.10986,0.58032,-23.076,-0.137,-17.565
2026-06-15 00:04:47.408,3365426864,19408,2,1.03369,-0.15283,0.18262,-7.496,9.542,3.786
2026-06-15 00:04:47.408,3365426864,19408,2,1.03369,-0.15283,0.18262,-7.496,9.542,3.786
2026-06-15 00:04:52.578,3365432034,24577,1,0.92017,0.00977,0.53076,-1.473,3.16,
2026-06-15 00:04:52.578,3365432034,24577,2,1.05054,0.0437,0.26318,0.527,4.115,0.176
2026-06-15 00:04:52.777,3365432233,24777,1,0.94043,0.09351,0.53687,-23.504,4.336,-9.496
2026-06-15 00:04:52.777,3365432233,24777,2,1.05981,0.10596,0.23535,-45.763,2.008,-3.366
2026-06-15 00:04:53.985,3365433441,24985,1,0.91968,0.08813,0.53516,-73.656,12.473,-28.641
2026-06-15 00:04:53.985,3365433441,24985,2,1.04712,-0.04395,0.30835,-60.832,34.275,4.939
2026-06-15 00:04:53.185,3365432641,25185,1,0.90308,-0.26685,0.49121,-65.74,7.702,-26.74
2026-06-15 00:04:53.185,3365432641,25185,2,0.96631,0.31494,0.16187,72.405,1.427,10.809
2026-06-15 00:04:58.479,3365437935,30479,1,0.93091,0.00439,0.49927,12.191,1.672,6.802
2026-06-15 00:04:58.479,3365437935,30479,2,1.06836,0.08325,0.25513,31.679,15.267,10.145
2026-06-15 00:05:04.529,3365443985,36529,1,0.85522,-0.00903,0.63257,3.198,-0.527,-1.626
2026-06-15 00:05:04.529,3365443985,36529,2,0.35205,0.229,1.01733,5.221,8.153,3.855
2026-06-15 00:05:07.856,3365447312,39856,1,-0.03516,-0.11938,1.03882,0.672,6.008,-2.649
2026-06-15 00:05:07.856,3365447312,39856,2,0.31201,0.21802,1.04663,-0.664,2.962,-0.802
2026-06-15 00:05:08.135,3365447591,40135,1,-0.04565,-0.10181,1.05127,3.74,3.954,0.198
2026-06-15 00:05:08.135,3365447591,40135,2,0.3374,0.24146,1.03223,4.534,-0.015,1.397
2026-06-15 00:05:08.585,3365448041,40585,1,-0.02246,-0.07446,1.02759,-0.496,3.87,0.45
2026-06-15 00:05:08.585,3365448041,40585,2,0.31958,0.24268,1.04297,1.229,3.641,0.366
2026-06-15 00:05:09.937,3365449393,40937,1,-0.04077,-0.06958,1.04639,-0.443,0.344,2.183
2026-06-15 00:05:09.937,3365449393,40937,2,0.3252,0.24146,1.03882,0.122,-0.817,3.046
2026-06-15 00:05:09.218,3365448674,41218,1,-0.01245,-0.09326,1.06152,0.924,4.168,2.84
2026-06-15 00:05:09.218,3365448674,41218,2,0.3418,0.22046,1.00684,2.786,-1.26,5.565
2026-06-15 00:05:09.418,3365448874,41418,1,-0.02661,-0.0874,1.07959,0.229,0.672,1.489
2026-06-15 00:05:09.418,3365448874,41418,2,0.38721,0.2749,1.09009,-2.885,-11.58,3.191
2026-06-15 00:05:09.620,3365449076,41620,1,-0.08789,-0.11694,1.24756,11.885,-28.519,-5.076
2026-06-15 00:05:09.620,3365449076,41620,2,0.95142,-0.10742,0.44312,-6.947,-15.458,12.069
2026-06-15 00:05:11.930,3365451386,42930,1,0.8833,-0.01489,0.58789,20.237,1.702,13.275
2026-06-15 00:05:11.930,3365451386,42930,2,0.99707,0.04907,0.28906,-7.84,2.023,-9.443
2026-06-15 00:05:11.340,3365450796,43340,1,0.91602,0.03711,0.62793,-14.756,-2.214,-13.29
2026-06-15 00:05:11.340,3365450796,43340,2,1.05151,0.16016,0.31519,65.229,39.038,-0.733
2026-06-15 00:05:13.726,3365453182,45726,1,0.88208,-0.02661,0.59595,-0.809,4.145,-3.099
2026-06-15 00:05:13.726,3365453182,45726,2,1.0293,-0.04956,0.33813,-3.863,2.069,-3.252
2026-06-15 00:05:14.104,3365453560,46104,1,0.90137,-0.02881,0.57153,-0.756,-5.916,4.954
2026-06-15 00:05:14.104,3365453560,46104,2,1.04199,-0.07983,0.3147,-1.405,2.893,-1.344
2026-06-15 00:05:14.361,3365453817,46361,1,0.90454,-0.02637,0.56201,-1.687,4.107,-2.351
2026-06-15 00:05:14.361,3365453817,46361,2,1.05688,-0.06006,0.31177,-2.504,5.107,-6.374
2026-06-15 00:05:14.719,3365454175,46719,1,0.88647,-0.00757,0.59448,2.908,1.122,4.924
2026-06-15 00:05:14.719,3365454175,46719,2,1.04224,-0.01831,0.28638,3.534,1.931,-0.878
2026-06-15 00:05:17.931,3365457387,48931,1,0.89844,-0.00635,0.58423,-0.595,3.939,-1.16
2026-06-15 00:05:17.931,3365457387,48931,2,1.03809,-0.01733,0.28931,1.565,2.321,-0.374
2026-06-15 00:05:17.131,3365456587,49131,1,0.88965,-0.01636,0.58081,-0.221,1.244,0.397
2026-06-15 00:05:17.131,3365456587,49131,2,1.04395,-0.02466,0.28564,-0.046,0.756,0.252
2026-06-15 00:05:17.586,3365457042,49586,1,0.89453,-0.00024,0.56641,0.191,2.191,-0.053
2026-06-15 00:05:17.586,3365457042,49586,2,1.05322,-0.02319,0.29272,1.611,3.519,1.267
2026-06-15 00:05:17.827,3365457283,49827,1,0.90503,-0.00732,0.56934,-0.885,6.298,0.336
2026-06-15 00:05:17.827,3365457283,49827,2,1.05151,-0.03638,0.28833,2.336,4.023,-0.931
2026-06-15 00:05:18.188,3365457644,50188,1,0.89819,-0.02344,0.57593,2.649,4.969,0.351
2026-06-15 00:05:18.188,3365457644,50188,2,1.0415,-0.02563,0.32227,9.061,11.321,-3.809
2026-06-15 00:05:18.436,3365457892,50436,1,0.96436,-0.00122,0.56665,2.084,39.473,2.015
2026-06-15 00:05:18.436,3365457892,50436,2,1.06958,0.06812,0.38501,-55.733,49.672,-43.733
2026-06-15 00:05:19.889,3365459345,50889,1,0.13062,-0.06299,0.95728,-8.611,105.626,-0.939
2026-06-15 00:05:19.889,3365459345,50889,2,0.55054,0.19849,0.97144,11.313,76.924,-31.473
2026-06-15 00:05:19.129,3365458585,51129,1,-0.19287,-0.01709,1.17358,10.634,62.405,4.565
2026-06-15 00:05:19.129,3365458585,51129,2,0.35962,0.33594,1.00391,-1.977,44.931,-20.221
2026-06-15 00:05:19.429,3365458885,51429,1,-0.35669,0.00513,1.06079,3.893,16.969,4.626
2026-06-15 00:05:19.429,3365458885,51429,2,0.21509,0.30298,1.09204,-3.0,5.695,-6.519
2026-06-15 00:05:19.643,3365459099,51643,1,-0.34351,0.06519,0.98999,-14.969,10.595,-1.435
2026-06-15 00:05:19.643,3365459099,51643,2,0.17432,0.31641,1.04468,-1.206,6.931,2.427
2026-06-15 00:05:20.129,3365459585,52129,1,-0.34644,-0.01416,0.99341,-2.893,3.565,-0.023
2026-06-15 00:05:20.129,3365459585,52129,1,-0.34644,-0.01416,0.99341,-2.893,3.565,-0.023
2026-06-15 00:05:20.129,3365459585,52129,2,0.16382,0.27026,1.05688,-0.359,1.924,-1.901
2026-06-15 00:05:25.329,3365464785,57328,1,-0.3291,-0.04761,0.99146,1.168,2.023,0.504
2026-06-15 00:05:25.329,3365464785,57328,2,0.16846,0.27539,1.05786,0.824,1.206,0.29
2026-06-15 00:05:25.528,3365464984,57528,1,-0.34106,-0.0481,0.98438,0.565,3.038,0.748
2026-06-15 00:05:25.528,3365464984,57528,2,1.01831,-0.04419,0.26489,-2.626,7.115,-2.557
2026-06-15 00:05:28.235,3365467691,60235,1,0.95752,0.06982,0.53882,-10.588,-5.87,-0.794
2026-06-15 00:05:28.235,3365467691,60235,2,1.05396,-0.09668,0.2854,-4.473,-0.275,-1.29
2026-06-15 00:05:28.488,3365467944,60488,1,0.93774,0.052,0.52954,0.947,0.74,-0.496
2026-06-15 00:05:28.488,3365467944,60488,2,1.0249,-0.05444,0.29932,-0.443,2.588,-0.412
2026-06-15 00:05:28.699,3365468155,60699,1,0.91992,0.08203,0.50879,-3.672,5.924,0.534
2026-06-15 00:05:28.699,3365468155,60699,2,1.02295,-0.08521,0.28516,0.084,15.702,7.107
2026-06-15 00:05:29.899,3365469355,60899,1,0.96899,0.06567,0.50659,-14.214,10.382,-0.855
2026-06-15 00:05:29.899,3365469355,60899,2,1.02515,-0.08813,0.36279,-19.878,6.603,-3.878
2026-06-15 00:05:29.099,3365468555,61099,1,0.91846,0.02808,0.54443,-12.794,5.443,-5.168
2026-06-15 00:05:29.099,3365468555,61099,2,1.02612,-0.10938,0.35107,-7.756,1.015,-3.763
2026-06-15 00:05:29.309,3365468765,61309,1,0.9126,0.01123,0.55542,-5.55,9.405,0.29
2026-06-15 00:05:29.309,3365468765,61309,2,1.01099,-0.08569,0.37744,-2.328,2.389,2.519
2026-06-15 00:05:29.638,3365469094,61637,1,0.89185,-0.00562,0.59277,-2.595,2.099,-1.855
2026-06-15 00:05:29.638,3365469094,61637,2,1.00879,-0.08984,0.38452,-1.168,-3.924,-4.702
2026-06-15 00:05:30.926,3365470382,61926,1,0.90186,0.03662,0.58032,1.084,6.863,-2.458
2026-06-15 00:05:30.926,3365470382,61926,2,1.03687,-0.08447,0.36426,-2.321,3.099,-3.504
2026-06-15 00:05:30.195,3365469651,62195,1,0.88452,0.02173,0.58032,1.771,3.588,0.008
2026-06-15 00:05:30.195,3365469651,62195,2,1.03784,-0.05396,0.35571,5.466,2.359,0.588
2026-06-15 00:05:30.395,3365469851,62395,1,0.88696,0.02124,0.59009,2.244,2.74,0.985
2026-06-15 00:05:30.395,3365469851,62395,2,1.0332,-0.05908,0.33716,3.084,3.374,
2026-06-15 00:05:30.595,3365470051,62595,1,0.89282,0.02026,0.58667,4.779,0.389,2.267
2026-06-15 00:05:30.595,3365470051,62595,2,1.00952,-0.07227,0.35498,3.214,2.748,-2.58
2026-06-15 00:05:31.050,3365470506,63050,1,0.90259,0.04053,0.5769,-0.046,2.626,-0.641
2026-06-15 00:05:31.050,3365470506,63050,2,1.03345,-0.0835,0.34229,3.008,3.527,0.893
2026-06-15 00:05:32.434,3365471890,64434,1,0.896,0.02759,0.57397,-0.16,0.473,-1.008
2026-06-15 00:05:32.434,3365471890,64434,2,1.02637,-0.07739,0.34937,-1.504,2.786,-0.435
2026-06-15 00:05:32.748,3365472204,64748,1,0.90625,0.00659,0.55298,-1.389,0.557,-0.435
2026-06-15 00:05:32.748,3365472204,64748,2,1.01953,-0.07056,0.34229,0.344,2.153,-1.298
2026-06-15 00:05:33.948,3365473404,64948,1,0.90601,0.02148,0.56372,0.863,2.282,1.084
2026-06-15 00:05:33.948,3365473404,64948,2,1.03687,-0.08032,0.34766,-3.855,0.885,-2.58
2026-06-15 00:05:33.156,3365472612,65156,1,0.90723,0.01733,0.56177,-0.237,1.687,0.618
2026-06-15 00:05:33.156,3365472612,65156,2,1.02881,-0.0769,0.35889,0.382,1.389,0.092
2026-06-15 00:05:33.356,3365472812,65356,1,0.91235,0.01929,0.54102,0.137,0.87,0.855
2026-06-15 00:05:33.356,3365472812,65356,2,1.03491,-0.08301,0.34814,0.244,1.84,0.527
2026-06-15 00:05:33.556,3365473012,65556,1,0.91309,0.02124,0.56494,0.427,2.947,0.908
2026-06-15 00:05:33.556,3365473012,65556,2,1.02393,-0.07178,0.35571,0.13,1.252,-1.603
2026-06-15 00:05:33.756,3365473212,65756,1,0.90942,0.01538,0.55884,1.0,2.595,0.397
2026-06-15 00:05:33.756,3365473212,65756,2,1.02344,-0.07935,0.35376,0.908,1.885,0.397
2026-06-15 00:05:34.956,3365474412,65956,1,0.90601,0.01489,0.55469,0.489,2.359,-0.115
2026-06-15 00:05:34.956,3365474412,65956,2,1.02441,-0.08179,0.35498,0.656,2.756,0.092
2026-06-15 00:05:34.301,3365473757,66301,1,0.90796,0.00854,0.5625,0.359,1.511,0.496
2026-06-15 00:05:34.301,3365473757,66301,2,1.0249,-0.08057,0.35229,-0.321,1.344,-1.267
2026-06-15 00:05:34.512,3365473968,66512,1,0.90869,0.01758,0.55273,0.656,2.031,0.046
2026-06-15 00:05:34.512,3365473968,66512,2,1.02197,-0.07764,0.37598,0.084,1.122,-0.611
2026-06-15 00:05:34.712,3365474168,66712,1,0.90991,0.01611,0.55713,1.206,2.473,0.611
2026-06-15 00:05:34.712,3365474168,66712,2,1.03345,-0.07666,0.35547,-0.191,0.656,-0.298
2026-06-15 00:05:35.912,3365475368,66912,1,0.90869,0.01489,0.5459,1.053,3.779,1.29
2026-06-15 00:05:35.912,3365475368,66912,2,1.0249,-0.08569,0.35303,-1.924,0.916,-1.038
2026-06-15 00:05:35.112,3365474568,67112,1,0.90674,0.00635,0.55933,2.046,1.878,2.504
2026-06-15 00:05:35.112,3365474568,67112,2,1.02954,-0.07471,0.35327,0.733,1.84,-0.916
2026-06-15 00:05:35.312,3365474768,67312,1,0.91992,0.00659,0.55273,2.298,3.542,1.405
2026-06-15 00:05:35.312,3365474768,67312,2,1.02417,-0.07397,0.35303,0.519,0.664,-0.992
2026-06-15 00:05:35.512,3365474968,67512,1,0.90942,0.00806,0.54785,1.435,2.962,-0.267
2026-06-15 00:05:35.512,3365474968,67512,2,1.02173,-0.06323,0.34814,2.458,3.443,-1.794
2026-06-15 00:05:35.712,3365475168,67712,1,0.90967,0.02075,0.54761,-1.145,1.931,-1.389
2026-06-15 00:05:35.712,3365475168,67712,2,1.03101,-0.0647,0.35571,-6.733,0.344,-2.214
2026-06-15 00:05:36.034,3365475490,68034,1,0.90332,0.01538,0.55615,-2.809,0.618,-1.855
2026-06-15 00:05:36.034,3365475490,68034,2,1.02783,-0.06616,0.36499,-1.565,2.687,0.069
2026-06-15 00:05:36.249,3365475705,68248,1,0.9187,0.01465,0.54834,-1.473,1.603,-1.153
2026-06-15 00:05:36.249,3365475705,68248,2,1.02808,-0.07642,0.35815,-3.603,0.053,-0.908
2026-06-15 00:05:37.275,3365476731,69274,1,0.92334,0.01904,0.53833,0.763,2.763,-0.641
2026-06-15 00:05:37.275,3365476731,69274,2,1.02368,-0.06274,0.36768,-0.191,0.756,-1.0
2026-06-15 00:05:37.474,3365476930,69474,1,0.91528,0.02734,0.54297,1.466,2.504,0.931
2026-06-15 00:05:37.474,3365476930,69474,2,1.02832,-0.06689,0.35107,1.137,1.374,-0.099
2026-06-15 00:05:37.860,3365477316,69860,1,0.91846,0.01343,0.5498,3.45,3.137,3.405
2026-06-15 00:05:37.860,3365477316,69860,2,1.02563,-0.06421,0.35376,-0.771,0.122,0.13
2026-06-15 00:05:38.094,3365477550,70094,1,0.90674,0.01147,0.54395,1.221,2.168,1.42
2026-06-15 00:05:38.094,3365477550,70094,2,1.03394,-0.07251,0.35938,0.435,1.282,0.023
2026-06-15 00:05:38.313,3365477769,70313,1,0.91284,0.0105,0.5481,1.947,3.84,1.061
2026-06-15 00:05:38.313,3365477769,70313,2,1.03027,-0.0686,0.34082,-1.107,-0.733,-1.26
2026-06-15 00:05:38.577,3365478033,70577,1,0.9231,0.00928,0.54736,2.977,1.649,1.221
2026-06-15 00:05:38.577,3365478033,70577,2,1.0354,-0.06055,0.34253,1.038,0.389,-0.702
2026-06-15 00:05:39.013,3365478469,71013,1,0.91235,0.02222,0.54883,2.664,2.725,0.969
2026-06-15 00:05:39.013,3365478469,71013,2,1.02832,-0.06104,0.34717,2.115,0.931,-0.336
2026-06-15 00:05:39.523,3365478979,71523,1,0.90112,0.0271,0.55933,2.542,4.328,1.611
2026-06-15 00:05:39.523,3365478979,71523,2,1.02881,-0.05542,0.33643,1.695,0.511,-0.962
2026-06-15 00:05:40.909,3365480365,71908,1,0.89233,0.02734,0.57251,3.29,1.115,2.435
2026-06-15 00:05:40.909,3365480365,71908,2,1.03638,-0.04395,0.34204,1.603,2.214,-0.687
2026-06-15 00:05:40.170,3365479626,72170,1,0.91235,0.03247,0.57764,-0.397,1.389,-0.092
2026-06-15 00:05:40.170,3365479626,72170,2,1.03809,-0.0498,0.33545,1.901,2.771,-0.573
2026-06-15 00:05:40.381,3365479837,72380,1,0.88232,0.0249,0.56909,0.733,2.29,-1.282
2026-06-15 00:05:40.381,3365479837,72380,2,1.0354,-0.05298,0.34473,1.725,4.107,-0.244
2026-06-15 00:05:40.580,3365480036,72580,1,0.8916,0.03125,0.55713,0.542,1.809,-0.176
2026-06-15 00:05:40.580,3365480036,72580,2,1.03687,-0.04004,0.3501,1.023,2.298,-0.298
2026-06-15 00:05:40.780,3365480236,72780,1,0.89209,0.03662,0.55737,2.55,3.038,0.26
2026-06-15 00:05:40.780,3365480236,72780,2,1.03296,-0.05005,0.35718,1.481,2.061,-0.634
2026-06-15 00:05:41.980,3365481436,72980,1,0.92017,0.0376,0.56787,1.244,0.771,0.26
2026-06-15 00:05:41.980,3365481436,72980,2,1.03931,-0.03613,0.35376,-1.466,0.015,-0.573
2026-06-15 00:05:41.180,3365480636,73180,1,0.92139,0.04077,0.55444,-0.153,1.435,1.511
2026-06-15 00:05:41.180,3365480636,73180,2,1.02759,-0.05713,0.34277,-0.908,0.908,-0.595
2026-06-15 00:05:41.380,3365480836,73380,1,0.92554,0.04224,0.57861,1.198,1.076,2.366
2026-06-15 00:05:41.380,3365480836,73380,2,1.02881,-0.03784,0.33594,1.237,2.16,-2.084
2026-06-15 00:05:41.380,3365480836,73380,2,1.02881,-0.03784,0.33594,1.237,2.16,-2.084
2026-06-15 00:05:47.985,3365487441,78985,1,0.89307,0.04492,0.56421,2.504,5.763,1.023
2026-06-15 00:05:47.985,3365487441,78985,2,1.03149,-0.03955,0.3291,2.206,2.023,-1.748
2026-06-15 00:05:47.185,3365486641,79185,1,0.89966,0.0376,0.57764,1.603,3.489,1.771
2026-06-15 00:05:47.185,3365486641,79185,2,1.03174,-0.03564,0.32983,-1.611,2.122,-1.351
2026-06-15 00:05:47.385,3365486841,79385,1,0.88672,0.03296,0.58203,-1.061,2.076,0.191
2026-06-15 00:05:47.385,3365486841,79385,2,1.02832,-0.03125,0.32666,1.985,3.427,1.618
2026-06-15 00:05:47.585,3365487041,79585,1,0.89307,0.03149,0.58008,-1.679,-0.55,-0.191
2026-06-15 00:05:47.585,3365487041,79585,2,1.03906,-0.04712,0.33643,-3.099,1.672,0.924
2026-06-15 00:05:47.785,3365487241,79785,1,0.90332,0.02734,0.573,-2.137,-0.183,-0.794
2026-06-15 00:05:47.785,3365487241,79785,2,1.01929,-0.01147,0.28955,2.962,1.595,-3.359
2026-06-15 00:05:49.621,3365489077,81621,1,0.89429,0.0249,0.56104,4.687,4.618,-1.176
2026-06-15 00:05:49.621,3365489077,81621,2,1.02246,-0.00122,0.29321,7.137,7.611,1.252
2026-06-15 00:05:49.821,3365489277,81821,1,0.88525,0.02856,0.59351,-1.344,1.145,-3.679
2026-06-15 00:05:49.821,3365489277,81821,2,1.03271,-0.02466,0.32202,-3.878,-3.206,-4.679
2026-06-15 00:05:50.152,3365489608,82152,1,0.90479,0.03052,0.55615,2.748,3.244,3.542
2026-06-15 00:05:50.152,3365489608,82152,2,1.04053,-0.02661,0.31689,-1.634,-0.267,-0.679
2026-06-15 00:05:50.360,3365489816,82360,1,0.87573,0.0293,0.55493,-2.519,-1.221,-0.305
2026-06-15 00:05:50.360,3365489816,82360,2,1.0293,0.00049,0.32153,-2.939,2.366,-1.176
2026-06-15 00:05:50.560,3365490016,82560,1,0.9021,0.01099,0.56567,1.313,2.321,2.168
2026-06-15 00:05:50.560,3365490016,82560,2,1.05249,-0.0083,0.31763,3.939,-0.481,3.695
2026-06-15 00:05:50.760,3365490216,82760,1,0.87354,0.0166,0.59546,-0.87,3.893,5.412
2026-06-15 00:05:50.760,3365490216,82760,2,1.0415,-0.02246,0.28955,12.427,9.489,2.885
2026-06-15 00:05:51.032,3365490488,83032,1,0.90015,0.03052,0.56641,-0.092,1.267,-2.275
2026-06-15 00:05:51.032,3365490488,83032,2,1.05908,-0.05151,0.27954,-6.137,-3.55,0.992
2026-06-15 00:05:51.239,3365490695,83239,1,0.89526,-0.01099,0.56177,-5.931,7.389,1.481
2026-06-15 00:05:51.239,3365490695,83239,2,1.03687,-0.02002,0.30591,1.855,1.939,2.244
2026-06-15 00:05:51.439,3365490895,83439,1,0.89087,0.0083,0.61108,6.16,3.977,6.069
2026-06-15 00:05:51.439,3365490895,83439,2,1.0481,-0.00952,0.31494,2.908,1.87,-2.282
2026-06-15 00:05:51.639,3365491095,83639,1,0.86914,-0.00854,0.6084,4.191,-2.565,1.855
2026-06-15 00:05:51.639,3365491095,83639,2,1.03979,-0.01563,0.30322,2.55,3.168,1.885
2026-06-15 00:05:52.870,3365492326,83870,1,0.89624,-0.00317,0.55591,-0.855,-2.031,-0.893
2026-06-15 00:05:52.870,3365492326,83870,2,1.04956,-0.03467,0.28662,0.153,1.924,0.718
2026-06-15 00:05:52.077,3365491533,84076,1,0.93164,-0.00415,0.53564,1.931,1.16,0.481
2026-06-15 00:05:52.077,3365491533,84076,2,1.04028,-0.02051,0.29053,2.336,2.969,-1.015
2026-06-15 00:05:52.276,3365491732,84276,1,0.91089,0.00073,0.55493,-0.511,5.229,-1.046
2026-06-15 00:05:52.276,3365491732,84276,2,1.04761,-0.02783,0.30518,3.397,6.321,-0.656
2026-06-15 00:05:52.476,3365491932,84476,1,0.8938,0.00317,0.56641,-2.489,6.603,-2.809
2026-06-15 00:05:52.476,3365491932,84476,2,1.03979,-0.0249,0.33545,2.565,5.847,-0.885
2026-06-15 00:05:52.709,3365492165,84708,1,0.88281,0.0022,0.59253,3.679,2.763,-1.015
2026-06-15 00:05:52.709,3365492165,84708,2,1.02539,-0.0188,0.33838,8.282,5.504,-1.763
2026-06-15 00:05:55.651,3365495107,87651,1,0.85303,-0.25171,0.57349,-15.977,10.786,0.756
2026-06-15 00:05:55.651,3365495107,87651,2,0.98389,-0.18115,0.41943,-14.389,10.55,5.641
2026-06-15 00:05:55.851,3365495307,87851,1,0.85327,-0.28784,0.57471,-11.557,5.26,1.763
2026-06-15 00:05:55.851,3365495307,87851,2,0.9873,-0.24487,0.44775,-2.023,11.74,4.45
2026-06-15 00:05:56.051,3365495507,88051,1,0.8562,-0.31152,0.56519,-8.481,5.076,11.382
2026-06-15 00:05:56.051,3365495507,88051,2,0.97461,-0.20483,0.44775,-8.389,1.42,6.321
2026-06-15 00:05:56.394,3365495850,88394,1,0.81592,-0.28345,0.6084,4.809,0.634,0.382
2026-06-15 00:05:56.394,3365495850,88394,2,0.98022,-0.21484,0.44043,-1.84,-3.435,0.534
2026-06-15 00:05:56.594,3365496050,88594,1,0.84009,-0.29297,0.57056,1.412,-1.397,0.809
2026-06-15 00:05:56.594,3365496050,88594,2,0.98486,-0.2251,0.42554,-0.878,-0.168,0.145
2026-06-15 00:05:56.794,3365496250,88794,1,0.85156,-0.29565,0.5686,4.298,0.443,3.183
2026-06-15 00:05:56.794,3365496250,88794,2,0.98877,-0.22388,0.41333,-2.901,-1.786,-0.122
2026-06-15 00:05:57.214,3365496670,89214,1,0.83496,-0.28638,0.5813,4.298,2.863,3.756
2026-06-15 00:05:57.214,3365496670,89214,2,0.98291,-0.21143,0.41357,2.916,2.328,0.214
2026-06-15 00:05:57.414,3365496870,89414,1,0.83496,-0.29639,0.58521,1.809,2.168,0.893
2026-06-15 00:05:57.414,3365496870,89414,2,1.00073,-0.2251,0.40405,-0.084,0.382,-0.74
2026-06-15 00:05:57.614,3365497070,89614,1,0.82764,-0.2876,0.58203,1.985,3.0,1.87
2026-06-15 00:05:57.614,3365497070,89614,2,0.99121,-0.2334,0.39575,-1.511,0.855,-0.748
2026-06-15 00:05:59.889,3365499345,90889,1,0.82983,-0.31079,0.59375,1.695,1.13,1.794
2026-06-15 00:05:59.889,3365499345,90889,2,0.99731,-0.24097,0.40161,-1.573,0.748,-0.351
2026-06-15 00:05:59.889,3365499345,90889,2,0.99731,-0.24097,0.40161,-1.573,0.748,-0.351
2026-06-15 00:06:04.114,3365503570,96114,1,0.87109,-0.10156,0.59814,-8.84,6.55,-6.466
2026-06-15 00:06:04.114,3365503570,96114,2,1.02905,-0.08618,0.36353,8.466,11.267,9.679
2026-06-15 00:06:04.322,3365503778,96321,1,0.87671,-0.12012,0.58936,-3.55,1.534,0.496
2026-06-15 00:06:04.322,3365503778,96321,2,1.02588,-0.08276,0.36792,-1.771,3.107,-2.298
2026-06-15 00:06:05.930,3365505386,96930,1,0.9126,-0.09375,0.58032,-0.099,2.504,-0.863
2026-06-15 00:06:05.930,3365505386,96930,2,1.01807,-0.0647,0.35889,0.267,0.435,-2.511
2026-06-15 00:06:05.130,3365504586,97130,1,0.89282,-0.06665,0.58228,-1.496,2.336,-3.137
2026-06-15 00:06:05.130,3365504586,97130,2,1.03271,-0.05786,0.3645,0.374,4.534,0.275
2026-06-15 00:06:05.330,3365504786,97330,1,0.90161,-0.06567,0.58618,-1.832,3.977,-0.733
2026-06-15 00:06:05.330,3365504786,97330,2,1.02441,-0.0415,0.37646,1.931,4.427,-0.939
2026-06-15 00:06:05.530,3365504986,97530,1,0.88525,-0.06055,0.59229,-0.42,2.618,2.534
2026-06-15 00:06:05.530,3365504986,97530,2,1.0166,-0.04712,0.37524,2.435,3.55,-0.046
2026-06-15 00:06:05.730,3365505186,97730,1,0.88281,-0.06177,0.58179,1.229,2.137,3.534
2026-06-15 00:06:05.730,3365505186,97730,2,1.01392,-0.05615,0.3667,3.802,1.725,1.061
2026-06-15 00:06:06.224,3365505680,98224,1,0.89185,-0.07275,0.5874,1.344,0.985,0.061
2026-06-15 00:06:06.224,3365505680,98224,2,1.01758,-0.05493,0.38281,1.878,1.748,2.061
2026-06-15 00:06:06.424,3365505880,98424,1,0.89941,-0.09058,0.57666,-0.099,0.26,-0.55
2026-06-15 00:06:06.424,3365505880,98424,2,1.01929,-0.07129,0.37427,0.115,0.557,1.626
2026-06-15 00:06:06.624,3365506080,98624,1,0.89502,-0.0896,0.56616,0.389,0.55,-0.366
2026-06-15 00:06:06.624,3365506080,98624,2,1.02563,-0.08203,0.37622,-0.748,0.985,0.611
2026-06-15 00:06:06.824,3365506280,98824,1,0.89697,-0.08936,0.55615,0.802,1.679,1.069
2026-06-15 00:06:06.824,3365506280,98824,2,1.02637,-0.08447,0.37891,0.87,1.992,0.542
2026-06-15 00:06:07.024,3365506480,99024,1,0.89844,-0.08984,0.56592,1.542,2.542,2.359
2026-06-15 00:06:07.024,3365506480,99024,2,1.02295,-0.08105,0.36426,0.802,2.092,-0.107
2026-06-15 00:06:07.224,3365506680,99224,1,0.89453,-0.08984,0.56885,2.282,2.855,2.473
2026-06-15 00:06:07.224,3365506680,99224,2,0.96875,-0.20972,0.46582,-2.824,-6.366,-11.962
2026-06-15 00:06:10.609,3365510065,102609,1,0.85742,-0.23413,0.58545,8.26,1.733,-13.519
2026-06-15 00:06:10.609,3365510065,102609,2,0.97998,-0.18262,0.46289,4.191,-8.084,-12.038
2026-06-15 00:06:10.809,3365510265,102809,1,0.87622,-0.22852,0.56055,9.206,1.779,-14.244
2026-06-15 00:06:10.809,3365510265,102809,2,1.03271,-0.11255,0.40601,-5.847,-16.412,-18.763
2026-06-15 00:06:11.022,3365510478,103022,1,0.88428,-0.10986,0.56982,12.527,1.252,-17.573
2026-06-15 00:06:11.022,3365510478,103022,2,1.0918,-0.03027,0.3833,6.13,0.489,-11.435
2026-06-15 00:06:11.244,3365510700,103244,1,0.87891,-0.01099,0.58276,12.618,6.939,-12.305
2026-06-15 00:06:11.244,3365510700,103244,2,0.96973,-0.01709,0.41479,44.282,8.977,7.237
2026-06-15 00:06:11.451,3365510907,103450,1,0.87109,0.13916,0.62402,25.389,5.565,10.565
2026-06-15 00:06:11.451,3365510907,103450,2,1.05322,0.06714,0.31665,8.298,-3.939,-5.282
2026-06-15 00:06:11.858,3365511314,103858,1,0.89771,0.10327,0.56592,16.58,3.351,10.038
2026-06-15 00:06:11.858,3365511314,103858,2,1.021,0.04565,0.28833,1.107,0.802,-5.29
2026-06-15 00:06:12.058,3365511514,104058,1,0.96729,0.03223,0.55444,-4.183,26.29,6.771
2026-06-15 00:06:12.058,3365511514,104058,2,0.92529,0.15161,0.50513,6.328,71.45,-41.947
2026-06-15 00:06:12.369,3365511825,104368,1,0.42285,-0.02075,0.65259,-7.107,120.794,4.015
2026-06-15 00:06:12.369,3365511825,104368,2,0.52808,0.25,0.89648,-7.832,85.618,-46.985
2026-06-15 00:06:12.678,3365512134,104678,1,-0.17261,-0.06421,1.08252,-0.45,91.733,10.366
2026-06-15 00:06:12.678,3365512134,104678,2,0.26929,0.36987,1.07617,-5.008,35.824,-12.542
2026-06-15 00:06:13.959,3365513415,104959,1,-0.38452,-0.04468,1.09937,-4.412,20.443,1.511
2026-06-15 00:06:13.959,3365513415,104959,2,0.19775,0.35596,1.05859,-3.489,14.84,5.611
2026-06-15 00:06:13.193,3365512649,105193,1,-0.34204,-0.04395,1.00879,-2.435,12.924,14.679
2026-06-15 00:06:13.193,3365512649,105193,2,0.13257,0.40186,1.07422,4.496,15.359,6.969
2026-06-15 00:06:13.412,3365512868,105411,1,-0.41333,-0.04883,0.95898,-0.008,6.504,5.275
2026-06-15 00:06:13.412,3365512868,105411,2,0.08228,0.3186,1.02661,4.924,6.954,2.405
2026-06-15 00:06:13.611,3365513067,105611,1,-0.40234,-0.0437,0.98218,-6.313,3.16,-1.618
2026-06-15 00:06:13.611,3365513067,105611,2,0.10278,0.33081,1.05566,0.702,0.908,-0.748
2026-06-15 00:06:13.811,3365513267,105811,1,-0.39551,-0.03369,0.96191,1.053,-1.42,-0.664
2026-06-15 00:06:13.811,3365513267,105811,2,0.11719,0.35767,1.07397,5.382,-8.351,2.992
2026-06-15 00:06:14.212,3365513668,106212,1,-0.42383,0.00488,1.17334,4.344,-58.198,-4.969
2026-06-15 00:06:14.212,3365513668,106212,2,0.37695,0.32959,0.95557,8.336,-76.031,34.397
2026-06-15 00:06:14.427,3365513883,106427,1,0.02295,-0.00562,0.93555,0.023,-106.618,-15.763
2026-06-15 00:06:14.427,3365513883,106427,2,0.80713,0.17114,0.65723,-6.015,-86.992,39.916
2026-06-15 00:06:14.676,3365514132,106676,1,0.46558,0.02051,0.78467,0.015,-100.412,-5.122
2026-06-15 00:06:14.676,3365514132,106676,2,0.90356,0.1084,0.53564,-29.397,-75.229,39.931
2026-06-15 00:06:15.929,3365515385,106929,1,0.85571,-0.04199,0.52881,-9.702,-60.656,-6.427
2026-06-15 00:06:15.929,3365515385,106929,2,1.09668,-0.10522,0.40771,19.58,-29.374,32.214
2026-06-15 00:06:15.129,3365514585,107129,1,0.95337,0.00513,0.49902,0.206,-22.336,1.099
2026-06-15 00:06:15.129,3365514585,107129,2,1.08569,-0.08252,0.28442,-21.954,-10.298,-2.992
2026-06-15 00:06:15.441,3365514897,107441,1,0.94238,-0.0166,0.53052,-6.374,8.908,-1.183
2026-06-15 00:06:15.441,3365514897,107441,2,1.04858,-0.10596,0.24927,-5.443,2.427,-2.802
2026-06-15 00:06:15.699,3365515155,107699,1,0.91797,-0.05371,0.54443,-1.031,9.931,2.496
2026-06-15 00:06:15.699,3365515155,107699,2,1.04395,-0.1062,0.25317,-7.42,0.947,-3.206
2026-06-15 00:06:16.953,3365516409,107952,1,0.89771,-0.04517,0.55688,1.947,1.756,-2.397
2026-06-15 00:06:16.953,3365516409,107952,2,1.04712,-0.09326,0.28198,5.603,2.878,0.611
2026-06-15 00:06:16.152,3365515608,108152,1,0.89917,-0.04321,0.55273,1.191,1.0,-2.015
2026-06-15 00:06:16.152,3365515608,108152,2,1.09644,-0.13306,0.28223,9.779,12.45,-3.718
2026-06-15 00:06:20.972,3365520428,111972,1,0.91455,0.01367,0.56006,4.344,1.634,1.534
2026-06-15 00:06:20.972,3365520428,111972,2,1.04102,-0.08911,0.28955,-3.45,0.58,-3.466
2026-06-15 00:06:20.172,3365519628,112172,1,0.89673,-0.00024,0.56714,0.16,4.725,2.695
2026-06-15 00:06:20.172,3365519628,112172,2,1.03687,-0.0918,0.2959,0.198,0.763,-1.122
2026-06-15 00:06:20.372,3365519828,112372,1,0.89111,-0.02173,0.57422,5.321,4.473,6.145
2026-06-15 00:06:20.372,3365519828,112372,2,1.04248,-0.0835,0.28296,0.672,0.29,-2.183
2026-06-15 00:06:20.597,3365520053,112597,1,0.89551,-0.01196,0.58447,1.511,3.718,1.344
2026-06-15 00:06:20.597,3365520053,112597,2,1.04102,-0.07153,0.29517,-2.725,1.511,-1.038
2026-06-15 00:06:21.868,3365521324,112868,1,0.88794,-0.0166,0.58789,-0.038,2.611,-0.718
2026-06-15 00:06:21.868,3365521324,112868,2,1.03784,-0.07666,0.29419,1.756,2.122,0.733
2026-06-15 00:06:21.068,3365520524,113068,1,0.89771,-0.01904,0.57544,0.618,3.061,1.756
2026-06-15 00:06:21.068,3365520524,113068,2,1.05322,-0.07324,0.31909,4.832,5.947,-2.496
2026-06-15 00:06:21.268,3365520724,113268,1,0.96948,-0.02222,0.53931,-0.023,31.947,4.069
2026-06-15 00:06:21.268,3365520724,113268,2,1.0769,-0.01367,0.44458,27.641,49.511,-18.908
2026-06-15 00:06:21.468,3365520924,113468,1,0.76221,0.03125,0.50977,8.183,120.061,15.374
2026-06-15 00:06:21.468,3365520924,113468,2,0.7478,0.14868,0.58374,32.466,113.901,-64.519
2026-06-15 00:06:21.708,3365521164,113708,1,0.05615,-0.03516,0.94702,-0.099,132.366,9.557
2026-06-15 00:06:21.708,3365521164,113708,2,0.47974,0.28638,0.92554,-2.672,86.046,-40.328
2026-06-15 00:06:22.908,3365522364,113908,1,-0.24365,-0.09644,1.12256,-4.939,79.794,3.58
2026-06-15 00:06:22.908,3365522364,113908,2,0.31006,0.32129,1.07739,-10.198,50.962,-25.489
2026-06-15 00:06:22.108,3365521564,114108,1,-0.41187,-0.08569,1.10962,5.527,23.023,4.244
2026-06-15 00:06:22.108,3365521564,114108,2,0.17773,0.3728,1.05908,0.313,12.061,-6.061
2026-06-15 00:06:22.308,3365521764,114308,1,-0.3916,-0.03662,0.99585,2.473,-0.16,2.221
2026-06-15 00:06:22.308,3365521764,114308,2,0.15356,0.36646,1.03906,4.107,-0.542,0.771
2026-06-15 00:06:22.547,3365522003,114547,1,-0.32568,-0.04395,0.95532,3.504,-0.229,-1.626
2026-06-15 00:06:22.547,3365522003,114547,2,0.19141,0.35522,1.01318,2.29,0.84,-3.26
2026-06-15 00:06:22.747,3365522203,114747,1,-0.32202,-0.02002,0.99097,3.504,1.916,-1.824
2026-06-15 00:06:22.747,3365522203,114747,2,0.19995,0.37158,1.04785,-2.893,-6.527,-0.863
2026-06-15 00:06:23.018,3365522474,115018,1,-0.4563,-0.01587,1.2583,4.038,-43.817,-1.053
2026-06-15 00:06:23.018,3365522474,115018,2,0.32397,0.37207,1.05835,9.26,-62.076,30.336
2026-06-15 00:06:23.218,3365522674,115218,1,-0.06299,0.02271,1.0271,0.374,-125.298,-2.557
2026-06-15 00:06:23.218,3365522674,115218,2,0.83154,0.17114,0.56543,1.458,-93.595,56.275
2026-06-15 00:06:23.638,3365523094,115638,1,0.84912,-0.02661,0.53198,2.214,-68.244,-3.221
2026-06-15 00:06:23.638,3365523094,115638,2,1.08252,-0.02588,0.41748,3.305,-27.092,19.855
2026-06-15 00:06:24.951,3365524407,115951,1,0.93457,0.0332,0.55713,-3.885,-3.664,1.427
2026-06-15 00:06:24.951,3365524407,115951,2,1.06396,-0.0625,0.28467,7.901,2.443,5.55
2026-06-15 00:06:24.202,3365523658,116202,1,0.91992,0.00635,0.56201,-2.802,3.328,-0.42
2026-06-15 00:06:24.202,3365523658,116202,2,1.04761,-0.05762,0.28857,-0.221,1.977,-0.565
2026-06-15 00:06:24.449,3365523905,116448,1,0.90015,0.00391,0.58936,-0.695,5.046,1.023
2026-06-15 00:06:24.449,3365523905,116448,2,1.03735,-0.06738,0.2793,-2.573,2.504,-0.359
2026-06-15 00:06:24.648,3365524104,116648,1,0.89331,-0.00317,0.57007,-2.084,1.924,-0.473
2026-06-15 00:06:24.648,3365524104,116648,2,1.04224,-0.06641,0.30005,1.954,3.244,0.221
2026-06-15 00:06:24.848,3365524304,116848,1,0.89941,-0.00293,0.58887,0.412,1.58,-0.145
2026-06-15 00:06:24.848,3365524304,116848,2,1.03833,-0.07202,0.29517,3.115,3.328,-0.153
2026-06-15 00:06:25.079,3365524535,117079,1,0.896,-0.00342,0.56616,1.321,2.145,0.405
2026-06-15 00:06:25.079,3365524535,117079,2,1.04419,-0.06982,0.2937,1.695,1.366,0.672
2026-06-15 00:06:25.397,3365524853,117397,1,0.89819,-0.00415,0.56323,1.084,1.29,0.626
2026-06-15 00:06:25.397,3365524853,117397,2,1.04175,-0.07397,0.28271,0.618,0.802,0.046
2026-06-15 00:06:25.597,3365525053,117597,1,0.90039,-0.00464,0.5752,1.397,0.641,0.992
2026-06-15 00:06:25.597,3365525053,117597,2,1.04297,-0.07593,0.28711,-1.519,0.374,0.046
2026-06-15 00:06:25.797,3365525253,117797,1,0.90552,-0.00659,0.5603,0.496,1.458,0.74
2026-06-15 00:06:25.797,3365525253,117797,2,1.04346,-0.07568,0.28491,-0.977,0.931,0.023
2026-06-15 00:06:26.021,3365525477,118021,1,0.90674,-0.00024,0.55542,-0.061,2.427,0.84
2026-06-15 00:06:26.021,3365525477,118021,2,1.04907,-0.08008,0.28516,-0.611,0.618,-0.183
2026-06-15 00:06:26.295,3365525751,118295,1,0.90576,-0.0105,0.55347,1.053,2.229,0.542
2026-06-15 00:06:26.295,3365525751,118295,2,1.04956,-0.08008,0.27222,0.107,1.115,-0.954
2026-06-15 00:06:26.495,3365525951,118495,1,0.90552,-0.00732,0.55273,0.969,2.176,-0.038
2026-06-15 00:06:26.495,3365525951,118495,2,1.04834,-0.073,0.28149,0.679,1.29,0.634
2026-06-15 00:06:29.906,3365529362,120905,1,0.90381,-0.00903,0.56299,1.382,2.443,1.015
2026-06-15 00:06:29.906,3365529362,120905,2,1.04712,-0.07983,0.28809,-1.137,-0.305,-0.611
2026-06-15 00:06:29.105,3365528561,121105,1,0.91089,0.00073,0.55713,1.702,2.672,1.099
2026-06-15 00:06:29.105,3365528561,121105,2,1.04834,-0.07935,0.2832,1.466,2.763,-0.427
2026-06-15 00:06:29.496,3365528952,121496,1,0.90308,-0.00732,0.56006,1.74,2.626,0.733
2026-06-15 00:06:29.496,3365528952,121496,2,1.04468,-0.07349,0.2771,-0.237,2.069,-1.649
2026-06-15 00:06:29.696,3365529152,121696,1,0.90161,-0.00024,0.57031,1.053,2.252,-0.275
2026-06-15 00:06:29.696,3365529152,121696,2,1.04248,-0.07251,0.28369,1.023,2.893,-1.634
2026-06-15 00:06:30.960,3365530416,121960,1,0.91089,-0.00146,0.55737,1.107,1.954,0.053
2026-06-15 00:06:30.960,3365530416,121960,2,1.0459,-0.0708,0.28491,2.786,3.198,-0.794
2026-06-15 00:06:30.174,3365529630,122174,1,0.90332,0.00439,0.55664,1.046,1.641,0.13
2026-06-15 00:06:30.174,3365529630,122174,2,1.04224,-0.06714,0.28784,1.305,1.55,-0.794
2026-06-15 00:06:30.374,3365529830,122374,1,0.90332,0.00269,0.55371,0.924,1.832,0.267
2026-06-15 00:06:30.374,3365529830,122374,2,1.04272,-0.06592,0.29224,1.992,2.466,-0.328
2026-06-15 00:06:30.574,3365530030,122574,1,0.90894,0.00928,0.55688,0.168,1.527,-0.397
2026-06-15 00:06:30.574,3365530030,122574,2,1.04541,-0.06299,0.28491,0.107,2.443,-0.908
2026-06-15 00:06:30.855,3365530311,122855,1,0.91333,0.00854,0.55566,-0.176,1.565,-0.26
2026-06-15 00:06:30.855,3365530311,122855,2,1.0459,-0.0708,0.28711,0.046,1.351,
2026-06-15 00:06:31.101,3365530557,123100,1,0.91187,0.0083,0.54248,-1.076,1.42,-0.176
2026-06-15 00:06:31.101,3365530557,123100,2,1.04272,-0.06592,0.29004,-1.13,1.16,0.969
2026-06-15 00:06:31.300,3365530756,123300,1,0.91064,0.00317,0.55566,-0.321,2.344,0.389
2026-06-15 00:06:31.300,3365530756,123300,2,1.04736,-0.06445,0.28589,-3.16,-0.687,-0.191
2026-06-15 00:06:31.500,3365530956,123500,1,0.91431,0.01343,0.53906,-2.992,4.237,-0.748
2026-06-15 00:06:31.500,3365530956,123500,2,1.01807,-0.07617,0.31299,-13.374,0.786,-1.672
2026-06-15 00:06:32.042,3365531498,124041,1,0.8833,-0.02783,0.57202,-3.885,1.176,-1.779
2026-06-15 00:06:32.042,3365531498,124041,2,1.02612,-0.0813,0.32056,-6.443,-4.481,0.74
2026-06-15 00:06:32.241,3365531697,124241,1,0.92993,-0.06226,0.56079,-0.275,2.008,-1.672
2026-06-15 00:06:32.241,3365531697,124241,2,1.04077,-0.14893,0.29614,-0.122,7.519,-3.527
2026-06-15 00:06:32.441,3365531897,124441,1,0.93359,-0.06348,0.50171,5.878,4.374,1.954
2026-06-15 00:06:32.441,3365531897,124441,2,1.09497,0.00049,0.23462,4.595,-7.321,-12.099
2026-06-15 00:06:32.859,3365532315,124859,1,0.90356,0.04297,0.58887,0.145,3.229,-18.901
2026-06-15 00:06:32.859,3365532315,124859,2,1.01636,0.0293,0.35889,32.244,21.038,11.878
2026-06-15 00:06:33.059,3365532515,125059,1,0.87891,0.10205,0.59229,3.962,4.092,-3.115
2026-06-15 00:06:33.059,3365532515,125059,2,1.0752,0.11938,0.34644,-9.275,4.115,-12.008
2026-06-15 00:06:33.371,3365532827,125370,1,0.83765,0.12207,0.60962,-0.87,13.198,3.13
2026-06-15 00:06:33.371,3365532827,125370,2,1.00391,0.07397,0.27661,-21.565,-3.076,-3.489
2026-06-15 00:06:33.570,3365533026,125570,1,0.92041,0.00269,0.64258,-6.832,-0.649,4.16
2026-06-15 00:06:33.570,3365533026,125570,2,0.95044,0.19922,0.3313,-68.275,-57.466,0.542
2026-06-15 00:06:33.796,3365533252,125796,1,0.94849,0.03516,0.64551,-34.267,8.664,-13.198
2026-06-15 00:06:33.796,3365533252,125796,2,1.08252,-0.04883,0.17017,-27.954,11.71,5.702
2026-06-15 00:06:34.996,3365534452,125996,1,0.81079,-0.12354,0.5918,-37.282,7.954,-16.046
2026-06-15 00:06:34.996,3365534452,125996,2,1.05811,-0.12671,0.34082,-29.855,4.015,-4.198
2026-06-15 00:06:34.196,3365533652,126196,1,0.8479,-0.15674,0.57349,-0.084,-1.534,-9.466
2026-06-15 00:06:34.196,3365533652,126196,2,1.01758,-0.18921,0.30957,27.55,4.595,1.954
2026-06-15 00:06:34.487,3365533943,126487,1,0.89478,-0.08984,0.52637,13.885,-15.649,-9.748
2026-06-15 00:06:34.487,3365533943,126487,2,0.98267,-0.14282,0.41455,11.069,-1.481,10.069
2026-06-15 00:06:34.807,3365534263,126807,1,0.88672,0.22852,0.64014,-2.725,15.649,-8.389
2026-06-15 00:06:34.807,3365534263,126807,2,1.03589,0.10059,0.26563,18.183,5.496,8.565
2026-06-15 00:06:35.157,3365534613,127157,1,0.92163,0.22461,0.58936,21.71,-0.206,21.16
2026-06-15 00:06:35.157,3365534613,127157,2,1.04346,0.07837,0.21313,27.076,6.885,0.786
2026-06-15 00:06:35.388,3365534844,127388,1,0.89063,0.18311,0.5061,33.977,9.695,28.252
2026-06-15 00:06:35.388,3365534844,127388,2,0.9895,0.03857,0.29199,24.992,12.42,-0.466
2026-06-15 00:06:35.588,3365535044,127588,1,0.90942,0.16675,0.5647,30.145,6.313,25.191
2026-06-15 00:06:35.588,3365535044,127588,2,1.18433,0.01392,0.36426,-9.901,-22.412,3.611
2026-06-15 00:06:35.788,3365535244,127788,1,0.7666,0.00317,0.57129,-2.809,9.092,24.137
2026-06-15 00:06:35.788,3365535244,127788,2,1.01147,-0.05518,0.35181,-22.008,-13.511,-0.137
2026-06-15 00:06:36.015,3365535471,128015,1,0.86865,-0.17505,0.61206,1.824,2.786,10.328
2026-06-15 00:06:36.015,3365535471,128015,2,1.00342,-0.10596,0.34473,22.366,-3.992,-2.16
2026-06-15 00:06:36.299,3365535755,128299,1,0.91895,-0.09888,0.61426,22.26,-1.191,9.321
2026-06-15 00:06:36.299,3365535755,128299,2,1.05322,-0.07373,0.26904,19.725,1.198,2.481
2026-06-15 00:06:36.499,3365535955,128499,1,0.84668,-0.07031,0.6145,22.84,-1.023,11.565
2026-06-15 00:06:36.499,3365535955,128499,2,1.00244,-0.0166,0.29297,26.099,-0.725,3.794
2026-06-15 00:06:36.699,3365536155,128699,1,0.83765,-0.03516,0.58228,32.321,-9.832,6.466
2026-06-15 00:06:36.699,3365536155,128699,2,1.02173,0.00049,0.26294,46.305,-4.397,7.916
2026-06-15 00:06:37.899,3365537355,128899,1,0.91602,0.04663,0.52881,41.58,-10.725,-1.733
2026-06-15 00:06:37.899,3365537355,128899,2,1.04517,0.18604,0.13354,-3.878,-1.58,-2.473
2026-06-15 00:06:40.834,3365540290,132834,1,0.94604,0.03809,0.49902,3.282,2.466,3.603
2026-06-15 00:06:40.834,3365540290,132834,2,1.05591,-0.00806,0.16138,0.061,1.832,-1.702
2026-06-15 00:06:41.034,3365540490,133034,1,0.93555,0.02905,0.49561,-0.13,2.733,0.771
2026-06-15 00:06:41.034,3365540490,133034,2,1.06812,0.0293,0.13794,-3.901,0.053,0.74
2026-06-15 00:06:42.570,3365542026,134570,1,0.94434,0.00244,0.50513,-6.13,4.977,-1.611
2026-06-15 00:06:42.570,3365542026,134570,2,1.07349,-0.00806,0.13062,-1.969,2.031,2.481
2026-06-15 00:06:42.770,3365542226,134770,1,0.92139,-0.0437,0.50977,-10.107,3.305,-2.099
2026-06-15 00:06:42.770,3365542226,134770,2,1.08057,-0.03955,0.1665,-5.031,0.191,-2.008
2026-06-15 00:06:44.112,3365543568,136112,1,0.92969,-0.03589,0.52026,-5.725,3.992,-0.779
2026-06-15 00:06:44.112,3365543568,136112,2,1.02539,-0.14575,0.30347,-8.756,-1.42,-0.298
2026-06-15 00:06:49.198,3365548654,141198,1,0.75854,0.13745,0.61646,-9.58,-9.29,-1.397
2026-06-15 00:06:49.198,3365548654,141198,2,1.06396,0.16504,0.17505,-65.069,-17.718,-6.473
2026-06-15 00:06:51.359,3365550815,143359,1,0.87842,0.08691,0.60449,9.954,4.481,-2.168
2026-06-15 00:06:51.359,3365550815,143359,2,1.03027,0.04224,0.28394,10.802,3.466,-3.031
2026-06-15 00:06:53.466,3365552922,145466,1,0.58496,0.27466,0.83325,42.58,30.527,35.0
2026-06-15 00:06:53.466,3365552922,145466,2,0.86963,0.28223,0.54443,14.038,19.038,-13.427
2026-06-15 00:06:55.662,3365555118,147661,1,0.38916,0.35303,0.94702,2.084,0.153,2.74
2026-06-15 00:06:55.662,3365555118,147661,2,0.83105,0.42651,0.56104,-3.374,-1.397,5.099
2026-06-15 00:06:57.845,3365557301,149845,1,0.83691,-0.04272,0.65454,3.824,0.618,1.198
2026-06-15 00:06:57.845,3365557301,149845,2,1.04468,-0.02734,0.31055,3.565,2.137,-2.542
2026-06-15 00:07:00.046,3365559502,152046,1,0.89014,0.10034,0.60596,1.634,-12.053,5.069
2026-06-15 00:07:00.046,3365559502,152046,2,0.94922,-0.05566,0.26025,49.626,30.328,3.473
2026-06-15 00:07:02.196,3365561652,154196,1,0.92798,0.0415,0.552,3.847,7.282,1.389
2026-06-15 00:07:02.196,3365561652,154196,2,1.03955,,0.27051,3.55,6.733,-5.084
2026-06-15 00:07:04.515,3365563971,156515,1,0.88892,-0.0332,0.58252,7.298,4.168,13.366
2026-06-15 00:07:04.515,3365563971,156515,2,1.09912,0.04663,0.49731,-36.427,20.351,-5.786
2026-06-15 00:07:05.420,3365564876,157420,1,0.80981,0.02271,0.625,7.771,-4.13,2.191
2026-06-15 00:07:05.420,3365564876,157420,2,1.05908,-0.00244,0.25537,4.221,3.847,0.099
2026-06-15 00:07:05.792,3365565248,157792,1,0.89966,-0.00684,0.573,0.313,1.397,-2.55
2026-06-15 00:07:05.792,3365565248,157792,2,1.05542,-0.01611,0.26538,4.748,3.13,2.099
2026-06-15 00:07:06.533,3365565989,158533,1,0.90283,0.00659,0.5813,1.55,1.832,0.397
2026-06-15 00:07:06.533,3365565989,158533,2,1.05859,-0.00708,0.26636,3.344,1.977,0.107
2026-06-15 00:07:06.737,3365566193,158737,1,0.8916,0.0061,0.5791,2.29,-0.115,1.702
2026-06-15 00:07:06.737,3365566193,158737,2,1.05054,-0.01099,0.25244,-1.13,-0.557,-1.466
2026-06-15 00:07:07.959,3365567415,158959,1,0.89624,,0.57202,1.748,1.832,2.939
2026-06-15 00:07:07.959,3365567415,158959,2,1.04419,-0.0083,0.24927,0.84,2.214,-1.382
2026-06-15 00:07:07.159,3365566615,159159,1,0.89966,0.00464,0.57227,1.008,3.282,3.496
2026-06-15 00:07:07.159,3365566615,159159,2,1.04395,0.00244,0.26294,3.824,4.13,0.573
2026-06-15 00:07:07.396,3365566852,159396,1,0.89404,-0.03125,0.56909,-3.45,1.061,-2.771
2026-06-15 00:07:07.396,3365566852,159396,2,1.04321,-0.01074,0.27808,-3.947,0.863,-0.527
2026-06-15 00:07:07.610,3365567066,159610,1,0.90967,-0.00098,0.56787,-4.046,-0.298,-2.153
2026-06-15 00:07:07.610,3365567066,159610,2,1.06567,-0.02124,0.26318,-2.405,2.405,3.679
2026-06-15 00:07:07.810,3365567266,159810,1,0.91528,-0.00781,0.54468,-8.092,4.267,-4.931
2026-06-15 00:07:07.810,3365567266,159810,2,1.06152,-0.03076,0.26563,-4.947,4.382,1.618
2026-06-15 00:07:08.010,3365567466,160010,1,0.89063,-0.0166,0.57178,-4.191,6.015,-5.733
2026-06-15 00:07:08.010,3365567466,160010,2,1.03809,-0.03979,0.28271,-6.962,2.954,-2.809
2026-06-15 00:07:08.210,3365567666,160210,1,0.90845,0.02515,0.56934,-7.924,5.084,-0.107
2026-06-15 00:07:08.210,3365567666,160210,2,1.04761,-0.02002,0.27197,-4.466,7.84,4.13
2026-06-15 00:07:08.410,3365567866,160410,1,0.89331,-0.0144,0.56982,-21.267,2.664,-10.42
2026-06-15 00:07:08.410,3365567866,160410,2,1.0271,-0.0625,0.30298,-7.985,4.527,0.878
2026-06-15 00:07:08.672,3365568128,160672,1,0.89941,-0.04102,0.57568,-7.336,-3.534,-8.641
2026-06-15 00:07:08.672,3365568128,160672,2,1.04346,-0.07617,0.32983,2.794,4.145,-0.824
2026-06-15 00:07:09.872,3365569328,160872,1,0.91016,-0.02588,0.56079,9.947,2.931,-0.817
2026-06-15 00:07:09.872,3365569328,160872,2,1.02368,-0.07764,0.31396,10.214,1.756,-4.282
2026-06-15 00:07:09.072,3365568528,161072,1,0.91333,0.03467,0.54761,26.099,1.198,9.702
2026-06-15 00:07:09.072,3365568528,161072,2,1.04883,0.00098,0.27515,22.84,-1.076,-0.153
2026-06-15 00:07:09.345,3365568801,161345,1,0.89648,0.0481,0.56592,17.969,3.634,11.832
2026-06-15 00:07:09.345,3365568801,161345,2,1.04834,0.01538,0.24072,3.443,-3.198,-4.504
2026-06-15 00:07:09.545,3365569001,161545,1,0.90942,0.03931,0.55786,10.489,1.214,9.16
2026-06-15 00:07:09.545,3365569001,161545,2,1.05786,0.00488,0.25146,13.282,1.939,1.969
2026-06-15 00:07:09.792,3365569248,161792,1,0.91064,0.02515,0.56104,6.0,3.71,2.481
2026-06-15 00:07:09.792,3365569248,161792,2,1.05786,0.00635,0.25342,8.473,0.786,2.885
2026-06-15 00:07:10.992,3365570448,161992,1,0.91089,0.03638,0.56274,-2.557,4.748,-0.626
2026-06-15 00:07:10.992,3365570448,161992,2,1.04004,-0.01294,0.24585,-3.489,4.603,0.55
2026-06-15 00:07:10.192,3365569648,162192,1,0.89795,0.00635,0.56641,-7.153,3.908,-0.855
2026-06-15 00:07:10.192,3365569648,162192,2,1.04419,-0.01733,0.25952,-4.863,2.573,-0.298
2026-06-15 00:07:15.265,3365574721,167264,1,0.86963,0.08691,0.99976,-3.252,-10.267,-6.038
2026-06-15 00:07:15.265,3365574721,167264,2,1.32715,0.22412,0.48999,9.389,8.092,0.962
2026-06-15 00:07:17.412,3365576868,169412,1,0.8999,-0.02002,0.54639,4.649,-4.053,-1.71
2026-06-15 00:07:17.412,3365576868,169412,2,1.0498,-0.01733,0.22119,15.122,2.695,9.298
2026-06-15 00:07:19.657,3365579113,171657,1,0.90137,0.00659,0.55347,-0.618,1.931,-0.641
2026-06-15 00:07:19.657,3365579113,171657,2,1.05078,-0.021,0.26392,-0.863,0.214,-0.214
2026-06-15 00:07:21.786,3365581242,173786,1,0.90454,0.00562,0.55566,1.618,3.038,0.427
2026-06-15 00:07:21.786,3365581242,173786,2,1.0459,-0.0249,0.25806,0.74,1.481,-0.389
2026-06-15 00:07:24.915,3365584371,175915,1,0.90259,0.01318,0.56934,-1.015,2.84,-0.832
2026-06-15 00:07:24.915,3365584371,175915,2,1.04028,0.00122,0.26563,1.298,2.603,0.313
2026-06-15 00:07:26.081,3365585537,178081,1,0.90039,0.03931,0.58008,-1.0,2.87,1.069
2026-06-15 00:07:26.081,3365585537,178081,2,1.04272,0.02759,0.26392,-5.756,1.176,-0.695
2026-06-15 00:07:26.081,3365585537,178081,2,1.04272,0.02759,0.26392,-5.756,1.176,-0.695
2026-06-15 00:07:33.323,3365592779,185323,1,0.85962,0.02173,0.61572,10.519,1.771,5.176
2026-06-15 00:07:33.323,3365592779,185323,2,1.03467,0.00073,0.28809,9.679,0.374,2.053
2026-06-15 00:07:35.475,3365594931,187475,1,0.89014,0.04199,0.57373,1.0,3.511,1.153
2026-06-15 00:07:35.475,3365594931,187475,2,1.04321,0.0354,0.2854,-1.542,1.58,-2.038
2026-06-15T00:10:48.123095,,,,,,,,,
2026-06-15 00:10:49.291,3365788747,5291,1,0.92627,0.00806,0.53735,-5.45,3.45,-4.969
2026-06-15 00:10:49.291,3365788747,5291,2,1.0144,-0.07715,0.36206,-9.443,-7.366,-1.45
2026-06-15 00:10:49.491,3365788947,5491,1,0.91992,0.01074,0.53613,5.58,0.237,0.084
2026-06-15 00:10:49.491,3365788947,5491,2,1.02637,-0.05835,0.37231,-2.557,1.756,0.74
2026-06-15 00:10:49.752,3365789208,5752,1,0.93091,0.02637,0.52686,2.42,1.351,1.023
2026-06-15 00:10:49.752,3365789208,5752,2,1.03198,-0.05054,0.35962,0.267,0.366,0.641
2026-06-15 00:10:50.952,3365790408,5952,1,0.93286,0.02881,0.53101,6.214,1.122,3.031
2026-06-15 00:10:50.952,3365790408,5952,2,1.03076,-0.05249,0.37646,6.26,1.725,2.328
2026-06-15 00:10:50.152,3365789608,6152,1,0.92578,-0.00366,0.53784,7.237,1.366,2.374
2026-06-15 00:10:50.152,3365789608,6152,2,1.03174,-0.04248,0.40234,-1.908,-3.427,-2.0
2026-06-15 00:10:50.352,3365789808,6352,1,0.91357,0.02417,0.54688,-0.832,5.405,-0.168
2026-06-15 00:10:50.352,3365789808,6352,2,1.02051,-0.07764,0.36255,6.115,3.344,-1.26
2026-06-15 00:10:50.552,3365790008,6552,1,0.92188,0.02295,0.53467,1.115,2.565,0.863
2026-06-15 00:10:50.552,3365790008,6552,2,1.01904,-0.05127,0.36108,-1.969,0.519,0.802
2026-06-15 00:10:50.752,3365790208,6752,1,0.90674,0.00879,0.54346,-1.931,2.427,0.794
2026-06-15 00:10:50.752,3365790208,6752,2,1.02124,-0.04395,0.38403,-1.779,4.885,-2.305
2026-06-15 00:10:51.952,3365791408,6952,1,0.92139,-0.0083,0.52368,1.282,2.061,1.405
2026-06-15 00:10:51.952,3365791408,6952,2,1.04834,-0.03955,0.39355,-24.092,-8.015,-0.29
2026-06-15 00:10:51.152,3365790608,7152,1,0.92334,0.01538,0.53369,1.809,1.641,0.779
2026-06-15 00:10:51.152,3365790608,7152,2,1.0354,-0.09888,0.34424,14.496,8.771,0.298
2026-06-15 00:10:51.352,3365790808,7352,1,0.92725,0.01758,0.51978,4.412,2.74,-0.443
2026-06-15 00:10:51.352,3365790808,7352,2,1.01099,-0.05151,0.37061,-1.679,0.427,-1.252
2026-06-15 00:10:51.552,3365791008,7552,1,0.9209,0.01904,0.52124,2.565,1.42,0.511
2026-06-15 00:10:51.552,3365791008,7552,2,1.01758,-0.06396,0.33008,-15.595,-9.42,-1.42
2026-06-15 00:10:51.780,3365791236,7780,1,0.927,0.02173,0.52295,-3.504,2.015,-1.45
2026-06-15 00:10:51.780,3365791236,7780,2,1.04077,-0.05029,0.39648,-5.992,3.053,-2.969
2026-06-15 00:10:52.980,3365792436,7980,1,0.9187,0.01489,0.52954,-2.313,4.344,-0.908
2026-06-15 00:10:52.980,3365792436,7980,2,1.05737,-0.02148,0.41284,10.573,9.985,-0.237
2026-06-15 00:10:52.180,3365791636,8180,1,0.91992,0.0061,0.5354,0.13,1.878,0.435
2026-06-15 00:10:52.180,3365791636,8180,2,1.03442,-0.07568,0.36523,2.321,1.756,0.382
2026-06-15 00:10:52.380,3365791836,8380,1,0.93042,0.01538,0.52612,2.664,-0.038,0.847
2026-06-15 00:10:52.380,3365791836,8380,2,1.01245,-0.09277,0.30542,9.985,-4.031,5.313
2026-06-15 00:10:52.580,3365792036,8580,1,0.92896,0.01099,0.52222,-1.191,1.176,-0.779
2026-06-15 00:10:52.580,3365792036,8580,2,1.03271,-0.07227,0.36401,0.382,2.42,2.099
2026-06-15 00:10:52.780,3365792236,8780,1,0.93115,0.01685,0.51831,1.26,1.42,1.168
2026-06-15 00:10:52.780,3365792236,8780,2,1.02539,-0.07397,0.35205,-4.29,-1.771,0.267
2026-06-15 00:10:53.980,3365793436,8980,1,0.93579,0.01953,0.51978,1.427,1.229,1.763
2026-06-15 00:10:53.980,3365793436,8980,2,1.03076,-0.07031,0.34717,-9.71,-6.191,1.038
2026-06-15 00:10:53.180,3365792636,9180,1,0.93115,0.01758,0.49951,3.733,2.321,2.214
2026-06-15 00:10:53.180,3365792636,9180,2,1.05933,-0.08984,0.36304,-9.122,-1.427,1.885
2026-06-15 00:10:53.380,3365792836,9380,1,0.94116,0.01514,0.50146,2.397,0.901,1.0
2026-06-15 00:10:53.380,3365792836,9380,2,0.99805,-0.07813,0.31201,6.168,3.099,0.42
2026-06-15 00:10:53.580,3365793036,9580,1,0.92749,0.03198,0.51099,-2.405,0.817,1.015
2026-06-15 00:10:53.580,3365793036,9580,2,1.00366,-0.09058,0.35034,-22.107,-13.779,2.573
2026-06-15 00:10:53.780,3365793236,9780,1,0.94385,0.01147,0.49829,4.603,1.626,0.802
2026-06-15 00:10:53.780,3365793236,9780,2,1.05762,-0.04175,0.3479,-25.634,13.511,-5.374
2026-06-15 00:10:54.980,3365794436,9980,1,0.93628,0.0249,0.51587,-2.275,1.42,-0.321
2026-06-15 00:10:54.980,3365794436,9980,2,0.97705,-0.0498,0.3291,-22.733,-13.489,0.267
2026-06-15 00:10:54.180,3365793636,10180,1,0.9353,0.00879,0.51099,-3.061,2.145,0.099
2026-06-15 00:10:54.180,3365793636,10180,2,1.01855,-0.12036,0.37866,7.939,6.008,-0.237
2026-06-15 00:10:54.380,3365793836,10380,1,0.93774,0.01318,0.5105,-0.183,0.947,0.565
2026-06-15 00:10:54.380,3365793836,10380,2,1.0271,-0.09009,0.38672,-9.901,6.771,-5.267
2026-06-15 00:10:54.580,3365794036,10580,1,0.93896,0.02051,0.51074,-1.573,0.573,0.076
2026-06-15 00:10:54.580,3365794036,10580,2,1.0647,-0.09106,0.39478,2.595,9.275,1.008
2026-06-15 00:10:54.780,3365794236,10780,1,0.92969,0.00537,0.4978,2.13,1.389,1.595
2026-06-15 00:10:54.780,3365794236,10780,2,1.04956,-0.07495,0.32251,-3.649,-0.298,0.794
2026-06-15 00:10:55.980,3365795436,10980,1,0.94702,-0.00293,0.50146,-0.618,-0.16,0.305
2026-06-15 00:10:55.980,3365795436,10980,2,0.99976,-0.0918,0.34351,-9.58,-4.458,-0.962
2026-06-15 00:10:55.180,3365794636,11180,1,0.94458,-0.00366,0.48657,0.634,-0.802,0.16
2026-06-15 00:10:55.180,3365794636,11180,2,1.02832,-0.09985,0.35352,5.878,6.099,-3.557
2026-06-15 00:10:55.380,3365794836,11380,1,0.94849,0.00806,0.49072,-1.962,3.702,0.031
2026-06-15 00:10:55.380,3365794836,11380,2,1.01807,-0.10986,0.32715,-8.985,-0.527,0.58
2026-06-15 00:10:55.580,3365795036,11580,1,0.94043,-0.00342,0.48926,0.71,2.55,1.58
2026-06-15 00:10:55.580,3365795036,11580,2,1.02368,-0.12036,0.36914,-11.298,-4.107,1.893
2026-06-15 00:10:55.780,3365795236,11780,1,0.93896,-0.00391,0.48022,1.885,4.359,0.458
2026-06-15 00:10:55.780,3365795236,11780,2,1.02148,-0.10645,0.34741,,-0.321,-0.244
2026-06-15 00:10:56.980,3365796436,11980,1,0.94409,0.00879,0.49414,0.473,1.916,-1.626
2026-06-15 00:10:56.980,3365796436,11980,2,1.03735,-0.09839,0.35571,7.481,4.641,-2.069
2026-06-15 00:10:56.180,3365795636,12180,1,0.93311,,0.49194,1.779,1.443,-0.389
2026-06-15 00:10:56.180,3365795636,12180,2,1.03125,-0.09546,0.36841,-4.931,2.015,-1.382
2026-06-15 00:10:56.380,3365795836,12380,1,0.95532,-0.00122,0.45605,11.137,-1.008,3.229
2026-06-15 00:10:56.380,3365795836,12380,2,0.9209,0.02393,0.40234,-27.328,2.718,-16.786
2026-06-15 00:10:56.580,3365796036,12580,1,0.93872,-0.0127,0.47827,-3.87,1.832,-0.527
2026-06-15 00:10:56.580,3365796036,12580,2,0.9646,-0.1543,0.36401,6.344,-0.038,-4.267
2026-06-15 00:10:56.780,3365796236,12780,1,0.93848,0.00488,0.49683,-3.672,6.328,-0.679
2026-06-15 00:10:56.780,3365796236,12780,2,1.02344,-0.10742,0.36353,7.374,7.427,-1.725
2026-06-15 00:10:57.980,3365797436,12980,1,0.93188,-0.01099,0.49902,-1.435,4.679,-1.756
2026-06-15 00:10:57.980,3365797436,12980,2,1.01489,-0.11792,0.37329,2.527,4.542,-3.573
2026-06-15 00:10:57.180,3365796636,13180,1,0.92798,-0.06616,0.51758,-1.962,5.534,-6.771
2026-06-15 00:10:57.180,3365796636,13180,2,1.01904,-0.12915,0.36572,-1.496,-5.244,-1.71
2026-06-15 00:10:57.380,3365796836,13380,1,0.95264,-0.00195,0.4856,5.931,-0.924,-6.214
2026-06-15 00:10:57.380,3365796836,13380,2,1.02075,-0.0752,0.43652,17.55,8.611,0.443
2026-06-15 00:10:57.580,3365797036,13580,1,0.94238,0.06592,0.50439,7.076,24.802,8.664
2026-06-15 00:10:57.580,3365797036,13580,2,1.02979,0.0708,0.16382,-50.038,-28.229,-21.237
2026-06-15 00:10:57.780,3365797236,13780,1,0.91895,0.14404,0.47803,-14.191,2.183,-2.481
2026-06-15 00:10:57.780,3365797236,13780,2,0.97998,0.07031,0.18481,-47.695,-18.16,-12.168
2026-06-15 00:10:58.980,3365798436,13980,1,0.98438,-0.00952,0.49585,-7.809,15.389,0.137
2026-06-15 00:10:58.980,3365798436,13980,2,0.90381,0.15503,0.25122,-132.664,-51.458,-35.931
2026-06-15 00:10:58.180,3365797636,14180,1,0.92798,0.01807,0.52246,-24.954,5.206,-13.489
2026-06-15 00:10:58.180,3365797636,14180,2,1.06226,-0.07861,0.3269,-1.122,17.649,0.832
2026-06-15 00:10:58.380,3365797836,14380,1,0.86548,-0.06641,0.55811,-17.611,6.122,-3.252
2026-06-15 00:10:58.380,3365797836,14380,2,1.05151,-0.09399,0.3186,-19.298,0.901,-1.191
2026-06-15 00:10:58.602,3365798058,14602,1,0.88354,-0.08301,0.56494,2.771,1.748,1.977
2026-06-15 00:10:58.602,3365798058,14602,2,1.0271,-0.06787,0.31421,8.794,2.809,1.008
2026-06-15 00:10:58.802,3365798258,14802,1,0.90381,-0.04883,0.55908,3.076,-0.275,2.481
2026-06-15 00:10:58.802,3365798258,14802,2,1.03027,-0.0481,0.31494,6.702,2.618,0.511
2026-06-15 00:10:59.002,3365798458,15002,1,0.92188,-0.04053,0.54004,2.595,-0.626,4.115
2026-06-15 00:10:59.002,3365798458,15002,2,1.04932,-0.04321,0.28784,1.076,2.427,0.214
2026-06-15 00:10:59.202,3365798658,15202,1,0.91943,-0.03516,0.54053,0.641,0.817,0.786
2026-06-15 00:10:59.202,3365798658,15202,2,1.04053,-0.04688,0.27563,-0.58,1.176,0.244
2026-06-15 00:10:59.402,3365798858,15402,1,0.92017,-0.02856,0.53198,-1.534,1.664,-1.206
2026-06-15 00:10:59.402,3365798858,15402,2,1.04175,-0.04077,0.26733,-2.107,2.191,-0.153
2026-06-15 00:10:59.602,3365799058,15602,1,0.93262,-0.03296,0.52368,-1.824,0.237,-2.023
2026-06-15 00:10:59.602,3365799058,15602,2,1.04907,-0.06812,0.28394,1.427,2.443,0.847
2026-06-15 00:10:59.802,3365799258,15802,1,0.9314,-0.04541,0.51904,1.603,3.275,0.191
2026-06-15 00:10:59.802,3365799258,15802,2,1.05957,-0.0564,0.26709,9.794,5.458,1.527
2026-06-15 00:11:00.002,3365799458,16002,1,0.91968,-0.01636,0.54907,6.008,8.023,3.763
2026-06-15 00:11:00.002,3365799458,16002,2,1.03931,-0.03589,0.29297,7.412,3.817,1.008
2026-06-15 00:11:00.202,3365799658,16202,1,0.93506,-0.01074,0.53662,-3.908,10.618,-2.0
2026-06-15 00:11:00.202,3365799658,16202,2,1.04028,-0.02466,0.28516,-10.672,0.504,-9.092
2026-06-15 00:11:00.402,3365799858,16402,1,0.89404,-0.0144,0.60791,-9.382,18.756,-5.038
2026-06-15 00:11:00.402,3365799858,16402,2,1.07227,-0.01343,0.29785,-12.603,14.053,-3.817
2026-06-15 00:11:00.602,3365800058,16602,1,0.81982,-0.10522,0.62305,-21.466,8.824,-10.771
2026-06-15 00:11:00.602,3365800058,16602,2,0.9707,-0.04688,0.45679,-38.817,-3.794,-13.275
2026-06-15 00:11:01.208,3365800664,17207,1,0.86523,0.00781,0.61523,1.557,6.947,-8.099
2026-06-15 00:11:01.208,3365800664,17207,2,1.04883,0.00073,0.34033,15.321,2.687,8.725
2026-06-15 00:11:01.589,3365801045,17589,1,0.90894,0.03149,0.59399,10.435,-2.275,11.718
2026-06-15 00:11:01.589,3365801045,17589,2,1.02295,0.04468,0.26807,-8.374,-6.863,-4.489
2026-06-15 00:11:02.001,3365801457,18001,1,0.93213,0.03418,0.55249,3.328,-1.916,2.069
2026-06-15 00:11:02.001,3365801457,18001,2,1.04346,0.02954,0.30151,-5.954,-2.71,-3.893
2026-06-15 00:11:02.201,3365801657,18201,1,0.93042,0.04346,0.58252,5.015,-2.718,-4.244
2026-06-15 00:11:02.201,3365801657,18201,2,0.98608,0.02417,0.38452,-20.863,-4.481,-8.305
2026-06-15 00:11:02.489,3365801945,18489,1,0.91724,0.02686,0.54077,4.313,-1.29,2.649
2026-06-15 00:11:02.489,3365801945,18489,2,1.0354,-0.0332,0.34619,-5.519,2.71,-1.786
2026-06-15 00:11:02.721,3365802177,18721,1,0.91382,0.0105,0.54517,0.832,4.473,1.534
2026-06-15 00:11:02.721,3365802177,18721,2,1.03394,-0.03979,0.29688,-0.176,-0.053,1.908
2026-06-15 00:11:03.932,3365803388,18932,1,0.92627,0.01538,0.51172,0.305,3.458,1.878
2026-06-15 00:11:03.932,3365803388,18932,2,1.07568,-0.00903,0.35059,6.84,6.252,2.733
2026-06-15 00:11:03.132,3365802588,19132,1,0.96606,0.03662,0.54321,-1.626,63.496,15.16
2026-06-15 00:11:03.132,3365802588,19132,2,0.92358,0.0437,0.30957,35.969,66.137,-28.275
2026-06-15 00:11:03.332,3365802788,19332,1,0.70996,-0.00806,0.60474,-2.008,79.374,10.16
2026-06-15 00:11:03.332,3365802788,19332,2,0.75708,0.21729,0.59888,13.924,77.275,-58.252
2026-06-15 00:11:03.532,3365802988,19532,1,0.24512,-0.05811,0.93164,-0.473,104.916,12.389
2026-06-15 00:11:03.532,3365802988,19532,2,0.65015,0.29175,0.80664,-5.496,54.557,-40.122
2026-06-15 00:11:03.732,3365803188,19732,1,0.02368,-0.09131,1.13623,1.649,65.145,7.473
2026-06-15 00:11:03.732,3365803188,19732,2,0.44019,0.42041,0.93164,-3.832,31.206,-21.947
2026-06-15 00:11:04.932,3365804388,19932,1,-0.09009,-0.07495,1.11597,-1.611,35.992,3.832
2026-06-15 00:11:04.932,3365804388,19932,2,0.36646,0.44702,0.92651,10.634,27.557,-9.534
2026-06-15 00:11:04.132,3365803588,20132,1,-0.19287,-0.08447,1.09937,-1.58,18.779,2.992
2026-06-15 00:11:04.132,3365803588,20132,2,0.31372,0.45703,0.96729,1.618,6.496,-2.137
2026-06-15 00:11:04.332,3365803788,20332,1,-0.16455,-0.05737,1.00781,3.458,8.008,3.237
2026-06-15 00:11:04.332,3365803788,20332,2,0.32202,0.4502,0.94531,2.504,4.252,0.527
2026-06-15 00:11:04.532,3365803988,20532,1,-0.17969,-0.05688,1.0459,5.595,1.939,2.443
2026-06-15 00:11:04.532,3365803988,20532,2,0.34473,0.47925,0.9729,-7.008,-11.313,3.695
2026-06-15 00:11:04.764,3365804220,20764,1,-0.26733,-0.03296,1.21533,1.664,-21.267,-4.939
2026-06-15 00:11:04.764,3365804220,20764,2,0.43579,0.42432,0.9668,-2.282,-52.115,29.84
2026-06-15 00:11:05.002,3365804458,21002,1,-0.01294,-0.02222,1.08081,5.435,-100.412,-3.55
2026-06-15 00:11:05.002,3365804458,21002,2,0.62866,0.29688,0.7417,8.481,-72.336,55.809
2026-06-15 00:11:05.202,3365804658,21202,1,0.45972,-0.00366,0.70435,-6.824,-119.969,-11.42
2026-06-15 00:11:05.202,3365804658,21202,2,0.84546,0.12744,0.58032,-28.137,-76.786,47.786
2026-06-15 00:11:05.402,3365804858,21402,1,0.81421,-0.00854,0.56763,3.443,-69.29,-12.908
2026-06-15 00:11:05.402,3365804858,21402,2,1.05493,-0.06372,0.43042,-34.374,-40.237,12.878
2026-06-15 00:11:05.637,3365805093,21637,1,0.99561,0.03638,0.51611,3.809,-25.771,-0.023
2026-06-15 00:11:05.637,3365805093,21637,2,1.05835,0.00122,0.33838,-6.763,-4.885,0.153
2026-06-15 00:11:05.844,3365805300,21844,1,0.95068,0.04761,0.49438,-6.168,-0.656,-2.588
2026-06-15 00:11:05.844,3365805300,21844,2,1.05469,-0.02954,0.32129,-7.893,0.824,-1.916
2026-06-15 00:11:06.044,3365805500,22044,1,0.92285,0.02539,0.52197,-9.603,8.275,-1.237
2026-06-15 00:11:06.044,3365805500,22044,2,1.03931,-0.04639,0.32666,-0.687,5.847,0.847
2026-06-15 00:11:06.244,3365805700,22244,1,0.91528,0.00049,0.53467,-3.603,6.29,-0.855
2026-06-15 00:11:06.244,3365805700,22244,2,1.04321,-0.07031,0.31787,3.893,3.748,1.061
2026-06-15 00:11:06.510,3365805966,22510,1,0.90698,0.01001,0.55151,0.817,3.809,-0.092
2026-06-15 00:11:06.510,3365805966,22510,2,1.04077,-0.07007,0.32202,-1.725,0.122,-0.26
2026-06-15 00:11:06.710,3365806166,22710,1,0.90527,0.01465,0.54248,0.053,2.198,0.046
2026-06-15 00:11:06.710,3365806166,22710,2,1.0332,-0.0708,0.3313,0.542,2.122,-0.87
2026-06-15 00:11:07.910,3365807366,22910,1,0.91455,-0.0022,0.55273,0.702,2.489,1.565
2026-06-15 00:11:07.910,3365807366,22910,2,1.04175,-0.05591,0.31689,-1.634,1.168,-0.397
2026-06-15 00:11:07.110,3365806566,23110,1,0.91187,0.00952,0.55249,1.359,2.328,1.374
2026-06-15 00:11:07.110,3365806566,23110,2,1.02686,-0.07227,0.31738,7.527,5.969,0.252
2026-06-15 00:11:07.310,3365806766,23310,1,0.91138,0.00293,0.55249,0.252,1.55,0.405
2026-06-15 00:11:07.310,3365806766,23310,2,1.03833,-0.05859,0.3269,0.511,1.679,-0.275
2026-06-15 00:11:07.510,3365806966,23510,1,0.91992,0.00781,0.55469,0.634,1.863,0.733
2026-06-15 00:11:07.510,3365806966,23510,2,1.03442,-0.06079,0.32349,0.206,1.763,-0.374
2026-06-15 00:11:07.710,3365807166,23710,1,0.90601,0.00439,0.55786,0.794,1.336,0.374
2026-06-15 00:11:07.710,3365807166,23710,2,1.03442,-0.0625,0.3374,5.198,4.908,0.595
2026-06-15 00:11:08.918,3365808374,23918,1,0.91162,0.00317,0.54736,1.603,0.641,0.908
2026-06-15 00:11:08.918,3365808374,23918,2,1.03369,-0.05933,0.33887,1.931,2.008,-0.573
2026-06-15 00:11:08.118,3365807574,24118,1,0.91284,0.00366,0.54077,1.008,1.046,0.534
2026-06-15 00:11:08.118,3365807574,24118,2,1.03589,-0.06226,0.32617,-0.649,1.618,-0.771
2026-06-15 00:11:08.318,3365807774,24318,1,0.95142,0.03076,0.46362,-1.84,-12.885,3.908
2026-06-15 00:11:08.318,3365807774,24318,2,1.06177,-0.10156,0.28442,5.191,-2.771,10.878
2026-06-15 00:11:08.518,3365807974,24518,1,0.94019,-0.02759,0.48169,-6.137,3.618,-3.527
2026-06-15 00:11:08.518,3365807974,24518,2,1.02344,-0.09399,0.323,5.542,9.679,-2.969
2026-06-15 00:11:08.718,3365808174,24718,1,0.91626,-0.02441,0.52637,0.031,5.092,-0.084
2026-06-15 00:11:08.718,3365808174,24718,2,1.02856,-0.09814,0.3291,3.046,1.977,0.13
2026-06-15 00:11:09.954,3365809410,24954,1,0.91016,-0.00586,0.52539,0.641,2.603,-0.069
2026-06-15 00:11:09.954,3365809410,24954,2,1.02515,-0.09644,0.34741,-1.504,0.786,0.237
2026-06-15 00:11:09.154,3365808610,25154,1,0.93384,-0.02222,0.54785,0.55,10.611,-2.069
2026-06-15 00:11:09.154,3365808610,25154,2,1.00415,-0.07227,0.38477,2.206,6.511,-7.275
2026-06-15 00:11:09.354,3365808810,25354,1,0.91479,-0.00244,0.54199,3.649,-1.16,2.145
2026-06-15 00:11:09.354,3365808810,25354,2,1.05029,-0.07104,0.35962,3.534,5.893,-0.924
2026-06-15 00:11:09.554,3365809010,25554,1,0.91113,-0.00513,0.54419,-2.382,1.603,0.046
2026-06-15 00:11:09.554,3365809010,25554,2,1.04077,-0.08984,0.34082,-3.489,-0.504,-0.748
2026-06-15 00:11:09.764,3365809220,25764,1,0.9436,0.08008,0.52856,-12.29,2.511,-0.183
2026-06-15 00:11:09.764,3365809220,25764,2,1.04932,-0.08154,0.43335,-25.84,26.092,2.237
2026-06-15 00:11:10.964,3365810420,25964,1,0.87622,-0.21021,0.52295,-36.26,13.664,-10.748
2026-06-15 00:11:10.964,3365810420,25964,2,0.97339,-0.21533,0.36499,-24.344,6.206,-8.038
2026-06-15 00:11:10.164,3365809620,26164,1,0.9021,-0.27124,0.50732,7.672,-7.099,-13.87
2026-06-15 00:11:10.164,3365809620,26164,2,0.98877,0.14844,0.45166,38.847,32.427,-20.809
2026-06-15 00:11:10.451,3365809907,26450,1,0.95825,0.19067,0.69678,34.344,9.443,6.168
2026-06-15 00:11:10.451,3365809907,26450,2,0.91187,0.24756,0.34937,-23.656,-22.275,-22.069
2026-06-15 00:11:10.729,3365810185,26728,1,0.75171,0.21558,0.56909,22.626,7.916,7.244
2026-06-15 00:11:10.729,3365810185,26728,2,0.95581,0.03296,0.23462,-3.092,-18.626,15.687
2026-06-15 00:11:11.140,3365810596,27140,1,0.8728,-0.09888,0.5354,31.58,-4.802,10.099
2026-06-15 00:11:11.140,3365810596,27140,2,1.00757,-0.05518,0.36987,43.534,10.603,15.603
2026-06-15 00:11:11.571,3365811027,27571,1,0.94312,0.19263,0.55835,53.809,1.893,26.321
2026-06-15 00:11:11.571,3365811027,27571,2,1.20703,0.10571,0.17749,-12.13,-25.298,15.84
2026-06-15 00:11:11.771,3365811227,27771,1,0.85669,0.22778,0.5498,15.145,1.008,12.183
2026-06-15 00:11:11.771,3365811227,27771,2,1.16064,-0.0542,0.44775,27.595,-1.794,23.031
2026-06-15 00:11:12.205,3365811661,28205,1,0.90527,0.08716,0.52026,-0.145,12.847,-5.626
2026-06-15 00:11:12.205,3365811661,28205,2,1.04614,-0.14087,0.26978,-1.427,-4.649,6.931
2026-06-15 00:11:12.448,3365811904,28448,1,0.85718,-0.04395,0.54517,-6.191,0.099,-4.153
2026-06-15 00:11:12.448,3365811904,28448,2,1.00146,-0.12891,0.32397,28.519,12.321,14.107
2026-06-15 00:11:12.648,3365812104,28648,1,0.92896,0.05444,0.50513,1.924,7.405,-2.626
2026-06-15 00:11:12.648,3365812104,28648,2,1.02661,-0.0542,0.28882,54.435,22.84,31.878
2026-06-15 00:11:13.848,3365813304,28848,1,0.95654,-0.03198,0.4939,12.298,-3.908,7.595
2026-06-15 00:11:13.848,3365813304,28848,2,1.01807,0.00024,0.3064,-6.42,-2.786,-7.107
2026-06-15 00:11:13.048,3365812504,29048,1,0.97314,0.03809,0.45972,11.435,10.832,4.435
2026-06-15 00:11:13.048,3365812504,29048,2,1.03345,-0.03345,0.3269,52.053,30.351,5.916
2026-06-15 00:11:15.934,3365815390,30934,1,0.93994,0.03442,0.50317,0.595,4.031,1.809
2026-06-15 00:11:15.934,3365815390,30934,2,1.0481,-0.01709,0.2771,2.71,4.008,-0.962
2026-06-15 00:11:18.982,3365818438,33982,1,0.92798,0.04565,0.52051,2.206,3.321,0.221
2026-06-15 00:11:18.982,3365818438,33982,2,1.03687,-0.01807,0.28076,7.634,2.496,1.84
2026-06-15 00:11:18.182,3365817638,34182,1,0.93115,0.04834,0.5127,5.046,2.267,1.802
2026-06-15 00:11:18.182,3365817638,34182,2,1.04883,-0.01538,0.29688,-5.557,-3.55,-3.13
2026-06-15 00:11:18.382,3365817838,34382,1,0.93188,0.06006,0.51709,2.672,2.221,0.626
2026-06-15 00:11:18.382,3365817838,34382,2,1.04224,0.00073,0.27661,-0.832,0.756,-1.641
2026-06-15 00:11:18.582,3365818038,34582,1,0.93066,0.06641,0.51196,1.817,1.634,-0.023
2026-06-15 00:11:18.582,3365818038,34582,2,1.04443,-0.00537,0.28394,1.733,3.45,-0.214
2026-06-15 00:11:18.782,3365818238,34782,1,0.92969,0.0603,0.5022,-1.0,1.824,0.359
2026-06-15 00:11:18.782,3365818238,34782,2,1.03613,-0.00537,0.28491,-2.656,1.237,-1.275
2026-06-15 00:11:19.982,3365819438,34982,1,0.93628,0.04688,0.50781,-1.771,2.725,0.237
2026-06-15 00:11:19.982,3365819438,34982,2,1.04248,-0.01392,0.29297,0.336,2.031,0.42
2026-06-15 00:11:19.182,3365818638,35182,1,0.93359,0.04346,0.50684,0.015,3.176,0.649
2026-06-15 00:11:19.182,3365818638,35182,2,1.04565,-0.01318,0.28613,0.626,1.718,0.29
2026-06-15 00:11:19.382,3365818838,35382,1,0.9209,0.03735,0.51489,0.481,2.076,1.29
2026-06-15 00:11:19.382,3365818838,35382,2,1.0498,-0.01709,0.2915,-0.282,1.725,-1.191
2026-06-15 00:11:19.582,3365819038,35582,1,0.93481,0.03491,0.51245,1.229,1.863,0.611
2026-06-15 00:11:19.582,3365819038,35582,2,1.04565,-0.02832,0.2854,-2.427,-1.557,-0.191
2026-06-15 00:11:19.782,3365819238,35782,1,0.9231,0.03931,0.51587,2.901,1.237,0.809
2026-06-15 00:11:19.782,3365819238,35782,2,1.03662,-0.00781,0.25928,2.023,-2.458,0.26
2026-06-15 00:11:20.996,3365820452,35996,1,0.94507,0.05566,0.48853,3.389,-0.771,-0.725
2026-06-15 00:11:20.996,3365820452,35996,2,1.05103,-0.01563,0.26929,2.13,-0.794,0.534
2026-06-15 00:11:20.196,3365819652,36196,1,0.95898,0.03589,0.4917,0.969,3.519,-0.763
2026-06-15 00:11:20.196,3365819652,36196,2,1.04517,-0.04248,0.28418,8.145,6.924,1.504
2026-06-15 00:11:20.421,3365819877,36421,1,0.93506,0.04102,0.50317,0.939,5.733,0.45
2026-06-15 00:11:20.421,3365819877,36421,2,1.0481,-0.04004,0.30591,14.137,8.763,1.023
2026-06-15 00:11:20.621,3365820077,36621,1,0.93872,0.04175,0.52515,5.588,6.336,4.718
2026-06-15 00:11:20.621,3365820077,36621,2,1.04248,-0.02441,0.34058,12.015,6.168,0.053
2026-06-15 00:11:21.868,3365821324,36867,1,0.8999,0.12915,0.53491,15.794,11.405,15.947
2026-06-15 00:11:21.868,3365821324,36867,2,1.06738,0.06299,0.14966,-57.031,-26.305,-11.542
2026-06-15 00:11:21.176,3365820632,37175,1,0.92188,0.09326,0.58838,4.511,-6.779,-4.0
2026-06-15 00:11:21.176,3365820632,37175,2,1.02393,0.14087,0.24243,-55.206,-9.252,-19.359
2026-06-15 00:11:21.375,3365820831,37375,1,0.84521,-0.12207,0.53979,-15.344,35.824,-11.038
2026-06-15 00:11:21.375,3365820831,37375,2,0.88574,-0.19385,0.41821,-55.58,-21.527,-21.489
2026-06-15 00:11:21.575,3365821031,37575,1,0.50391,-0.02319,0.49609,-9.824,34.366,-3.924
2026-06-15 00:11:21.575,3365821031,37575,2,0.7915,0.04175,0.41528,-32.183,-33.565,9.252
2026-06-15 00:11:21.794,3365821250,37794,1,0.6792,0.12817,0.61914,-5.863,4.359,-0.794
2026-06-15 00:11:21.794,3365821250,37794,2,1.04907,0.09814,0.42236,47.656,19.702,9.298
2026-06-15 00:11:22.994,3365822450,37994,1,0.85254,0.08228,0.62354,-9.863,21.443,12.84
2026-06-15 00:11:22.994,3365822450,37994,2,1.06641,0.16748,0.48291,-12.748,32.153,-5.046
2026-06-15 00:11:22.194,3365821650,38194,1,0.7085,-0.0835,0.87256,-38.573,25.481,-5.87
2026-06-15 00:11:22.194,3365821650,38194,2,1.07031,0.00928,0.78394,-55.534,-23.611,-7.13
2026-06-15 00:11:22.394,3365821850,38394,1,0.80249,-0.06812,0.97729,-15.878,5.756,-10.916
2026-06-15 00:11:22.394,3365821850,38394,2,1.08447,-0.03442,0.62744,15.221,-0.275,9.55
2026-06-15 00:11:22.594,3365822050,38594,1,0.7959,-0.12183,0.79028,27.634,-15.382,16.611
2026-06-15 00:11:22.594,3365822050,38594,2,0.92969,0.17456,0.55762,1.992,-13.206,1.611
2026-06-15 00:11:22.794,3365822250,38794,1,0.79321,-0.02271,0.7146,-0.038,-0.344,-8.977
2026-06-15 00:11:22.794,3365822250,38794,2,1.47949,0.13989,0.73438,-48.985,-32.275,-13.611
2026-06-15 00:11:23.080,3365822536,39079,1,0.96045,-0.04761,0.98071,5.824,36.221,0.74
2026-06-15 00:11:23.080,3365822536,39079,2,1.03687,-0.00732,0.5752,55.618,22.069,9.031
2026-06-15 00:11:23.279,3365822735,39279,1,0.74829,0.02515,0.93408,7.565,-10.969,2.26
2026-06-15 00:11:23.279,3365822735,39279,2,0.87134,0.12769,0.52051,14.664,-2.855,-1.053
2026-06-15 00:11:23.653,3365823109,39653,1,0.45557,0.02124,0.46167,-1.794,-27.733,-2.908
2026-06-15 00:11:23.653,3365823109,39653,2,0.7002,0.02759,0.18896,13.183,-33.122,22.557
2026-06-15 00:11:24.868,3365824324,39868,1,0.90674,0.10132,0.62744,-9.527,0.763,-3.641
2026-06-15 00:11:24.868,3365824324,39868,2,0.97778,0.02051,0.20215,26.817,11.099,17.557
2026-06-15 00:11:24.068,3365823524,40068,1,0.85474,0.08545,0.58374,-24.351,-6.824,-5.924
2026-06-15 00:11:24.068,3365823524,40068,2,1.0481,0.06006,0.28735,-7.924,2.183,0.145
2026-06-15 00:11:24.268,3365823724,40268,1,0.88623,0.01147,0.58398,0.664,2.008,3.359
2026-06-15 00:11:24.268,3365823724,40268,2,1.07397,-0.01416,0.26294,7.794,7.229,-0.176
2026-06-15 00:11:24.496,3365823952,40496,1,0.89063,0.01709,0.59692,-1.282,10.824,1.153
2026-06-15 00:11:24.496,3365823952,40496,2,1.02246,0.00903,0.26929,-3.504,3.069,-2.229
2026-06-15 00:11:24.696,3365824152,40696,1,0.91089,-0.02515,0.54736,2.931,16.595,1.42
2026-06-15 00:11:24.696,3365824152,40696,2,0.77344,-0.02661,0.32153,32.947,35.527,-9.634
2026-06-15 00:11:25.896,3365825352,40896,1,0.61279,0.12012,0.41211,-1.595,19.252,12.237
2026-06-15 00:11:25.896,3365825352,40896,2,1.00024,-0.03442,0.48389,-5.42,-10.336,17.763
2026-06-15 00:11:25.105,3365824561,41105,1,0.91797,-0.06104,0.65283,7.71,4.557,5.038
2026-06-15 00:11:25.105,3365824561,41105,2,1.0437,0.00659,0.24341,4.13,7.878,-5.145
2026-06-15 00:11:25.305,3365824761,41305,1,0.72754,-0.05298,0.7417,-0.191,22.748,5.87
2026-06-15 00:11:25.305,3365824761,41305,2,0.95459,0.08691,0.36719,-3.206,5.282,-9.145
2026-06-15 00:11:25.505,3365824961,41505,1,0.78809,0.03101,0.82373,5.977,10.908,5.908
2026-06-15 00:11:25.505,3365824961,41505,2,1.16309,0.19482,0.66187,-32.809,-10.679,-3.763
2026-06-15 00:11:25.731,3365825187,41731,1,0.87109,-0.01831,0.99146,12.809,3.954,8.977
2026-06-15 00:11:25.731,3365825187,41731,2,1.09399,0.19531,0.69507,-7.237,0.725,-3.794
2026-06-15 00:11:26.931,3365826387,41931,1,0.70996,-0.05981,0.79712,-3.71,7.664,-10.366
2026-06-15 00:11:26.931,3365826387,41931,2,1.03882,0.04541,0.51392,-17.351,-7.977,-10.527
2026-06-15 00:11:26.131,3365825587,42131,1,0.72705,0.01782,0.85669,3.924,7.282,2.725
2026-06-15 00:11:26.131,3365825587,42131,2,0.97388,0.05005,0.54907,11.626,9.298,-6.221
2026-06-15 00:11:26.331,3365825787,42331,1,0.70166,0.0188,0.79907,-1.779,9.641,-8.435
2026-06-15 00:11:26.331,3365825787,42331,2,0.95337,0.12598,0.52515,-3.359,10.053,-7.26
2026-06-15 00:11:26.553,3365826009,42553,1,0.67822,-0.00244,0.91431,-2.588,9.87,-4.473
2026-06-15 00:11:26.553,3365826009,42553,2,0.92944,0.10474,0.56104,-6.008,11.153,-8.58
2026-06-15 00:11:26.753,3365826209,42753,1,0.86328,0.00659,1.12451,-1.473,8.908,-4.015
2026-06-15 00:11:26.753,3365826209,42753,2,1.01025,0.33179,0.74023,72.214,49.809,10.84
2026-06-15 00:11:27.974,3365827430,42974,1,0.64014,-0.03687,1.13867,-6.878,-9.374,-0.214
2026-06-15 00:11:27.974,3365827430,42974,2,0.9729,0.09619,0.68237,50.664,-6.405,20.763
2026-06-15 00:11:27.174,3365826630,43174,1,0.6958,-0.0144,0.69385,9.901,-48.321,7.336
2026-06-15 00:11:27.174,3365826630,43174,2,0.78979,0.14966,0.46143,2.267,-32.985,21.344
2026-06-15 00:11:27.374,3365826830,43374,1,0.27222,0.00562,0.30078,-6.817,-35.305,-0.58
2026-06-15 00:11:27.374,3365826830,43374,2,0.66797,-0.0376,0.25757,26.672,-7.489,24.71
2026-06-15 00:11:27.574,3365827030,43574,1,0.97974,0.03076,0.58154,-17.542,-20.443,-13.45
2026-06-15 00:11:27.574,3365827030,43574,2,1.08643,-0.12866,0.44165,41.008,9.42,20.298
2026-06-15 00:11:27.774,3365827230,43774,1,0.9646,-0.00244,0.53735,16.794,-3.603,7.901
2026-06-15 00:11:27.774,3365827230,43774,2,1.02979,0.01025,0.28687,18.267,5.053,5.061
2026-06-15 00:11:28.974,3365828430,43974,1,0.91602,0.02026,0.56128,6.893,-1.076,-0.901
2026-06-15 00:11:28.974,3365828430,43974,2,1.0437,-0.0481,0.25098,-10.931,-6.763,-6.527
2026-06-15 00:11:28.174,3365827630,44174,1,0.94214,0.02148,0.53516,2.908,-0.855,-0.496
2026-06-15 00:11:28.174,3365827630,44174,2,1.05884,-0.03149,0.25586,2.145,0.221,0.191
2026-06-15 00:11:28.374,3365827830,44374,1,0.9248,0.03516,0.53979,5.267,3.305,4.191
2026-06-15 00:11:28.374,3365827830,44374,2,1.06812,-0.00684,0.2854,3.565,1.13,0.756
2026-06-15 00:11:28.574,3365828030,44574,1,0.89478,0.05273,0.56665,1.641,3.42,0.122
2026-06-15 00:11:28.574,3365828030,44574,2,1.04858,-0.00366,0.27197,1.267,3.0,-1.229
2026-06-15 00:11:28.774,3365828230,44774,1,0.90454,0.03589,0.54517,-1.176,1.885,-0.603
2026-06-15 00:11:28.774,3365828230,44774,2,1.05127,-0.01831,0.27344,-2.214,1.084,-0.252
2026-06-15 00:11:29.974,3365829430,44974,1,0.90503,0.02808,0.55933,0.168,1.992,1.092
2026-06-15 00:11:29.974,3365829430,44974,2,1.04663,-0.01318,0.29126,-0.664,2.191,-0.275
2026-06-15 00:11:29.174,3365828630,45174,1,0.90649,0.02832,0.55835,0.458,2.366,0.954
2026-06-15 00:11:29.174,3365828630,45174,2,1.0459,-0.02637,0.30981,3.71,3.069,1.191
2026-06-15 00:11:29.374,3365828830,45374,1,0.90649,0.02026,0.56543,1.786,3.527,2.046
2026-06-15 00:11:29.374,3365828830,45374,2,1.04907,-0.03369,0.30249,2.733,1.687,0.733
2026-06-15 00:11:29.574,3365829030,45574,1,0.9021,0.01758,0.55444,0.977,2.519,1.664
2026-06-15 00:11:29.574,3365829030,45574,2,1.03857,-0.03271,0.30151,-0.244,-0.336,0.771
2026-06-15 00:11:29.774,3365829230,45774,1,0.90186,0.02368,0.55859,0.359,0.756,0.511
2026-06-15 00:11:29.774,3365829230,45774,2,1.04712,-0.03589,0.28027,1.206,1.412,1.13
2026-06-15 00:11:30.004,3365829460,46004,1,0.91553,0.02124,0.54639,0.076,0.565,-0.359
2026-06-15 00:11:30.004,3365829460,46004,2,1.0481,-0.03296,0.28711,1.42,1.015,0.504
2026-06-15 00:11:30.204,3365829660,46204,1,0.90991,0.0249,0.5498,1.405,3.046,-0.061
2026-06-15 00:11:30.204,3365829660,46204,2,1.05762,-0.0293,0.28564,-1.191,0.45,-1.588
2026-06-15 00:11:30.404,3365829860,46404,1,0.99683,0.03101,0.59668,-0.534,9.275,-0.45
2026-06-15 00:11:30.404,3365829860,46404,2,1.02295,-0.00732,0.30933,5.252,12.939,-4.237
2026-06-15 00:11:30.604,3365830060,46604,1,0.8999,0.03687,0.5625,0.908,26.733,3.542
2026-06-15 00:11:30.604,3365830060,46604,2,1.05688,0.07324,0.36377,11.466,39.672,-20.969
2026-06-15 00:11:30.804,3365830260,46804,1,0.74707,-0.00342,0.5979,-8.802,78.893,1.198
2026-06-15 00:11:30.804,3365830260,46804,2,0.87134,0.10278,0.48242,13.382,69.237,-49.588
2026-06-15 00:11:31.004,3365830460,47004,1,0.42188,0.00122,0.80078,-3.122,97.359,7.687
2026-06-15 00:11:31.004,3365830460,47004,2,0.76709,0.2124,0.78711,-11.321,66.924,-43.565
2026-06-15 00:11:31.204,3365830660,47204,1,0.12769,-0.05029,1.03564,5.924,80.145,3.275
2026-06-15 00:11:31.204,3365830660,47204,2,0.56006,0.40234,0.83813,-5.191,47.763,-33.733
2026-06-15 00:11:31.404,3365830860,47404,1,-0.10547,-0.01025,1.0437,4.916,65.321,-2.481
2026-06-15 00:11:31.404,3365830860,47404,2,0.41357,0.41016,0.948,0.321,50.977,-31.74
2026-06-15 00:11:31.617,3365831073,47617,1,-0.27759,-0.01123,1.07861,-5.092,52.29,-6.16
2026-06-15 00:11:31.617,3365831073,47617,2,0.20923,0.41968,1.10791,-9.931,27.641,-17.641
2026-06-15 00:11:31.817,3365831273,47817,1,-0.44507,-0.02393,1.01196,3.321,24.55,1.885
2026-06-15 00:11:31.817,3365831273,47817,2,0.12109,0.42285,0.99438,-2.626,15.351,-11.504
2026-06-15 00:11:32.017,3365831473,48017,1,-0.4978,0.02075,1.02612,9.305,13.947,0.382
2026-06-15 00:11:32.017,3365831473,48017,2,0.06909,0.44653,1.08862,0.802,0.832,-5.153
2026-06-15 00:11:32.245,3365831701,48245,1,-0.45825,0.01294,0.95044,1.198,-5.435,-2.855
2026-06-15 00:11:32.245,3365831701,48245,2,0.10547,0.479,1.01758,2.908,-14.771,5.198
2026-06-15 00:11:32.454,3365831910,48454,1,-0.53711,0.01685,1.10522,2.344,-17.489,1.679
2026-06-15 00:11:32.454,3365831910,48454,2,0.17578,0.44067,1.10522,5.473,-33.26,16.214
2026-06-15 00:11:32.654,3365832110,48654,1,-0.34937,0.04663,1.04443,1.26,-76.336,1.122
2026-06-15 00:11:32.654,3365832110,48654,2,0.34839,0.44531,0.9502,4.679,-67.771,36.855
2026-06-15 00:11:33.854,3365833310,48854,1,-0.05566,0.03613,1.03809,-6.679,-116.359,1.74
2026-06-15 00:11:33.854,3365833310,48854,2,0.74683,0.25928,0.64087,-29.458,-117.679,65.664
2026-06-15 00:11:33.054,3365832510,49054,1,0.52588,-0.00464,0.5127,-3.542,-135.756,2.244
2026-06-15 00:11:33.054,3365832510,49054,2,0.96655,0.06714,0.44043,12.275,-65.336,47.473
2026-06-15 00:11:33.254,3365832710,49254,1,0.92993,-0.04224,0.53296,3.031,-46.313,9.718
2026-06-15 00:11:33.254,3365832710,49254,2,1.08789,-0.09521,0.32642,4.985,-21.244,8.305
2026-06-15 00:11:33.454,3365832910,49454,1,0.89307,0.00122,0.60596,-0.695,1.733,3.237
2026-06-15 00:11:33.454,3365832910,49454,2,1.04053,-0.02197,0.2937,-3.977,-10.687,4.046
2026-06-15 00:11:33.654,3365833110,49654,1,0.88306,-0.02563,0.63306,1.855,5.71,4.817
2026-06-15 00:11:33.654,3365833110,49654,2,1.06055,-0.05249,0.27954,-1.008,4.076,-3.13
2026-06-15 00:11:34.854,3365834310,49854,1,0.84277,0.00684,0.65479,-0.305,15.176,-0.45
2026-06-15 00:11:34.854,3365834310,49854,2,1.03979,-0.02197,0.33179,-1.962,6.511,-9.962
2026-06-15 00:11:34.054,3365833510,50054,1,0.85522,0.00806,0.65454,-1.71,7.29,-0.13
2026-06-15 00:11:34.054,3365833510,50054,2,1.02734,0.00708,0.30176,3.855,9.275,-2.374
2026-06-15 00:11:34.254,3365833710,50254,1,0.88696,-0.03198,0.61987,6.542,19.71,1.519
2026-06-15 00:11:34.254,3365833710,50254,2,1.0874,0.02271,0.39233,22.252,33.206,-16.779
2026-06-15 00:11:34.454,3365833910,50454,1,0.70923,-0.00293,0.67505,4.985,63.748,2.84
2026-06-15 00:11:34.454,3365833910,50454,2,0.96802,0.10205,0.49048,10.389,74.328,-36.748
2026-06-15 00:11:34.654,3365834110,50654,1,0.40015,-0.00708,0.87231,5.206,93.817,0.794
2026-06-15 00:11:34.654,3365834110,50654,2,0.75659,0.33447,0.66919,8.084,64.893,-33.489
2026-06-15 00:11:35.854,3365835310,50854,1,0.19922,-0.02075,0.9646,5.053,85.695,4.405
2026-06-15 00:11:35.854,3365835310,50854,2,0.63306,0.3269,0.92798,-10.519,61.221,-39.252
2026-06-15 00:11:35.054,3365834510,51054,1,-0.14868,0.01685,1.03564,15.824,69.588,12.573
2026-06-15 00:11:35.054,3365834510,51054,2,0.50317,0.49487,0.9353,-3.947,45.992,-24.504
2026-06-15 00:11:35.254,3365834710,51254,1,-0.32813,0.01025,1.07227,1.855,44.26,2.954
2026-06-15 00:11:35.254,3365834710,51254,2,0.34058,0.36328,1.0127,-1.626,23.374,-11.786
2026-06-15 00:11:35.466,3365834922,51465,1,-0.44751,0.12451,1.05396,4.908,9.351,2.87
2026-06-15 00:11:35.466,3365834922,51465,2,0.2627,0.36157,0.95581,8.87,10.924,-0.71
2026-06-15 00:11:35.665,3365835121,51665,1,-0.39624,0.06128,0.94214,4.527,6.679,-0.901
2026-06-15 00:11:35.665,3365835121,51665,2,0.25098,0.39795,1.01489,-3.275,-0.328,-6.29
2026-06-15 00:11:36.865,3365836321,51865,1,-0.40234,0.05322,0.93604,-2.214,4.214,-4.198
2026-06-15 00:11:36.865,3365836321,51865,2,0.25122,0.37646,1.00195,-1.359,5.557,-2.176
2026-06-15 00:11:36.065,3365835521,52065,1,-0.4314,0.09229,0.94165,0.855,10.198,-0.412
2026-06-15 00:11:36.065,3365835521,52065,2,0.17944,0.43091,1.03906,8.008,8.298,-2.26
2026-06-15 00:11:36.286,3365835742,52286,1,-0.45508,0.09424,0.92456,1.076,4.733,1.336
2026-06-15 00:11:36.286,3365835742,52286,2,0.17993,0.42432,1.01392,-0.878,2.679,1.069
2026-06-15 00:11:36.535,3365835991,52535,1,-0.53101,0.08398,0.98315,-10.344,-6.252,-5.786
2026-06-15 00:11:36.535,3365835991,52535,2,0.18506,0.37988,1.0376,-1.122,-11.679,8.725
2026-06-15 00:11:36.735,3365836191,52735,1,-0.56982,0.02856,1.16309,-0.313,-45.74,-7.695
2026-06-15 00:11:36.735,3365836191,52735,2,0.26929,0.38892,1.17261,-13.924,-55.412,28.336
2026-06-15 00:11:37.935,3365837391,52935,1,-0.2251,0.08643,1.06299,2.901,-106.947,7.382
2026-06-15 00:11:37.935,3365837391,52935,2,0.61719,0.23364,0.81616,13.252,-79.618,52.496
2026-06-15 00:11:37.135,3365836591,53135,1,0.23682,0.00537,0.74536,2.351,-138.275,11.977
2026-06-15 00:11:37.135,3365836591,53135,2,0.80103,0.19897,0.51758,9.885,-85.389,66.023
2026-06-15 00:11:37.335,3365836791,53335,1,0.66895,0.03931,0.63086,-3.71,-85.672,0.962
2026-06-15 00:11:37.335,3365836791,53335,2,0.99072,0.04297,0.45728,-20.374,-53.626,36.412
2026-06-15 00:11:37.535,3365836991,53535,1,0.91309,0.04053,0.56104,-5.84,-39.824,2.351
2026-06-15 00:11:37.535,3365836991,53535,2,1.1062,-0.05444,0.30762,6.656,0.908,5.763
2026-06-15 00:11:37.795,3365837251,53794,1,0.91431,-0.02319,0.5564,1.084,7.763,2.031
2026-06-15 00:11:37.795,3365837251,53794,2,1.05664,-0.06982,0.26367,14.557,7.794,0.611
2026-06-15 00:11:38.994,3365838450,53994,1,0.86157,0.01685,0.59448,0.916,12.061,-1.496
2026-06-15 00:11:38.994,3365838450,53994,2,1.02026,-0.05273,0.24097,-4.237,10.305,-7.71
2026-06-15 00:11:38.194,3365837650,54194,1,0.88452,-0.01025,0.59253,-4.527,-0.588,-4.885
2026-06-15 00:11:38.194,3365837650,54194,2,1.04688,-0.06592,0.27319,-2.206,0.183,-1.74
2026-06-15 00:11:38.412,3365837868,54412,1,0.89429,0.00659,0.59009,0.702,-0.985,-3.298
2026-06-15 00:11:38.412,3365837868,54412,2,1.04468,-0.06885,0.27124,-0.198,-0.229,-2.153
2026-06-15 00:11:38.612,3365838068,54612,1,0.8833,0.01782,0.58984,3.55,0.321,2.115
2026-06-15 00:11:38.612,3365838068,54612,2,1.03223,-0.06787,0.26465,2.702,1.595,2.641
2026-06-15 00:11:38.812,3365838268,54812,1,1.01245,0.04175,0.48804,-3.412,-15.496,6.832
2026-06-15 00:11:38.812,3365838268,54812,2,1.07349,-0.07446,0.25537,1.969,-2.519,15.733
2026-06-15 00:11:39.012,3365838468,55012,1,0.93799,-0.06006,0.50977,-11.26,3.122,-1.427
2026-06-15 00:11:39.012,3365838468,55012,2,1.05225,-0.16113,0.26587,-6.939,1.939,-4.885
2026-06-15 00:11:39.259,3365838715,55259,1,0.91309,-0.07153,0.53052,0.573,8.519,-3.985
2026-06-15 00:11:39.259,3365838715,55259,2,1.06689,-0.10864,0.28125,7.847,11.595,-8.366
2026-06-15 00:11:39.459,3365838915,55459,1,0.87695,-0.01318,0.5813,4.71,6.115,-5.13
2026-06-15 00:11:39.459,3365838915,55459,2,1.02271,-0.05273,0.33838,4.305,2.908,-6.458
2026-06-15 00:11:39.659,3365839115,55659,1,0.87988,0.00537,0.59521,3.641,2.115,-0.916
2026-06-15 00:11:39.659,3365839115,55659,2,1.03198,-0.04663,0.30566,-3.557,-1.489,-2.695
2026-06-15 00:11:40.859,3365840315,55859,1,0.8833,0.01367,0.5791,4.183,-0.695,1.916
2026-06-15 00:11:40.859,3365840315,55859,2,1.03931,-0.05078,0.29395,4.458,0.534,2.382
2026-06-15 00:11:40.059,3365839515,56059,1,0.91797,0.01855,0.56982,3.901,1.702,5.473
2026-06-15 00:11:40.059,3365839515,56059,2,1.04272,-0.04834,0.30518,2.221,1.885,1.985
2026-06-15 00:11:40.259,3365839715,56259,1,0.89844,-0.00659,0.5686,1.366,2.702,2.366
2026-06-15 00:11:40.259,3365839715,56259,2,1.03735,-0.05859,0.2959,2.29,2.718,-0.672
2026-06-15 00:11:40.459,3365839915,56459,1,0.89648,-0.00806,0.5791,1.092,1.282,0.115
2026-06-15 00:11:40.459,3365839915,56459,2,1.0542,-0.06104,0.29907,-1.26,-0.542,-0.656
2026-06-15 00:11:40.659,3365840115,56659,1,0.89258,-0.00464,0.5686,2.504,2.053,0.244
2026-06-15 00:11:40.659,3365840115,56659,2,1.04346,-0.07104,0.29224,3.763,1.71,1.107
2026-06-15 00:11:41.859,3365841315,56859,1,0.90381,-0.00244,0.56177,1.969,1.855,0.313
2026-06-15 00:11:41.859,3365841315,56859,2,1.04663,-0.06982,0.30151,-1.679,-0.504,-3.763
2026-06-15 00:11:41.059,3365840515,57059,1,0.90088,0.01196,0.58325,2.634,6.649,-3.588
2026-06-15 00:11:41.059,3365840515,57059,2,1.02124,-0.05786,0.28296,-0.969,-1.13,-3.496
2026-06-15 00:11:41.259,3365840715,57259,1,0.89624,0.01953,0.57373,-1.389,3.756,-0.542
2026-06-15 00:11:41.259,3365840715,57259,2,1.03271,-0.06226,0.27637,0.702,3.099,-0.046
2026-06-15 00:11:41.459,3365840915,57459,1,0.90503,0.01538,0.56592,0.412,1.893,0.618
2026-06-15 00:11:41.459,3365840915,57459,2,1.04614,-0.04199,0.27686,4.916,3.817,0.305
2026-06-15 00:11:41.659,3365841115,57659,1,0.896,0.02197,0.57495,4.931,1.802,1.328
2026-06-15 00:11:41.659,3365841115,57659,2,1.05518,-0.04663,0.27979,4.092,1.802,-0.985
2026-06-15 00:11:42.859,3365842315,57859,1,0.90234,0.03369,0.57007,3.725,1.931,1.198
2026-06-15 00:11:42.859,3365842315,57859,2,1.03467,-0.03687,0.29663,3.58,1.45,-0.008
2026-06-15 00:11:42.059,3365841515,58059,1,0.89648,0.03223,0.58228,9.618,3.603,3.794
2026-06-15 00:11:42.059,3365841515,58059,2,1.04395,-0.02441,0.27759,12.443,2.58,0.183
2026-06-15 00:11:42.259,3365841715,58259,1,0.88745,0.04053,0.58765,8.122,2.557,4.046
2026-06-15 00:11:42.259,3365841715,58259,2,1.03906,-0.02075,0.28442,1.511,-0.611,-1.374
2026-06-15 00:11:42.459,3365841915,58459,1,0.88647,0.02612,0.57642,-0.069,2.649,-0.176
2026-06-15 00:11:42.459,3365841915,58459,2,1.04419,-0.02783,0.29785,-0.443,1.878,0.221
2026-06-15 00:11:42.659,3365842115,58659,1,0.89624,0.02271,0.57373,0.42,1.87,1.084
2026-06-15 00:11:42.659,3365842115,58659,2,1.04883,-0.02661,0.30078,-1.0,1.023,-1.107
2026-06-15 00:11:43.859,3365843315,58859,1,0.89087,0.03857,0.57593,0.229,2.45,0.038
2026-06-15 00:11:43.859,3365843315,58859,2,1.04492,-0.02539,0.28442,-0.053,2.099,-0.084
2026-06-15 00:11:43.059,3365842515,59059,1,0.89063,0.03198,0.58838,-2.031,2.069,-0.603
2026-06-15 00:11:43.059,3365842515,59059,2,1.04248,-0.03345,0.2959,-0.153,1.573,0.649
2026-06-15 00:11:43.259,3365842715,59259,1,0.89722,0.02832,0.5603,-0.382,2.901,0.702
2026-06-15 00:11:43.259,3365842715,59259,2,1.04932,-0.03491,0.30054,-0.038,1.496,0.573
2026-06-15 00:11:43.459,3365842915,59459,1,0.87842,0.02417,0.5791,-0.221,3.878,1.275
2026-06-15 00:11:43.459,3365842915,59459,2,1.04224,-0.04688,0.28687,0.298,2.649,-0.443
2026-06-15 00:11:43.701,3365843157,59701,1,0.89258,0.01685,0.58228,-0.618,2.656,0.046
2026-06-15 00:11:43.701,3365843157,59701,2,1.04468,-0.04419,0.28955,-1.847,1.107,0.374
2026-06-15 00:11:44.901,3365844357,59901,1,0.89111,0.01489,0.57813,-0.229,2.389,0.092
2026-06-15 00:11:44.901,3365844357,59901,2,1.04346,-0.04468,0.29321,-2.664,1.779,-1.511
2026-06-15 00:11:44.101,3365843557,60101,1,0.88965,0.01563,0.58374,-0.641,4.802,-1.053
2026-06-15 00:11:44.101,3365843557,60101,2,1.04321,-0.03027,0.3269,1.145,7.221,-4.603
2026-06-15 00:11:44.315,3365843771,60315,1,0.89478,0.02905,0.59229,1.137,10.557,-1.031
2026-06-15 00:11:44.315,3365843771,60315,2,1.01953,-0.01978,0.31348,7.55,15.275,-9.252
2026-06-15 00:11:44.515,3365843971,60515,1,0.86133,0.04321,0.63232,10.221,-0.847,-0.443
2026-06-15 00:11:44.515,3365843971,60515,2,1.05615,0.12744,0.30518,-15.565,-2.878,-21.061
2026-06-15 00:11:44.715,3365844171,60715,1,0.84692,0.01392,0.56616,-19.313,32.55,-20.511
2026-06-15 00:11:44.715,3365844171,60715,2,0.97192,-0.13525,0.5,-39.489,0.069,-25.382
2026-06-15 00:11:45.915,3365845371,60915,1,0.23706,0.12085,0.51831,22.611,37.481,23.969
2026-06-15 00:11:45.915,3365845371,60915,2,0.96655,0.0752,0.5,-72.802,-16.26,7.931
2026-06-15 00:11:45.115,3365844571,61115,1,0.64404,0.03345,0.7356,-26.992,20.618,-8.595
2026-06-15 00:11:45.115,3365844571,61115,2,0.9021,0.03564,0.46899,-16.382,0.137,6.405
2026-06-15 00:11:45.315,3365844771,61315,1,0.64063,0.04004,0.85938,-1.893,16.58,19.115
2026-06-15 00:11:45.315,3365844771,61315,2,1.06641,0.10889,0.58691,-23.023,5.084,-1.603
2026-06-15 00:11:45.515,3365844971,61515,1,0.67896,-0.05811,0.96753,-7.275,17.229,2.13
2026-06-15 00:11:45.515,3365844971,61515,2,0.97217,0.11694,0.71924,25.786,36.672,-5.863
2026-06-15 00:11:45.715,3365845171,61715,1,0.69727,-0.15552,0.99634,-28.664,-4.176,-19.824
2026-06-15 00:11:45.715,3365845171,61715,2,0.97485,0.09009,0.75684,-0.702,14.16,-9.931
2026-06-15 00:11:46.915,3365846371,61915,1,0.62915,-0.17847,0.9231,-9.29,-17.084,-3.405
2026-06-15 00:11:46.915,3365846371,61915,2,1.0249,0.01245,0.65674,11.618,-10.321,3.519
2026-06-15 00:11:46.115,3365845571,62115,1,0.77271,-0.1001,0.81592,29.374,-6.855,12.496
2026-06-15 00:11:46.115,3365845571,62115,2,1.04004,0.0918,0.60425,3.427,-9.954,-1.702
2026-06-15 00:11:46.326,3365845782,62326,1,1.19897,-0.12427,1.08301,-3.282,30.405,-14.809
2026-06-15 00:11:46.326,3365845782,62326,2,0.91504,0.18848,0.5498,12.122,-15.107,0.901
2026-06-15 00:11:46.587,3365846043,62587,1,0.57837,-0.00635,1.06201,-1.252,-11.809,2.55
2026-06-15 00:11:46.587,3365846043,62587,2,0.95117,0.10059,0.67407,43.771,-3.939,19.588
2026-06-15 00:11:46.787,3365846243,62787,1,0.58862,-0.06519,0.80444,5.542,-23.015,14.137
2026-06-15 00:11:46.787,3365846243,62787,2,0.83984,0.0166,0.58569,-1.366,-10.565,8.061
2026-06-15 00:11:47.987,3365847443,62987,1,0.31738,-0.00391,0.41675,-2.206,-39.855,1.344
2026-06-15 00:11:47.987,3365847443,62987,2,0.60669,0.073,0.31616,6.206,-38.855,19.13
2026-06-15 00:11:47.187,3365846643,63187,1,0.93848,-0.03101,0.59131,0.947,-24.74,-12.137
2026-06-15 00:11:47.187,3365846643,63187,2,1.05444,-0.06226,0.42603,-37.809,-29.924,-7.649
2026-06-15 00:11:47.405,3365846861,63405,1,0.88574,-0.02124,0.59985,5.344,6.13,-3.359
2026-06-15 00:11:47.405,3365846861,63405,2,1.03345,0.04956,0.40747,23.191,22.733,-7.45
2026-06-15 00:11:47.605,3365847061,63605,1,0.83228,0.02515,0.67017,4.015,13.779,0.679
2026-06-15 00:11:47.605,3365847061,63605,2,1.03857,0.0564,0.43848,1.924,12.55,-7.26
2026-06-15 00:11:47.805,3365847261,63805,1,0.80786,-0.0354,0.53857,2.237,70.092,0.389
2026-06-15 00:11:47.805,3365847261,63805,2,0.83203,0.25366,0.53833,9.626,80.573,-57.74
2026-06-15 00:11:48.005,3365847461,64005,1,0.35352,0.01904,0.82495,2.366,129.863,1.099
2026-06-15 00:11:48.005,3365847461,64005,2,0.74414,0.26685,0.63745,-1.832,72.542,-55.58
2026-06-15 00:11:48.205,3365847661,64205,1,0.02441,0.01807,1.04712,2.74,95.634,2.031
2026-06-15 00:11:48.205,3365847661,64205,2,0.47095,0.44092,0.88037,5.374,88.595,-50.298
2026-06-15 00:11:48.405,3365847861,64405,1,-0.47217,-0.00757,1.09009,0.832,79.176,0.351
2026-06-15 00:11:48.405,3365847861,64405,2,0.10986,0.50098,0.93237,-11.015,40.405,-29.183
2026-06-15 00:11:48.605,3365848061,64605,1,-0.50293,0.02563,1.0354,-2.794,26.023,0.221
2026-06-15 00:11:48.605,3365848061,64605,2,0.11646,0.39209,1.04517,4.702,7.588,-0.794
2026-06-15 00:11:48.835,3365848291,64835,1,-0.48315,0.06226,0.95093,5.947,-0.557,3.771
2026-06-15 00:11:48.835,3365848291,64835,2,0.11499,0.41748,1.07275,-3.168,-4.168,4.382
2026-06-15 00:11:49.035,3365848491,65035,1,-0.39404,0.05957,0.91943,8.504,-2.969,1.382
2026-06-15 00:11:49.035,3365848491,65035,2,0.17285,0.42773,0.96655,-1.153,-0.13,1.046
2026-06-15 00:11:49.235,3365848691,65235,1,-0.48315,0.0376,1.04443,1.603,5.405,-1.55
2026-06-15 00:11:49.235,3365848691,65235,2,0.13989,0.38184,1.05981,-5.244,-8.084,4.183
2026-06-15 00:11:49.435,3365848891,65435,1,-0.44897,0.04077,0.94067,-5.504,-12.756,3.061
2026-06-15 00:11:49.435,3365848891,65435,2,0.19458,0.37622,0.99902,-3.702,-12.344,10.824
2026-06-15 00:11:49.635,3365849091,65635,1,-0.37305,0.00342,0.9751,-5.344,-19.168,1.511
2026-06-15 00:11:49.635,3365849091,65635,2,0.25317,0.37402,1.0376,-12.015,-16.809,15.038
2026-06-15 00:11:49.835,3365849291,65835,1,-0.35791,0.04321,1.15137,1.496,-43.756,7.893
2026-06-15 00:11:49.835,3365849291,65835,2,0.44336,0.3938,0.98779,0.214,-57.771,37.382
2026-06-15 00:11:50.035,3365849491,66035,1,-0.13354,0.02856,1.12402,-3.298,-104.412,-1.939
2026-06-15 00:11:50.035,3365849491,66035,2,0.67432,0.24731,0.81787,8.718,-88.282,52.908
2026-06-15 00:11:50.235,3365849691,66235,1,0.34888,0.00854,0.70752,10.504,-124.947,9.023
2026-06-15 00:11:50.235,3365849691,66235,2,0.82788,0.16309,0.53687,20.786,-77.573,61.947
2026-06-15 00:11:50.435,3365849891,66435,1,0.75195,0.00708,0.52319,16.496,-94.29,6.26
2026-06-15 00:11:50.435,3365849891,66435,2,1.09961,0.10742,0.44043,-62.992,-54.29,14.809
2026-06-15 00:11:50.705,3365850161,66705,1,0.98853,0.02197,0.4834,0.634,-22.901,-7.115
2026-06-15 00:11:50.705,3365850161,66705,2,1.11865,-0.0127,0.23682,14.405,5.122,0.107
2026-06-15 00:11:51.905,3365851361,66905,1,0.94556,0.06934,0.51221,-1.481,0.237,3.366
2026-06-15 00:11:51.905,3365851361,66905,2,1.07031,-0.0415,0.24683,0.664,0.382,4.802
2026-06-15 00:11:51.122,3365850578,67122,1,0.91211,-0.00244,0.53467,-14.931,13.313,-1.328
2026-06-15 00:11:51.122,3365850578,67122,2,1.04785,-0.03345,0.23462,-26.008,1.397,-7.198
2026-06-15 00:11:51.322,3365850778,67322,1,0.90283,0.00195,0.56909,-3.176,4.137,-3.863
2026-06-15 00:11:51.322,3365850778,67322,2,1.052,-0.06372,0.25342,-6.321,6.397,-2.466
2026-06-15 00:11:51.522,3365850978,67522,1,0.8894,0.01611,0.56226,5.412,1.695,3.198
2026-06-15 00:11:51.522,3365850978,67522,2,1.0437,-0.07666,0.23877,6.023,4.015,0.221
2026-06-15 00:11:51.772,3365851228,67772,1,0.91089,0.00659,0.55273,3.336,2.565,-2.069
2026-06-15 00:11:51.772,3365851228,67772,2,1.05151,-0.04858,0.24097,2.855,1.794,-3.137
2026-06-15 00:11:52.979,3365852435,67978,1,0.89502,0.03442,0.56006,3.359,4.053,-0.481
2026-06-15 00:11:52.979,3365852435,67978,2,1.03564,-0.04565,0.25415,9.366,6.336,-0.679
2026-06-15 00:11:52.178,3365851634,68178,1,0.90454,0.02881,0.56567,6.405,5.298,3.443
2026-06-15 00:11:52.178,3365851634,68178,2,1.04663,-0.03125,0.27783,4.435,5.985,-0.985
2026-06-15 00:11:52.396,3365851852,68396,1,0.89722,0.02783,0.58081,1.214,-0.908,1.092
2026-06-15 00:11:52.396,3365851852,68396,2,1.052,-0.04395,0.28394,-3.137,1.908,0.107
2026-06-15 00:11:52.596,3365852052,68596,1,0.90063,0.0498,0.57568,0.458,7.977,2.771
2026-06-15 00:11:52.596,3365852052,68596,2,1.04639,-0.05054,0.28296,-4.374,-2.527,-0.511
2026-06-15 00:11:53.900,3365853356,68900,1,0.90649,0.03027,0.57715,0.885,-1.42,0.824
2026-06-15 00:11:53.900,3365853356,68900,2,1.05103,-0.04272,0.27222,-0.832,-1.275,0.534
2026-06-15 00:11:53.100,3365852556,69100,1,0.86426,0.03735,0.60742,4.183,-4.725,3.191
2026-06-15 00:11:53.100,3365852556,69100,2,1.05518,-0.02075,0.27808,9.183,-0.527,8.664
2026-06-15 00:11:53.306,3365852762,69306,1,0.97656,0.07446,0.49194,1.107,-2.702,6.733
2026-06-15 00:11:53.306,3365852762,69306,2,1.07129,-0.0896,0.21582,-2.656,1.824,6.351
2026-06-15 00:11:53.543,3365852999,69543,1,0.90479,-0.01416,0.51416,-10.977,9.099,-4.817
2026-06-15 00:11:53.543,3365852999,69543,2,1.04565,-0.07715,0.28296,5.847,1.634,5.679
2026-06-15 00:11:54.938,3365854394,69938,1,0.92725,0.00049,0.52954,-5.527,3.641,-3.13
2026-06-15 00:11:54.938,3365854394,69938,2,1.03711,-0.09302,0.25952,-5.489,1.885,-2.061
2026-06-15 00:11:54.138,3365853594,70138,1,0.91138,0.00903,0.55322,-1.58,8.466,0.046
2026-06-15 00:11:54.138,3365853594,70138,2,1.04541,-0.08887,0.27075,-10.382,4.382,-2.901
2026-06-15 00:11:54.338,3365853794,70338,1,0.8855,-0.00806,0.5647,-3.565,5.679,-1.061
2026-06-15 00:11:54.338,3365853794,70338,2,1.05322,-0.10205,0.26709,1.153,8.198,-5.336
2026-06-15 00:11:54.538,3365853994,70538,1,0.88794,-0.04541,0.58423,-3.885,15.595,-12.099
2026-06-15 00:11:54.538,3365853994,70538,2,1.02319,-0.10156,0.27783,-9.351,4.168,-14.229
2026-06-15 00:11:54.747,3365854203,70747,1,0.89551,0.03564,0.57861,4.298,-2.076,3.71
2026-06-15 00:11:54.747,3365854203,70747,2,1.04126,-0.04761,0.26563,0.305,-0.802,1.328
2026-06-15 00:11:55.947,3365855403,70947,1,0.91479,0.01465,0.57861,2.534,-1.603,1.214
2026-06-15 00:11:55.947,3365855403,70947,2,1.04688,-0.06445,0.26538,9.947,5.74,0.107
2026-06-15 00:11:55.147,3365854603,71147,1,0.90845,0.02417,0.55811,9.015,0.496,3.863
2026-06-15 00:11:55.147,3365854603,71147,2,1.05322,-0.04688,0.25977,1.45,-0.466,-3.099
2026-06-15 00:11:55.347,3365854803,71347,1,0.91602,0.0481,0.54395,5.359,0.618,1.832
2026-06-15 00:11:55.347,3365854803,71347,2,1.04834,-0.06323,0.26123,11.16,0.74,0.863
2026-06-15 00:11:55.547,3365855003,71547,1,0.91528,0.03223,0.55469,0.649,2.046,-1.618
2026-06-15 00:11:55.547,3365855003,71547,2,1.04395,-0.05518,0.26709,-3.985,1.359,-2.542
2026-06-15 00:11:55.747,3365855203,71747,1,0.91211,-0.04272,0.56616,14.992,4.618,13.977
2026-06-15 00:11:55.747,3365855203,71747,2,1.05591,-0.0918,0.24951,-49.58,-27.427,-15.275
2026-06-15 00:11:56.970,3365856426,71970,1,0.89673,0.00269,0.55933,-0.176,1.046,0.366
2026-06-15 00:11:56.970,3365856426,71970,2,1.04932,-0.01074,0.25488,3.931,5.466,1.16
2026-06-15 00:11:56.170,3365855626,72170,1,0.89893,0.01318,0.58008,-2.29,4.237,-3.473
2026-06-15 00:11:56.170,3365855626,72170,2,1.04321,-0.0415,0.26733,5.702,6.214,0.237
2026-06-15 00:11:56.370,3365855826,72370,1,0.88745,0.02148,0.59131,0.885,2.763,-2.191
2026-06-15 00:11:56.370,3365855826,72370,2,1.05127,-0.02637,0.28735,2.969,4.099,0.344
2026-06-15 00:11:56.705,3365856161,72705,1,0.8894,0.02417,0.59131,-0.511,2.092,-0.87
2026-06-15 00:11:56.705,3365856161,72705,2,1.04297,-0.02783,0.28564,-0.244,1.802,0.504
2026-06-15 00:11:57.905,3365857361,72905,1,0.89307,0.02075,0.55542,1.397,4.924,-0.092
2026-06-15 00:11:57.905,3365857361,72905,2,1.05371,-0.02124,0.30566,1.29,6.061,-4.13
2026-06-15 00:11:57.105,3365856561,73105,1,0.96875,0.0481,0.54565,3.092,33.221,-3.588
2026-06-15 00:11:57.105,3365856561,73105,2,1.07642,0.1438,0.41846,7.954,49.641,-36.534
2026-06-15 00:11:57.305,3365856761,73305,1,0.7124,0.04297,0.59058,-2.557,95.847,-4.038
2026-06-15 00:11:57.305,3365856761,73305,2,0.84473,0.19336,0.56079,4.71,65.786,-51.061
2026-06-15 00:11:57.505,3365856961,73505,1,0.2959,0.0188,0.84106,5.802,113.405,0.298
2026-06-15 00:11:57.505,3365856961,73505,2,0.65576,0.28589,0.69482,-20.771,69.183,-60.901
2026-06-15 00:11:57.705,3365857161,73705,1,-0.02075,0.073,1.10376,0.679,89.733,-4.046
2026-06-15 00:11:57.705,3365857161,73705,2,0.43066,0.46191,0.91895,5.748,54.382,-29.771
2026-06-15 00:11:58.905,3365858361,73905,1,-0.31909,0.03223,1.11914,2.55,55.519,-3.214
2026-06-15 00:11:58.905,3365858361,73905,2,0.25903,0.43774,1.0022,-12.947,20.565,-21.695
2026-06-15 00:11:58.105,3365857561,74105,1,-0.34961,0.021,1.00464,6.611,28.389,-1.71
2026-06-15 00:11:58.105,3365857561,74105,2,0.16284,0.50854,0.98071,-4.611,20.847,-14.237
2026-06-15 00:11:58.305,3365857761,74305,1,-0.44141,0.08374,0.98267,2.305,10.649,-0.29
2026-06-15 00:11:58.305,3365857761,74305,2,0.11353,0.48901,0.97266,-3.832,1.87,0.191
2026-06-15 00:11:58.505,3365857961,74505,1,-0.53931,0.04468,1.08789,-4.145,-14.947,-0.931
2026-06-15 00:11:58.505,3365857961,74505,2,0.22876,0.34277,0.94849,-12.992,-16.573,13.031
2026-06-15 00:11:58.738,3365858194,74738,1,-0.43018,0.05859,1.13599,-0.29,-23.641,5.672
2026-06-15 00:11:58.738,3365858194,74738,2,0.2771,0.40454,1.06885,-4.511,-42.237,22.328
2026-06-15 00:11:59.938,3365859394,74938,1,-0.27148,0.03589,1.15503,6.031,-79.824,10.229
2026-06-15 00:11:59.938,3365859394,74938,2,0.52393,0.37012,0.8916,-2.893,-80.557,44.336
2026-06-15 00:11:59.138,3365858594,75138,1,0.18506,0.08667,0.85205,-8.023,-120.382,10.374
2026-06-15 00:11:59.138,3365858594,75138,2,0.74414,0.19092,0.6355,-5.412,-91.29,54.55
2026-06-15 00:11:59.338,3365858794,75338,1,0.63623,0.02246,0.61011,-1.634,-103.191,10.733
2026-06-15 00:11:59.338,3365858794,75338,2,0.97046,0.04468,0.42578,-14.725,-74.878,44.153
2026-06-15 00:11:59.538,3365858994,75538,1,0.948,-0.08008,0.49463,-10.511,-35.855,9.168
2026-06-15 00:11:59.538,3365858994,75538,2,1.15454,-0.14624,0.30957,-5.542,-24.031,12.931
2026-06-15 00:11:59.738,3365859194,75738,1,1.04346,-0.03516,0.51929,26.206,-13.733,9.145
2026-06-15 00:11:59.738,3365859194,75738,2,1.02979,-0.08447,0.19922,31.611,17.168,0.588
2026-06-15 00:12:00.938,3365860394,75938,1,0.8125,-0.00757,0.6499,9.832,9.802,1.824
2026-06-15 00:12:00.938,3365860394,75938,2,1.04858,0.04346,0.34546,3.817,7.29,-2.13
2026-06-15 00:12:00.138,3365859594,76138,1,0.87305,-0.00098,0.6123,-11.351,19.45,-10.985
2026-06-15 00:12:00.138,3365859594,76138,2,1.0481,-0.06934,0.31006,-3.107,14.832,-9.733
2026-06-15 00:12:00.338,3365859794,76338,1,0.74561,0.01172,0.69873,5.038,43.145,4.382
2026-06-15 00:12:00.338,3365859794,76338,2,1.01782,0.1355,0.28149,-13.817,23.534,-11.725
2026-06-15 00:12:00.538,3365859994,76538,1,0.53516,-0.05908,0.78662,-1.183,24.435,3.344
2026-06-15 00:12:00.538,3365859994,76538,2,0.82275,0.00171,0.42578,15.687,16.542,-10.176
2026-06-15 00:12:00.738,3365860194,76738,1,0.44824,-0.07764,0.71655,6.519,6.786,3.084
2026-06-15 00:12:00.738,3365860194,76738,2,0.83032,0.11426,0.49707,-16.42,-0.351,-6.374
2026-06-15 00:12:01.938,3365861394,76938,1,0.67725,-0.04272,0.72852,11.069,-15.389,4.137
2026-06-15 00:12:01.938,3365861394,76938,2,0.91968,0.21094,0.35742,-0.58,0.55,4.298
2026-06-15 00:12:01.138,3365860594,77138,1,0.7771,-0.0813,0.76245,1.588,-6.763,1.466
2026-06-15 00:12:01.138,3365860594,77138,2,1.0166,0.08716,0.49756,-33.786,-10.412,-2.29
2026-06-15 00:12:01.338,3365860794,77338,1,0.81421,-0.00952,1.01758,-4.321,7.313,6.481
2026-06-15 00:12:01.338,3365860794,77338,2,1.19629,-0.0127,0.62476,3.466,4.435,2.58
2026-06-15 00:12:01.538,3365860994,77538,1,0.79443,-0.00415,0.81372,2.863,6.84,9.435
2026-06-15 00:12:01.538,3365860994,77538,2,1.0813,0.14038,0.59839,3.58,-1.336,-4.847
2026-06-15 00:12:01.738,3365861194,77738,1,0.85498,0.01855,0.76953,4.168,10.275,-1.198
2026-06-15 00:12:01.738,3365861194,77738,2,0.94873,0.08179,0.51294,-0.489,15.137,-11.725
2026-06-15 00:12:02.938,3365862394,77938,1,0.62549,-0.03198,0.88892,3.458,4.115,-5.947
2026-06-15 00:12:02.938,3365862394,77938,2,1.02295,0.11743,0.58325,2.244,4.252,-1.901
2026-06-15 00:12:02.138,3365861594,78138,1,0.68848,0.01099,0.75854,3.435,3.092,-1.672
2026-06-15 00:12:02.138,3365861594,78138,2,1.00317,0.10034,0.58521,-13.122,10.794,-8.191
2026-06-15 00:12:02.532,3365861988,78532,1,0.89673,0.01855,1.34937,18.26,33.878,2.229
2026-06-15 00:12:02.532,3365861988,78532,2,0.92432,0.21899,0.77539,1.954,5.504,-5.115
2026-06-15 00:12:02.732,3365862188,78732,1,0.61206,0.0647,0.97583,-2.023,-18.84,-5.183
2026-06-15 00:12:02.732,3365862188,78732,2,0.85132,0.07153,0.69531,2.359,-24.183,7.718
2026-06-15 00:12:03.932,3365863388,78932,1,0.63867,0.04419,0.71021,-0.061,-36.321,3.641
2026-06-15 00:12:03.932,3365863388,78932,2,0.71558,0.06421,0.46997,13.626,-22.603,33.321
2026-06-15 00:12:03.300,3365862756,79300,1,0.67773,-0.04346,0.48511,-4.901,-35.122,-14.58
2026-06-15 00:12:03.300,3365862756,79300,2,1.08643,-0.07739,0.58032,-8.87,-9.489,5.435
2026-06-15 00:12:03.500,3365862956,79500,1,0.89795,-0.00073,0.59937,9.237,8.084,4.282
2026-06-15 00:12:03.500,3365862956,79500,2,0.99146,-0.05835,0.33252,-34.466,-31.275,-4.595
2026-06-15 00:12:03.700,3365863156,79700,1,0.90698,0.04077,0.52979,7.71,-9.084,6.382
2026-06-15 00:12:03.700,3365863156,79700,2,1.06421,-0.04443,0.27686,-1.924,-5.176,4.863
2026-06-15 00:12:04.900,3365864356,79900,1,0.9375,0.03589,0.51001,0.969,-4.137,-2.634
2026-06-15 00:12:04.900,3365864356,79900,2,1.06396,-0.05054,0.27734,-0.817,6.588,-1.115
2026-06-15 00:12:04.134,3365863590,80134,1,0.93286,0.03052,0.52148,-1.962,2.176,-0.687
2026-06-15 00:12:04.134,3365863590,80134,2,1.04517,-0.06787,0.29663,-0.405,1.008,3.107
2026-06-15 00:12:04.334,3365863790,80334,1,0.92358,0.02979,0.5354,2.847,4.855,3.763
2026-06-15 00:12:04.334,3365863790,80334,2,1.04395,-0.04736,0.26978,2.053,-0.496,
2026-06-15 00:12:04.534,3365863990,80534,1,0.91504,0.03101,0.54346,1.718,4.649,1.137
2026-06-15 00:12:04.534,3365863990,80534,2,1.03613,-0.03638,0.29541,1.321,2.985,-1.328
2026-06-15 00:12:04.734,3365864190,80734,1,0.91406,0.01782,0.54565,1.847,4.435,2.481
2026-06-15 00:12:04.734,3365864190,80734,2,1.05054,-0.05518,0.27441,0.122,0.023,-0.168
2026-06-15 00:12:05.934,3365865390,80934,1,0.91235,0.01953,0.54712,2.191,2.687,0.863
2026-06-15 00:12:05.934,3365865390,80934,2,1.04468,-0.04321,0.28345,-0.198,0.679,-0.542
2026-06-15 00:12:05.134,3365864590,81134,1,0.91626,0.02734,0.54443,0.901,2.305,-1.145
2026-06-15 00:12:05.134,3365864590,81134,2,1.04663,-0.05322,0.26514,-5.321,-8.427,-0.275
2026-06-15 00:12:05.372,3365864828,81372,1,0.92114,0.06909,0.53687,7.061,4.863,9.519
2026-06-15 00:12:05.372,3365864828,81372,2,1.04492,-0.04785,0.22925,3.168,5.282,1.885
2026-06-15 00:12:05.572,3365865028,81572,1,0.91357,0.00537,0.55615,-0.16,1.344,5.71
2026-06-15 00:12:05.572,3365865028,81572,2,1.05371,-0.06763,0.2439,0.908,1.42,1.412
2026-06-15 00:12:05.772,3365865228,81772,1,0.90942,-0.0188,0.56274,-1.107,2.443,-1.321
2026-06-15 00:12:05.772,3365865228,81772,2,1.04785,-0.07983,0.26123,-0.214,0.656,-0.618
2026-06-15 00:12:06.972,3365866428,81972,1,0.92065,0.00562,0.55273,5.481,3.771,1.427
2026-06-15 00:12:06.972,3365866428,81972,2,1.05273,-0.04883,0.26318,22.458,6.015,3.313
2026-06-15 00:12:06.172,3365865628,82172,1,0.90283,0.03223,0.5603,15.481,2.252,5.122
2026-06-15 00:12:06.172,3365865628,82172,2,1.04688,-0.02686,0.24609,14.275,2.099,-5.015
2026-06-15 00:12:06.372,3365865828,82372,1,0.90601,0.05884,0.56006,17.779,5.244,4.458
2026-06-15 00:12:06.372,3365865828,82372,2,1.07227,0.01709,0.26563,19.397,5.26,-4.802
2026-06-15 00:12:06.572,3365866028,82572,1,0.92407,-0.01978,0.64502,15.435,4.969,6.023
2026-06-15 00:12:06.572,3365866028,82572,2,0.90405,-0.13403,0.36426,9.046,18.893,13.725
2026-06-15 00:12:07.859,3365867315,82859,1,0.91357,0.08228,0.64502,25.374,20.511,11.206
2026-06-15 00:12:07.859,3365867315,82859,2,0.97363,-0.07935,0.38501,71.405,33.672,14.771
2026-06-15 00:12:07.059,3365866515,83059,1,0.90503,0.09473,0.61768,36.756,21.092,17.153
2026-06-15 00:12:07.059,3365866515,83059,2,1.01294,0.02539,0.19995,64.275,21.015,4.527
2026-06-15 00:12:07.259,3365866715,83259,1,0.86499,0.18774,0.5769,13.649,0.71,13.672
2026-06-15 00:12:07.259,3365866715,83259,2,1.00854,0.10693,0.19385,12.977,16.863,10.198
2026-06-15 00:12:07.459,3365866915,83459,1,0.97949,0.12744,0.69019,6.74,-21.756,-3.229
2026-06-15 00:12:07.459,3365866915,83459,2,1.1106,0.02563,0.49072,56.71,22.443,8.725
2026-06-15 00:12:07.659,3365867115,83659,1,0.82178,0.10889,0.52637,10.321,-0.664,19.885
2026-06-15 00:12:07.659,3365867115,83659,2,1.13843,0.1311,0.32959,-19.885,-28.809,-1.779
2026-06-15 00:12:08.878,3365868334,83878,1,0.87354,0.0127,0.63379,-24.802,13.038,-22.336
2026-06-15 00:12:08.878,3365868334,83878,2,1.07544,-0.07104,0.38184,-11.695,45.924,-0.344
2026-06-15 00:12:08.078,3365867534,84078,1,0.78662,-0.09912,0.66211,-28.45,8.427,-7.924
2026-06-15 00:12:08.078,3365867534,84078,2,1.01392,0.09985,0.40625,-36.221,-21.931,4.038
2026-06-15 00:12:08.564,3365868020,84564,1,0.85815,0.08765,0.56348,-3.031,-4.817,10.687
2026-06-15 00:12:08.564,3365868020,84564,2,1.10718,0.02515,0.24561,8.87,8.954,14.786
2026-06-15 00:12:08.764,3365868220,84764,1,0.94482,0.0293,0.47021,-6.458,-19.511,9.794
2026-06-15 00:12:08.764,3365868220,84764,2,0.98779,0.01367,0.11572,-12.0,-30.29,-2.313
2026-06-15 00:12:09.964,3365869420,84964,1,0.92969,-0.11621,0.50098,-4.076,14.099,7.13
2026-06-15 00:12:09.964,3365869420,84964,2,1.09204,-0.11597,0.30298,-18.939,-1.87,1.458
2026-06-15 00:12:09.175,3365868631,85175,1,0.8999,-0.07178,0.52124,-9.634,4.962,-1.344
2026-06-15 00:12:09.175,3365868631,85175,2,1.052,-0.15527,0.32495,6.069,2.214,10.641
2026-06-15 00:12:09.375,3365868831,85375,1,0.89917,-0.04785,0.53418,-5.122,1.092,-1.817
2026-06-15 00:12:09.375,3365868831,85375,2,1.07251,-0.13428,0.30029,-9.702,-6.023,4.099
2026-06-15 00:12:09.575,3365869031,85575,1,0.92383,-0.06128,0.50342,6.679,-0.198,0.985
