datetime,epoch_ms,ts_millis,mpu_id,ax,ay,az,gx,gy,gz
2026-06-29T12:50:49.172096,,,,,,,,,
2026-06-29 12:50:49.376,326021536,8376,1,-0.19922,-0.85962,-0.36206,0.641,2.389,0.42
2026-06-29 12:50:49.376,326021536,8376,2,0.10645,-1.02002,0.01563,0.664,1.328,-0.489
2026-06-29 12:50:50.718,326022878,8718,1,-0.20776,-0.84912,-0.37036,0.412,2.473,0.527
2026-06-29 12:50:50.718,326022878,8718,2,0.09985,-1.02124,0.03174,0.672,1.435,-0.55
2026-06-29 12:50:50.048,326022208,9048,1,-0.20068,-0.86108,-0.37793,0.71,2.565,0.351
2026-06-29 12:50:50.048,326022208,9048,2,0.09863,-1.0271,0.01587,0.977,1.466,-0.519
2026-06-29 12:50:50.300,326022460,9299,1,-0.20044,-0.85645,-0.36572,0.832,2.344,0.191
2026-06-29 12:50:50.300,326022460,9299,2,0.10327,-1.01733,0.02246,0.733,1.481,-0.542
2026-06-29 12:50:50.519,326022679,9519,1,-0.19971,-0.86768,-0.35962,0.733,2.641,0.145
2026-06-29 12:50:50.519,326022679,9519,2,0.10132,-1.02026,0.01001,0.618,1.534,-0.557
2026-06-29 12:50:51.719,326023879,9719,1,-0.20825,-0.85815,-0.37646,0.511,2.145,0.481
2026-06-29 12:50:51.719,326023879,9719,2,0.10352,-1.02759,0.03101,0.779,1.42,-0.473
2026-06-29 12:50:51.919,326024079,9919,1,-0.19897,-0.85205,-0.36304,1.0,2.748,0.916
2026-06-29 12:50:51.919,326024079,9919,2,0.09961,-1.02026,0.02148,0.954,1.695,-0.519
2026-06-29 12:50:51.251,326023411,10251,1,-0.20483,-0.85913,-0.35278,0.26,2.489,0.336
2026-06-29 12:50:51.251,326023411,10251,2,0.10767,-1.02563,0.02222,0.786,1.557,-0.412
2026-06-29 12:50:51.451,326023611,10451,1,-0.20679,-0.85498,-0.35889,0.527,2.374,0.489
2026-06-29 12:50:51.451,326023611,10451,2,0.1062,-1.021,0.0144,0.84,1.405,-0.389
2026-06-29 12:50:51.651,326023811,10651,1,-0.19995,-0.85718,-0.36084,0.504,2.458,0.344
2026-06-29 12:50:51.651,326023811,10651,2,0.1001,-1.01758,0.02466,0.649,1.435,-0.405
2026-06-29 12:50:52.855,326025015,10855,1,-0.20068,-0.8584,-0.36548,0.565,2.405,0.382
2026-06-29 12:50:52.855,326025015,10855,2,0.10449,-1.02222,0.01831,0.42,1.374,-0.45
2026-06-29 12:50:52.055,326024215,11055,1,-0.20728,-0.8606,-0.36328,0.504,2.55,0.473
2026-06-29 12:50:52.055,326024215,11055,2,0.1062,-1.02246,0.03296,0.748,1.198,-0.534
2026-06-29 12:50:52.255,326024415,11255,1,-0.19971,-0.85474,-0.35767,0.458,2.282,0.466
2026-06-29 12:50:52.255,326024415,11255,2,0.10107,-1.02075,0.02515,0.878,1.573,-0.557
2026-06-29 12:50:52.455,326024615,11455,1,-0.20483,-0.85815,-0.37012,0.611,2.573,0.511
2026-06-29 12:50:52.455,326024615,11455,2,0.10425,-1.02124,0.0166,0.382,1.344,-0.504
2026-06-29 12:50:52.655,326024815,11655,1,-0.19922,-0.85913,-0.3689,0.557,2.321,0.626
2026-06-29 12:50:52.655,326024815,11655,2,0.10352,-1.01685,0.01025,0.947,1.389,-0.542
2026-06-29 12:50:53.855,326026015,11855,1,-0.19873,-0.85913,-0.35815,0.626,2.374,0.221
2026-06-29 12:50:53.855,326026015,11855,2,0.09888,-1.01831,0.01685,0.427,1.336,-0.557
2026-06-29 12:50:53.055,326025215,12055,1,-0.20166,-0.85864,-0.35669,0.405,2.473,0.229
2026-06-29 12:50:53.055,326025215,12055,2,0.10352,-1.01953,0.01758,0.916,1.634,-0.687
2026-06-29 12:50:53.255,326025415,12255,1,-0.20386,-0.85864,-0.36938,0.466,2.344,0.496
2026-06-29 12:50:53.255,326025415,12255,2,0.10059,-1.02051,0.02368,0.427,1.466,-0.519
2026-06-29 12:50:53.455,326025615,12455,1,-0.20313,-0.86255,-0.36182,0.412,2.542,0.198
2026-06-29 12:50:53.455,326025615,12455,2,0.09961,-1.01978,0.02026,0.878,1.618,-0.511
2026-06-29 12:50:53.655,326025815,12655,1,-0.20044,-0.86255,-0.35986,0.45,2.382,0.519
2026-06-29 12:50:53.655,326025815,12655,2,0.104,-1.02563,0.01221,0.794,1.344,-0.481
2026-06-29 12:50:54.855,326027015,12855,1,-0.20532,-0.8584,-0.36792,0.611,2.229,0.328
2026-06-29 12:50:54.855,326027015,12855,2,0.10376,-1.0249,0.01514,0.863,1.466,-0.58
2026-06-29 12:50:54.126,326026286,13126,1,-0.19873,-0.85938,-0.35791,0.611,2.374,0.374
2026-06-29 12:50:54.126,326026286,13126,2,0.10815,-1.02246,0.02637,0.893,1.634,-0.458
2026-06-29 12:50:54.346,326026506,13346,1,-0.19922,-0.86377,-0.36279,0.221,2.366,0.504
2026-06-29 12:50:54.346,326026506,13346,2,0.10669,-1.02466,0.01953,0.733,1.45,-0.557
2026-06-29 12:50:54.550,326026710,13550,1,-0.2041,-0.85645,-0.37134,0.405,2.282,0.374
2026-06-29 12:50:54.550,326026710,13550,2,0.09912,-1.02515,0.0188,0.618,1.603,-0.542
2026-06-29 12:50:55.750,326027910,13750,1,-0.20386,-0.86157,-0.36401,0.702,2.511,0.382
2026-06-29 12:50:55.750,326027910,13750,2,0.10205,-1.02319,0.02026,0.351,1.618,-0.588
2026-06-29 12:50:55.950,326028110,13950,1,-0.20654,-0.85498,-0.36426,0.489,2.366,0.366
2026-06-29 12:50:55.950,326028110,13950,2,0.09888,-1.0144,0.01978,0.55,1.45,-0.672
2026-06-29 12:50:55.150,326027310,14150,1,-0.20728,-0.85815,-0.37036,0.435,2.275,0.389
2026-06-29 12:50:55.150,326027310,14150,2,0.10181,-1.02075,0.021,0.763,1.412,-0.45
2026-06-29 12:50:55.350,326027510,14350,1,-0.20313,-0.85938,-0.36719,0.786,2.511,0.321
2026-06-29 12:50:55.350,326027510,14350,2,0.10474,-1.02197,0.01514,0.58,1.649,-0.466
2026-06-29 12:50:55.550,326027710,14550,1,-0.19897,-0.85474,-0.36011,0.443,2.366,0.588
2026-06-29 12:50:55.550,326027710,14550,2,0.10474,-1.02197,0.02368,0.511,1.519,-0.389
2026-06-29 12:50:56.750,326028910,14750,1,-0.19824,-0.85693,-0.35889,0.374,2.473,0.328
2026-06-29 12:50:56.750,326028910,14750,2,0.10059,-1.01831,0.01318,0.779,1.527,-0.481
2026-06-29 12:50:56.950,326029110,14950,1,-0.19922,-0.85596,-0.36133,0.595,2.298,0.374
2026-06-29 12:50:56.950,326029110,14950,2,0.09644,-1.01953,0.01318,0.847,1.496,-0.527
2026-06-29 12:50:56.150,326028310,15150,1,-0.20239,-0.85791,-0.3645,0.42,2.321,0.336
2026-06-29 12:50:56.150,326028310,15150,2,0.09668,-1.01709,0.01953,1.015,1.473,-0.542
2026-06-29 12:50:56.350,326028510,15350,1,-0.20068,-0.85327,-0.37427,0.573,2.359,0.313
2026-06-29 12:50:56.350,326028510,15350,2,0.10791,-1.02686,0.02222,0.489,1.344,-0.55
2026-06-29 12:50:56.550,326028710,15550,1,-0.19434,-0.85376,-0.36694,0.374,2.168,0.489
2026-06-29 12:50:56.550,326028710,15550,2,0.10693,-1.02051,0.02783,0.702,1.405,-0.519
2026-06-29 12:50:57.750,326029910,15750,1,-0.19678,-0.8562,-0.36963,0.626,2.611,0.397
2026-06-29 12:50:57.750,326029910,15750,2,0.104,-1.01807,0.01587,0.702,1.527,-0.634
2026-06-29 12:50:57.950,326030110,15950,1,-0.19897,-0.85547,-0.36523,0.718,2.282,0.351
2026-06-29 12:50:57.950,326030110,15950,2,0.10181,-1.02393,0.01587,0.733,1.458,-0.511
2026-06-29 12:50:57.150,326029310,16150,1,-0.19751,-0.85669,-0.36377,0.405,2.427,0.397
2026-06-29 12:50:57.150,326029310,16150,2,0.09888,-1.01611,0.0144,0.702,1.626,-0.55
2026-06-29 12:50:57.350,326029510,16350,1,-0.20093,-0.8584,-0.37231,0.71,2.435,0.374
2026-06-29 12:50:57.350,326029510,16350,2,0.10254,-1.02563,0.0249,0.557,1.573,-0.504
2026-06-29 12:50:57.550,326029710,16550,1,-0.20215,-0.85791,-0.36206,0.542,2.481,0.511
2026-06-29 12:50:57.550,326029710,16550,2,0.10059,-1.02344,0.02661,0.595,1.489,-0.634
2026-06-29 12:50:58.750,326030910,16750,1,-0.20728,-0.85107,-0.37134,0.595,2.443,0.466
2026-06-29 12:50:58.750,326030910,16750,2,0.10254,-1.02637,0.01587,0.611,1.527,-0.649
2026-06-29 12:50:58.950,326031110,16950,1,-0.20313,-0.85815,-0.35889,0.603,2.344,0.344
2026-06-29 12:50:58.950,326031110,16950,2,0.10718,-1.021,0.01245,1.038,1.489,-0.519
2026-06-29 12:50:58.150,326030310,17150,1,-0.20264,-0.86206,-0.36401,0.45,2.496,0.389
2026-06-29 12:50:58.150,326030310,17150,2,0.10132,-1.02002,0.02148,0.832,1.649,-0.458
2026-06-29 12:50:58.350,326030510,17350,1,-0.20386,-0.86011,-0.37134,0.481,2.336,0.252
2026-06-29 12:50:58.350,326030510,17350,2,0.09741,-1.0188,0.01807,0.672,1.397,-0.55
2026-06-29 12:50:58.550,326030710,17550,1,-0.19995,-0.854,-0.36279,0.496,2.198,0.45
2026-06-29 12:50:58.550,326030710,17550,2,0.09546,-1.01782,0.01929,0.687,1.557,-0.527
2026-06-29 12:50:59.750,326031910,17750,1,-0.19458,-0.85352,-0.36108,0.466,2.504,0.305
2026-06-29 12:50:59.750,326031910,17750,2,0.10083,-1.01367,0.0249,0.664,1.351,-0.55
2026-06-29 12:50:59.950,326032110,17950,1,-0.19897,-0.85229,-0.36255,0.595,2.45,0.603
2026-06-29 12:50:59.950,326032110,17950,2,0.10352,-1.02515,0.02393,0.634,1.351,-0.435
2026-06-29 12:50:59.150,326031310,18150,1,-0.20361,-0.86035,-0.37061,0.382,2.168,0.435
2026-06-29 12:50:59.150,326031310,18150,2,0.09888,-1.01709,0.02026,1.015,1.733,-0.656
2026-06-29 12:50:59.350,326031510,18350,1,-0.2063,-0.85962,-0.36279,0.595,2.595,0.382
2026-06-29 12:50:59.350,326031510,18350,2,0.10205,-1.01465,0.01465,0.74,1.389,-0.504
2026-06-29 12:50:59.550,326031710,18550,1,-0.20313,-0.85547,-0.36206,0.435,2.397,0.344
2026-06-29 12:50:59.550,326031710,18550,2,0.09619,-1.02148,0.02148,0.534,1.359,-0.26
2026-06-29 12:51:00.750,326032910,18750,1,-0.20093,-0.85864,-0.36987,0.527,2.504,0.565
2026-06-29 12:51:00.750,326032910,18750,2,0.10229,-1.02173,0.00903,0.855,1.573,-0.664
2026-06-29 12:51:00.950,326033110,18950,1,-0.19849,-0.86304,-0.35645,0.87,2.374,0.275
2026-06-29 12:51:00.950,326033110,18950,2,0.10669,-1.02368,0.02588,0.656,1.626,-0.282
2026-06-29 12:51:00.150,326032310,19150,1,-0.20142,-0.85962,-0.36743,0.382,2.443,0.405
2026-06-29 12:51:00.150,326032310,19150,2,0.104,-1.01978,0.01709,0.702,1.42,-0.496
2026-06-29 12:51:00.350,326032510,19350,1,-0.19971,-0.85913,-0.36011,0.527,2.58,0.29
2026-06-29 12:51:00.350,326032510,19350,2,0.10498,-1.02271,0.01953,0.885,1.527,-0.519
2026-06-29 12:51:00.550,326032710,19550,1,-0.20386,-0.85693,-0.37598,0.573,2.466,0.336
2026-06-29 12:51:00.550,326032710,19550,2,0.10254,-1.01733,0.02539,0.84,1.626,-0.565
2026-06-29 12:51:01.750,326033910,19750,1,-0.20386,-0.85352,-0.36963,0.527,2.496,0.565
2026-06-29 12:51:01.750,326033910,19750,2,0.09961,-1.01855,0.01367,0.718,1.45,-0.504
2026-06-29 12:51:01.950,326034110,19950,1,-0.20117,-0.85669,-0.36279,0.725,2.42,0.176
2026-06-29 12:51:01.950,326034110,19950,2,0.10425,-1.01782,0.00928,0.702,1.435,-0.275
2026-06-29 12:51:01.150,326033310,20150,1,-0.19995,-0.85986,-0.37231,0.588,2.389,0.382
2026-06-29 12:51:01.150,326033310,20150,2,0.104,-1.01831,0.01318,0.779,1.557,-0.557
2026-06-29 12:51:01.350,326033510,20350,1,-0.20435,-0.85742,-0.37012,0.565,2.496,0.29
2026-06-29 12:51:01.350,326033510,20350,2,0.10107,-1.02368,0.01929,0.634,1.664,-0.519
2026-06-29 12:51:01.550,326033710,20550,1,-0.20239,-0.85059,-0.36108,0.618,2.435,0.351
2026-06-29 12:51:01.550,326033710,20550,2,0.10767,-1.02832,0.01782,0.725,1.542,-0.496
2026-06-29 12:51:02.750,326034910,20750,1,-0.20361,-0.85645,-0.37012,0.58,2.26,0.435
2026-06-29 12:51:02.750,326034910,20750,2,0.09668,-1.01782,0.01953,0.702,1.55,-0.702
2026-06-29 12:51:02.950,326035110,20950,1,-0.198,-0.85815,-0.36255,0.725,2.511,0.397
2026-06-29 12:51:02.950,326035110,20950,2,0.10864,-1.02612,0.02026,0.656,1.427,-0.481
2026-06-29 12:51:02.150,326034310,21150,1,-0.19678,-0.86084,-0.36743,0.542,2.267,0.45
2026-06-29 12:51:02.150,326034310,21150,2,0.10254,-1.01709,0.02466,0.863,1.328,-0.565
2026-06-29 12:51:02.350,326034510,21350,1,-0.19751,-0.85376,-0.37085,0.405,2.305,0.206
2026-06-29 12:51:02.350,326034510,21350,2,0.10425,-1.02222,0.01294,0.687,1.511,-0.779
2026-06-29 12:51:02.550,326034710,21550,1,-0.20605,-0.85889,-0.37158,0.443,2.191,0.351
2026-06-29 12:51:02.550,326034710,21550,2,0.09766,-1.01807,0.01147,0.847,1.542,-0.588
2026-06-29 12:51:03.750,326035910,21750,1,-0.19971,-0.86279,-0.35767,0.42,2.42,0.397
2026-06-29 12:51:03.750,326035910,21750,2,0.10278,-1.02051,0.00977,0.74,1.405,-0.359
2026-06-29 12:51:03.950,326036110,21950,1,-0.20264,-0.85425,-0.36548,0.58,2.481,0.573
2026-06-29 12:51:03.950,326036110,21950,2,0.10449,-1.01904,0.01587,0.595,1.374,-0.382
2026-06-29 12:51:03.150,326035310,22150,1,-0.2019,-0.86011,-0.36548,0.443,2.244,0.496
2026-06-29 12:51:03.150,326035310,22150,2,0.10083,-1.01953,0.02612,0.702,1.374,-0.389
2026-06-29 12:51:03.350,326035510,22350,1,-0.20361,-0.8606,-0.36475,0.557,2.527,0.351
2026-06-29 12:51:03.350,326035510,22350,2,0.10205,-1.01758,0.01172,0.672,1.389,-0.55
2026-06-29 12:51:03.550,326035710,22550,1,-0.20361,-0.85498,-0.3623,0.496,2.397,0.328
2026-06-29 12:51:03.550,326035710,22550,2,0.10132,-1.02051,0.01855,0.962,1.588,-0.42
2026-06-29 12:51:04.750,326036910,22750,1,-0.19946,-0.85303,-0.36621,0.504,2.29,0.321
2026-06-29 12:51:04.750,326036910,22750,2,0.10547,-1.02246,0.02002,0.527,1.42,-0.519
2026-06-29 12:51:04.955,326037115,22955,1,-0.20239,-0.85791,-0.35425,0.794,2.336,0.344
2026-06-29 12:51:04.955,326037115,22955,2,0.09937,-1.01221,0.02515,0.649,1.557,-0.611
2026-06-29 12:51:04.155,326036315,23155,1,-0.20654,-0.85449,-0.36597,0.626,2.481,0.229
2026-06-29 12:51:04.155,326036315,23155,2,0.10718,-1.021,0.01709,0.977,1.55,-0.519
2026-06-29 12:51:04.355,326036515,23355,1,-0.20264,-0.854,-0.35962,0.641,2.359,0.397
2026-06-29 12:51:04.355,326036515,23355,2,0.09912,-1.01953,0.02783,0.916,1.458,-0.435
2026-06-29 12:51:04.555,326036715,23555,1,-0.20752,-0.86011,-0.36572,0.649,2.351,0.351
2026-06-29 12:51:04.555,326036715,23555,2,0.10352,-1.02075,0.02148,0.74,1.382,-0.42
2026-06-29 12:51:05.755,326037915,23755,1,-0.20532,-0.86206,-0.3667,0.473,2.427,0.496
2026-06-29 12:51:05.755,326037915,23755,2,0.09741,-1.02808,0.00659,0.58,1.504,-0.557
2026-06-29 12:51:05.955,326038115,23955,1,-0.19849,-0.85815,-0.36206,0.603,2.45,0.427
2026-06-29 12:51:05.955,326038115,23955,2,0.10229,-1.02148,0.02368,0.687,1.29,-0.542
2026-06-29 12:51:05.155,326037315,24155,1,-0.20288,-0.85571,-0.36401,0.489,2.382,0.489
2026-06-29 12:51:05.155,326037315,24155,2,0.09473,-1.02612,0.01221,0.542,1.473,-0.664
2026-06-29 12:51:05.355,326037515,24355,1,-0.20386,-0.854,-0.37476,0.374,2.435,0.29
2026-06-29 12:51:05.355,326037515,24355,2,0.10156,-1.02612,0.01685,0.55,1.298,-0.427
2026-06-29 12:51:05.555,326037715,24555,1,-0.20435,-0.85278,-0.37012,0.916,2.374,0.42
2026-06-29 12:51:05.555,326037715,24555,2,0.10352,-1.02026,0.01953,0.87,1.504,-0.58
2026-06-29 12:51:06.755,326038915,24755,1,-0.20557,-0.85864,-0.37329,0.45,2.252,0.275
2026-06-29 12:51:06.755,326038915,24755,2,0.10547,-1.02222,0.0144,0.687,1.466,-0.45
2026-06-29 12:51:06.955,326039115,24955,1,-0.20483,-0.85132,-0.37427,0.588,2.389,0.405
2026-06-29 12:51:06.955,326039115,24955,2,0.10205,-1.01782,0.01855,1.0,1.351,-0.595
2026-06-29 12:51:06.155,326038315,25155,1,-0.19751,-0.85425,-0.36353,0.481,2.42,0.305
2026-06-29 12:51:06.155,326038315,25155,2,0.10107,-1.02026,0.01587,0.779,1.427,-0.58
2026-06-29 12:51:06.508,326038668,25508,1,-0.20288,-0.85864,-0.37964,0.534,2.336,0.374
2026-06-29 12:51:06.508,326038668,25508,2,0.10522,-1.021,0.01855,0.695,1.389,-0.542
2026-06-29 12:51:07.757,326039917,25757,1,-0.20264,-0.85522,-0.36133,0.573,2.473,0.328
2026-06-29 12:51:07.757,326039917,25757,2,0.10938,-1.01733,0.02295,0.458,1.45,-0.748
2026-06-29 12:51:07.957,326040117,25957,1,-0.20483,-0.8623,-0.37598,0.298,2.168,0.519
2026-06-29 12:51:07.957,326040117,25957,2,0.09888,-1.0249,0.0188,0.664,1.511,-0.71
2026-06-29 12:51:07.157,326039317,26157,1,-0.19995,-0.85962,-0.36572,0.496,2.55,0.542
2026-06-29 12:51:07.157,326039317,26157,2,0.10205,-1.02417,0.0166,0.779,1.641,-0.527
2026-06-29 12:51:07.357,326039517,26357,1,-0.19971,-0.85327,-0.37622,0.573,2.412,0.382
2026-06-29 12:51:07.357,326039517,26357,2,0.10156,-1.02002,0.01465,0.687,1.427,-0.481
2026-06-29 12:51:07.557,326039717,26557,1,-0.20044,-0.85449,-0.37085,0.275,2.42,0.489
2026-06-29 12:51:07.557,326039717,26557,2,0.10376,-1.02246,0.0144,0.71,1.466,-0.626
2026-06-29 12:51:08.757,326040917,26757,1,-0.20752,-0.85693,-0.36792,0.802,2.511,0.26
2026-06-29 12:51:08.757,326040917,26757,2,0.10547,-1.02686,0.0271,0.382,1.344,-0.466
2026-06-29 12:51:08.957,326041117,26957,1,-0.20117,-0.86108,-0.36914,0.427,2.305,0.496
2026-06-29 12:51:08.957,326041117,26957,2,0.10327,-1.01978,0.0188,0.74,1.656,-0.55
2026-06-29 12:51:08.157,326040317,27157,1,-0.20898,-0.86035,-0.36133,0.626,2.366,0.313
2026-06-29 12:51:08.157,326040317,27157,2,0.10254,-1.01953,0.0166,0.771,1.504,-0.466
2026-06-29 12:51:08.357,326040517,27357,1,-0.20166,-0.85547,-0.36572,0.435,2.412,0.58
2026-06-29 12:51:08.357,326040517,27357,2,0.10254,-1.02539,0.01416,0.771,1.504,-0.511
2026-06-29 12:51:08.557,326040717,27557,1,-0.19971,-0.85791,-0.35913,0.565,2.481,0.412
2026-06-29 12:51:08.557,326040717,27557,2,0.10229,-1.02026,0.02222,0.595,1.435,-0.519
2026-06-29 12:51:09.757,326041917,27757,1,-0.20166,-0.86035,-0.36523,0.84,2.466,0.328
2026-06-29 12:51:09.757,326041917,27757,2,0.10498,-1.02075,0.00708,0.656,1.679,-0.458
2026-06-29 12:51:09.957,326042117,27957,1,-0.20068,-0.85742,-0.37402,0.298,2.473,0.519
2026-06-29 12:51:09.957,326042117,27957,2,0.10693,-1.01758,0.02075,0.786,1.534,-0.481
2026-06-29 12:51:09.157,326041317,28157,1,-0.2041,-0.85767,-0.37061,0.664,2.405,0.359
2026-06-29 12:51:09.157,326041317,28157,2,0.10352,-1.02393,0.01392,0.878,1.397,-0.489
2026-06-29 12:51:09.357,326041517,28357,1,-0.20532,-0.85571,-0.36987,0.489,2.382,0.45
2026-06-29 12:51:09.357,326041517,28357,2,0.09644,-1.0166,0.0188,0.802,1.427,-0.435
2026-06-29 12:51:09.557,326041717,28557,1,-0.19531,-0.85498,-0.3689,0.466,2.534,0.458
2026-06-29 12:51:09.557,326041717,28557,2,0.10229,-1.021,0.02002,0.71,1.412,-0.573
2026-06-29 12:51:10.757,326042917,28757,1,-0.20361,-0.85156,-0.37085,0.611,2.389,0.42
2026-06-29 12:51:10.757,326042917,28757,2,0.10156,-1.02075,0.02417,0.786,1.664,-0.595
2026-06-29 12:51:10.957,326043117,28957,1,-0.19971,-0.85083,-0.37402,0.122,2.481,0.557
2026-06-29 12:51:10.957,326043117,28957,2,0.10693,-1.01831,0.02173,1.0,1.366,-0.466
2026-06-29 12:51:10.157,326042317,29157,1,-0.20972,-0.85791,-0.37402,0.351,2.519,0.458
2026-06-29 12:51:10.157,326042317,29157,2,0.10083,-1.0271,0.01196,0.435,1.344,-0.412
2026-06-29 12:51:10.357,326042517,29357,1,-0.20483,-0.85278,-0.37231,0.702,2.351,0.427
2026-06-29 12:51:10.357,326042517,29357,2,0.09937,-1.02173,0.01489,0.458,1.511,-0.435
2026-06-29 12:51:10.557,326042717,29557,1,-0.20874,-0.8584,-0.37012,0.176,2.336,0.473
2026-06-29 12:51:10.557,326042717,29557,2,0.10498,-1.0188,0.02026,0.359,1.58,-0.58
2026-06-29 12:51:11.757,326043917,29757,1,-0.20313,-0.86108,-0.36328,0.435,2.466,0.405
2026-06-29 12:51:11.757,326043917,29757,2,0.09937,-1.0249,0.01099,0.611,1.557,-0.626
2026-06-29 12:51:11.957,326044117,29957,1,-0.20264,-0.85352,-0.36475,0.504,2.389,0.321
2026-06-29 12:51:11.957,326044117,29957,2,0.10522,-1.02393,0.01343,0.695,1.573,-0.634
2026-06-29 12:51:11.157,326043317,30157,1,-0.20288,-0.85425,-0.36475,0.176,2.504,0.321
2026-06-29 12:51:11.157,326043317,30157,2,0.10815,-1.02466,0.01514,0.664,1.435,-0.496
2026-06-29 12:51:11.357,326043517,30357,1,-0.198,-0.85742,-0.36987,0.847,2.298,0.427
2026-06-29 12:51:11.357,326043517,30357,2,0.09766,-1.01831,0.0166,0.992,1.672,-0.542
2026-06-29 12:51:11.557,326043717,30557,1,-0.20166,-0.85791,-0.37061,0.824,2.183,0.42
2026-06-29 12:51:11.557,326043717,30557,2,0.10107,-1.0249,0.01807,0.557,1.588,-0.412
2026-06-29 12:51:12.757,326044917,30757,1,-0.20483,-0.86157,-0.36792,0.275,2.534,0.374
2026-06-29 12:51:12.757,326044917,30757,2,0.1001,-1.02515,0.02051,0.656,1.382,-0.435
2026-06-29 12:51:12.957,326045117,30957,1,-0.19604,-0.85449,-0.36792,0.58,2.382,0.344
2026-06-29 12:51:12.957,326045117,30957,2,0.10864,-1.01904,0.01465,0.977,1.504,-0.42
2026-06-29 12:51:12.157,326044317,31157,1,-0.20337,-0.85864,-0.36621,0.13,2.573,0.511
2026-06-29 12:51:12.157,326044317,31157,2,0.10425,-1.02734,0.01489,0.519,1.511,-0.58
2026-06-29 12:51:12.357,326044517,31357,1,-0.20337,-0.85205,-0.36719,0.847,2.366,0.336
2026-06-29 12:51:12.357,326044517,31357,2,0.09717,-1.01465,0.01855,0.802,1.573,-0.557
2026-06-29 12:51:12.567,326044727,31567,1,-0.20093,-0.8584,-0.37549,0.679,2.366,0.443
2026-06-29 12:51:12.567,326044727,31567,2,0.10034,-1.02637,0.02246,0.855,1.557,-0.412
2026-06-29 12:51:13.767,326045927,31767,1,-0.20508,-0.85278,-0.37061,0.664,2.26,0.282
2026-06-29 12:51:13.767,326045927,31767,2,0.10425,-1.01807,0.02173,0.878,1.71,-0.702
2026-06-29 12:51:13.967,326046127,31967,1,-0.20337,-0.86377,-0.3728,0.397,2.389,0.427
2026-06-29 12:51:13.967,326046127,31967,2,0.10059,-1.01709,0.01416,0.947,1.458,-0.58
2026-06-29 12:51:13.167,326045327,32167,1,-0.20166,-0.85107,-0.36938,0.786,2.382,0.298
2026-06-29 12:51:13.167,326045327,32167,2,0.09839,-1.021,0.01514,0.489,1.305,-0.145
2026-06-29 12:51:13.367,326045527,32367,1,-0.20313,-0.85645,-0.36401,1.29,2.542,0.229
2026-06-29 12:51:13.367,326045527,32367,2,0.10449,-1.02637,0.02246,1.061,1.55,-0.496
2026-06-29 12:51:13.567,326045727,32567,1,-0.20239,-0.86011,-0.36401,0.405,2.397,0.321
2026-06-29 12:51:13.567,326045727,32567,2,0.10449,-1.02173,0.0271,0.893,1.344,-0.542
2026-06-29 12:51:14.767,326046927,32767,1,-0.20166,-0.84985,-0.3728,0.489,2.496,0.443
2026-06-29 12:51:14.767,326046927,32767,2,0.10596,-1.01978,0.0127,0.664,1.473,-0.634
2026-06-29 12:51:14.967,326047127,32967,1,-0.20654,-0.8584,-0.3728,0.763,2.359,0.351
2026-06-29 12:51:14.967,326047127,32967,2,0.10132,-1.02319,0.01807,0.809,1.29,-0.611
2026-06-29 12:51:14.167,326046327,33167,1,-0.20557,-0.85425,-0.36963,0.427,2.405,0.435
2026-06-29 12:51:14.167,326046327,33167,2,0.10425,-1.01538,0.01514,0.748,1.389,-0.649
2026-06-29 12:51:14.367,326046527,33367,1,-0.19507,-0.85327,-0.3667,0.168,2.214,0.534
2026-06-29 12:51:14.367,326046527,33367,2,0.10059,-1.02319,0.01245,0.71,1.565,-0.573
2026-06-29 12:51:14.567,326046727,33567,1,-0.19922,-0.86011,-0.37231,0.603,2.458,0.206
2026-06-29 12:51:14.567,326046727,33567,2,0.09888,-1.01465,0.01587,1.107,1.58,-0.58
2026-06-29 12:51:15.767,326047927,33767,1,-0.20215,-0.86377,-0.36035,0.473,2.405,0.427
2026-06-29 12:51:15.767,326047927,33767,2,0.10596,-1.01904,0.01782,0.695,1.397,-0.405
2026-06-29 12:51:15.967,326048127,33967,1,-0.2041,-0.85645,-0.36572,0.55,2.55,0.527
2026-06-29 12:51:15.967,326048127,33967,2,0.09521,-1.01758,0.0166,0.672,1.42,-0.489
2026-06-29 12:51:15.167,326047327,34167,1,-0.20068,-0.85132,-0.37012,0.634,2.351,0.328
2026-06-29 12:51:15.167,326047327,34167,2,0.10474,-1.02393,0.01855,0.733,1.443,-0.565
2026-06-29 12:51:15.367,326047527,34367,1,-0.19727,-0.85425,-0.36035,0.756,2.527,0.359
2026-06-29 12:51:15.367,326047527,34367,2,0.10474,-1.01465,0.02368,0.969,1.382,-0.565
2026-06-29 12:51:15.567,326047727,34567,1,-0.2041,-0.85693,-0.36963,0.496,2.573,0.206
2026-06-29 12:51:15.567,326047727,34567,2,0.10791,-1.02002,0.02393,0.427,1.466,-0.534
2026-06-29 12:51:16.767,326048927,34767,1,-0.198,-0.85474,-0.37622,0.275,2.168,0.45
2026-06-29 12:51:16.767,326048927,34767,2,0.1062,-1.02319,0.01147,0.756,1.42,-0.321
2026-06-29 12:51:16.967,326049127,34967,1,-0.20142,-0.85303,-0.37207,0.534,2.473,0.435
2026-06-29 12:51:16.967,326049127,34967,2,0.10376,-1.01929,0.0144,0.809,1.664,-0.573
2026-06-29 12:51:16.167,326048327,35167,1,-0.20117,-0.85278,-0.37061,0.779,2.359,0.26
2026-06-29 12:51:16.167,326048327,35167,2,0.10205,-1.01831,0.01147,0.603,1.298,-0.573
2026-06-29 12:51:16.367,326048527,35367,1,-0.20459,-0.85913,-0.36841,0.267,2.366,0.45
2026-06-29 12:51:16.367,326048527,35367,2,0.10327,-1.01172,0.01563,0.855,1.405,-0.443
2026-06-29 12:51:16.567,326048727,35567,1,-0.20508,-0.85059,-0.36304,0.802,2.405,0.412
2026-06-29 12:51:16.567,326048727,35567,2,0.09961,-1.02295,0.01343,0.954,1.603,-0.626
2026-06-29 12:51:17.767,326049927,35767,1,-0.20459,-0.85474,-0.36548,0.855,2.29,0.405
2026-06-29 12:51:17.767,326049927,35767,2,0.10156,-1.01807,0.01929,1.008,1.496,-0.626
2026-06-29 12:51:17.967,326050127,35967,1,-0.19922,-0.85791,-0.37549,0.473,2.397,0.359
2026-06-29 12:51:17.967,326050127,35967,2,0.10352,-1.01831,0.01636,0.695,1.473,-0.588
2026-06-29 12:51:17.167,326049327,36167,1,-0.19775,-0.85059,-0.37109,0.977,2.405,0.29
2026-06-29 12:51:17.167,326049327,36167,2,0.10449,-1.02759,0.01294,0.962,1.405,-0.565
2026-06-29 12:51:17.367,326049527,36367,1,-0.19995,-0.85522,-0.36572,0.443,2.504,0.252
2026-06-29 12:51:17.367,326049527,36367,2,0.09766,-1.02637,0.02173,0.641,1.542,-0.702
2026-06-29 12:51:17.567,326049727,36567,1,-0.20508,-0.854,-0.37158,0.336,2.458,0.382
2026-06-29 12:51:17.567,326049727,36567,2,0.10449,-1.01807,0.0249,0.985,1.519,-0.42
2026-06-29 12:51:18.767,326050927,36767,1,-0.19751,-0.85327,-0.3689,0.702,2.557,0.359
2026-06-29 12:51:18.767,326050927,36767,2,0.09888,-1.01685,0.01855,0.496,1.565,-0.504
2026-06-29 12:51:18.967,326051127,36967,1,-0.20264,-0.85205,-0.3689,0.634,2.382,0.412
2026-06-29 12:51:18.967,326051127,36967,2,0.10303,-1.02197,0.00171,0.809,1.649,-0.405
2026-06-29 12:51:18.167,326050327,37167,1,-0.19775,-0.8562,-0.36743,0.351,2.321,0.588
2026-06-29 12:51:18.167,326050327,37167,2,0.10547,-1.01953,0.0166,0.779,1.58,-0.618
2026-06-29 12:51:18.367,326050527,37367,1,-0.20215,-0.85449,-0.36792,0.237,2.336,0.397
2026-06-29 12:51:18.367,326050527,37367,2,0.10962,-1.02002,0.01929,0.435,1.42,-0.458
2026-06-29 12:51:18.567,326050727,37567,1,-0.2019,-0.85962,-0.36475,0.611,2.313,0.374
2026-06-29 12:51:18.567,326050727,37567,2,0.10645,-1.0166,0.01733,0.641,1.687,-0.573
2026-06-29 12:51:19.767,326051927,37767,1,-0.19849,-0.85254,-0.37231,0.527,2.298,0.282
2026-06-29 12:51:19.767,326051927,37767,2,0.10474,-1.02319,0.0188,0.679,1.611,-0.588
2026-06-29 12:51:19.967,326052127,37967,1,-0.19775,-0.85498,-0.37012,0.29,2.214,0.389
2026-06-29 12:51:19.967,326052127,37967,2,0.10791,-1.01953,0.01416,0.565,1.725,-0.618
2026-06-29 12:51:19.167,326051327,38167,1,-0.20435,-0.85474,-0.37891,0.595,2.412,0.275
2026-06-29 12:51:19.167,326051327,38167,2,0.10571,-1.021,0.01587,0.878,1.26,-0.313
2026-06-29 12:51:19.367,326051527,38367,1,-0.19873,-0.85498,-0.37915,0.58,2.336,0.382
2026-06-29 12:51:19.367,326051527,38367,2,0.10596,-1.01855,0.02368,0.687,1.626,-0.527
2026-06-29 12:51:19.567,326051727,38567,1,-0.2002,-0.8584,-0.37427,0.42,2.412,0.382
2026-06-29 12:51:19.567,326051727,38567,2,0.10254,-1.01733,0.01709,0.702,1.313,-0.573
2026-06-29 12:51:20.767,326052927,38767,1,-0.20776,-0.85229,-0.36255,0.718,2.405,0.504
2026-06-29 12:51:20.767,326052927,38767,2,0.10449,-1.02026,0.01367,0.496,1.55,-0.634
2026-06-29 12:51:20.967,326053127,38967,1,-0.19922,-0.85669,-0.36597,0.382,2.458,0.412
2026-06-29 12:51:20.967,326053127,38967,2,0.10205,-1.02075,0.01611,0.473,1.473,-0.542
2026-06-29 12:51:20.167,326052327,39167,1,-0.2002,-0.85815,-0.37524,0.718,2.511,0.42
2026-06-29 12:51:20.167,326052327,39167,2,0.10669,-1.02759,0.01294,0.908,1.542,-0.672
2026-06-29 12:51:20.367,326052527,39367,1,-0.20142,-0.85327,-0.36938,0.321,2.321,0.397
2026-06-29 12:51:20.367,326052527,39367,2,0.09937,-1.01953,0.01294,0.641,1.336,-0.473
2026-06-29 12:51:20.567,326052727,39567,1,-0.20361,-0.85938,-0.3728,0.817,2.603,0.336
2026-06-29 12:51:20.567,326052727,39567,2,0.10327,-1.02246,0.01953,0.748,1.466,-0.557
2026-06-29 12:51:21.767,326053927,39767,1,-0.2019,-0.85205,-0.3728,0.672,2.397,0.397
2026-06-29 12:51:21.767,326053927,39767,2,0.1062,-1.01929,0.02271,0.496,1.618,-0.443
2026-06-29 12:51:21.967,326054127,39967,1,-0.2041,-0.85693,-0.36914,0.45,2.267,0.359
2026-06-29 12:51:21.967,326054127,39967,2,0.09619,-1.01831,0.01318,0.679,1.794,-0.656
2026-06-29 12:51:21.167,326053327,40167,1,-0.20801,-0.85522,-0.37329,0.519,2.511,0.397
2026-06-29 12:51:21.167,326053327,40167,2,0.09619,-1.02246,0.01709,0.618,1.45,-0.573
2026-06-29 12:51:21.367,326053527,40367,1,-0.20581,-0.85376,-0.36792,0.435,2.351,0.389
2026-06-29 12:51:21.367,326053527,40367,2,0.10449,-1.0166,0.01807,0.992,1.443,-0.466
2026-06-29 12:51:21.567,326053727,40567,1,-0.20068,-0.8562,-0.36353,0.687,2.481,0.443
2026-06-29 12:51:21.567,326053727,40567,2,0.09863,-1.02319,0.01929,0.695,1.496,-0.45
2026-06-29 12:51:22.767,326054927,40767,1,-0.20581,-0.85107,-0.375,0.611,2.328,0.473
2026-06-29 12:51:22.767,326054927,40767,2,0.10498,-1.02075,0.01416,0.511,1.641,-0.519
2026-06-29 12:51:22.967,326055127,40967,1,-0.20264,-0.85156,-0.37427,0.389,2.282,0.496
2026-06-29 12:51:22.967,326055127,40967,2,0.11035,-1.02515,0.02222,0.733,1.481,-0.611
2026-06-29 12:51:22.167,326054327,41167,1,-0.20264,-0.85083,-0.36841,0.74,2.443,0.374
2026-06-29 12:51:22.167,326054327,41167,2,0.10693,-1.02026,0.02173,0.695,1.252,-0.611
2026-06-29 12:51:22.367,326054527,41367,1,-0.20605,-0.85303,-0.36938,0.504,2.26,0.412
2026-06-29 12:51:22.367,326054527,41367,2,0.10449,-1.01904,0.01953,0.626,1.435,-0.313
2026-06-29 12:51:22.567,326054727,41567,1,-0.20532,-0.86011,-0.37573,0.695,2.534,0.374
2026-06-29 12:51:22.567,326054727,41567,2,0.10303,-1.01611,0.01489,0.817,1.588,-0.55
2026-06-29 12:51:23.767,326055927,41767,1,-0.20605,-0.86108,-0.36963,0.557,2.351,0.366
2026-06-29 12:51:23.767,326055927,41767,2,0.10718,-1.02051,0.0188,0.275,1.405,-0.626
2026-06-29 12:51:23.967,326056127,41967,1,-0.20093,-0.84961,-0.36987,0.366,2.282,0.328
2026-06-29 12:51:23.967,326056127,41967,2,0.10303,-1.02051,0.02075,0.763,1.595,-0.603
2026-06-29 12:51:23.167,326055327,42167,1,-0.19604,-0.85498,-0.36279,0.557,2.427,0.153
2026-06-29 12:51:23.167,326055327,42167,2,0.10205,-1.02222,0.01514,0.947,1.557,-0.443
2026-06-29 12:51:23.367,326055527,42367,1,-0.19971,-0.85498,-0.37061,0.618,2.305,0.351
2026-06-29 12:51:23.367,326055527,42367,2,0.10083,-1.01929,0.02246,0.802,1.267,-0.519
2026-06-29 12:51:23.567,326055727,42567,1,-0.20239,-0.85229,-0.37085,0.511,2.427,0.321
2026-06-29 12:51:23.567,326055727,42567,2,0.10449,-1.01929,0.01929,0.458,1.55,-0.481
2026-06-29 12:51:24.767,326056927,42767,1,-0.19971,-0.85059,-0.37378,0.634,2.29,0.366
2026-06-29 12:51:24.767,326056927,42767,2,0.10059,-1.0188,0.01782,0.832,1.618,-0.573
2026-06-29 12:51:24.967,326057127,42967,1,-0.20728,-0.85522,-0.37231,0.496,2.344,0.496
2026-06-29 12:51:24.967,326057127,42967,2,0.0957,-1.02344,0.00537,0.534,1.42,-0.489
2026-06-29 12:51:24.167,326056327,43167,1,-0.20093,-0.854,-0.36816,0.595,2.504,0.45
2026-06-29 12:51:24.167,326056327,43167,2,0.10742,-1.01807,0.01758,0.466,1.458,-0.58
2026-06-29 12:51:24.367,326056527,43367,1,-0.19995,-0.85327,-0.37109,0.656,2.435,0.282
2026-06-29 12:51:24.367,326056527,43367,2,0.10132,-1.02441,0.01733,0.382,1.42,-0.58
2026-06-29 12:51:24.567,326056727,43567,1,-0.20337,-0.85474,-0.37451,0.252,2.206,0.42
2026-06-29 12:51:24.567,326056727,43567,2,0.10693,-1.02197,0.01294,0.611,1.504,-0.519
2026-06-29 12:51:25.767,326057927,43767,1,-0.2041,-0.84961,-0.36377,0.565,2.466,0.45
2026-06-29 12:51:25.767,326057927,43767,2,0.10327,-1.02197,0.00659,0.931,1.702,-0.565
2026-06-29 12:51:25.967,326058127,43967,1,-0.20093,-0.85229,-0.3689,0.519,2.458,0.527
2026-06-29 12:51:25.967,326058127,43967,2,0.10449,-1.02393,0.01343,0.832,1.344,-0.382
2026-06-29 12:51:25.167,326057327,44167,1,-0.20337,-0.85474,-0.37085,0.542,2.305,0.405
2026-06-29 12:51:25.167,326057327,44167,2,0.10156,-1.02368,0.00806,0.649,1.504,-0.748
2026-06-29 12:51:25.367,326057527,44367,1,-0.20776,-0.85376,-0.37402,0.45,2.374,0.328
2026-06-29 12:51:25.367,326057527,44367,2,0.10352,-1.01318,0.01611,0.863,1.45,-0.534
2026-06-29 12:51:25.567,326057727,44567,1,-0.2063,-0.85205,-0.36621,0.496,2.42,0.542
2026-06-29 12:51:25.567,326057727,44567,2,0.09839,-1.02124,0.01978,0.809,1.634,-0.504
2026-06-29 12:51:26.767,326058927,44767,1,-0.20239,-0.854,-0.37988,0.588,2.389,0.45
2026-06-29 12:51:26.767,326058927,44767,2,0.10034,-1.02246,0.02563,0.756,1.405,-0.504
2026-06-29 12:51:26.967,326059127,44967,1,-0.19873,-0.85229,-0.37231,0.519,2.466,0.191
2026-06-29 12:51:26.967,326059127,44967,2,0.10156,-1.02368,0.00952,0.534,1.511,-0.42
2026-06-29 12:51:26.167,326058327,45167,1,-0.20044,-0.85498,-0.38257,0.534,2.351,0.252
2026-06-29 12:51:26.167,326058327,45167,2,0.104,-1.02124,0.01953,0.832,1.618,-0.466
2026-06-29 12:51:26.367,326058527,45367,1,-0.19702,-0.85083,-0.3772,0.656,2.527,0.389
2026-06-29 12:51:26.367,326058527,45367,2,0.09937,-1.02246,0.02075,0.863,1.389,-0.71
2026-06-29 12:51:26.567,326058727,45567,1,-0.20679,-0.85791,-0.37329,0.351,2.366,0.733
2026-06-29 12:51:26.567,326058727,45567,2,0.10571,-1.02466,-0.00293,0.725,1.351,-0.405
2026-06-29 12:51:27.767,326059927,45767,1,-0.19458,-0.85278,-0.37061,0.611,2.344,0.374
2026-06-29 12:51:27.767,326059927,45767,2,0.11108,-1.02441,0.02319,0.847,1.427,-0.374
2026-06-29 12:51:27.967,326060127,45967,1,-0.20605,-0.85205,-0.37671,0.466,2.435,0.397
2026-06-29 12:51:27.967,326060127,45967,2,0.10815,-1.01367,0.00317,0.443,1.473,-0.443
2026-06-29 12:51:27.167,326059327,46167,1,-0.20142,-0.85938,-0.37817,0.374,2.389,0.481
2026-06-29 12:51:27.167,326059327,46167,2,0.10474,-1.02026,0.02124,0.855,1.389,-0.527
2026-06-29 12:51:27.389,326059549,46389,1,-0.19653,-0.85181,-0.37671,0.664,2.481,0.374
2026-06-29 12:51:27.389,326059549,46389,2,0.09839,-1.0249,0.02344,1.115,1.473,-0.527
2026-06-29 12:51:27.589,326059749,46589,1,-0.20093,-0.85596,-0.37036,0.573,2.344,0.359
2026-06-29 12:51:27.589,326059749,46589,2,0.10522,-1.0271,0.01855,0.908,1.55,-0.573
2026-06-29 12:51:28.789,326060949,46789,1,-0.20313,-0.85522,-0.37427,0.71,2.511,0.313
2026-06-29 12:51:28.789,326060949,46789,2,0.10449,-1.01929,0.01782,0.618,1.519,-0.466
2026-06-29 12:51:28.989,326061149,46989,1,-0.20093,-0.85425,-0.37671,0.42,2.351,0.527
2026-06-29 12:51:28.989,326061149,46989,2,0.10767,-1.021,0.02002,0.817,1.664,-0.412
2026-06-29 12:51:28.189,326060349,47189,1,-0.20215,-0.85645,-0.37476,0.527,2.366,0.45
2026-06-29 12:51:28.189,326060349,47189,2,0.10156,-1.01733,0.02026,0.656,1.45,-0.573
2026-06-29 12:51:28.389,326060549,47389,1,-0.20239,-0.84497,-0.38208,0.893,2.374,0.344
2026-06-29 12:51:28.389,326060549,47389,2,0.10107,-1.01831,0.01001,0.802,1.267,-0.42
2026-06-29 12:51:28.589,326060749,47589,1,-0.19971,-0.85474,-0.38452,0.244,2.344,0.511
2026-06-29 12:51:28.589,326060749,47589,2,0.10327,-1.01465,0.02417,0.832,1.382,-0.656
2026-06-29 12:51:29.789,326061949,47789,1,-0.19824,-0.85547,-0.37451,0.511,2.603,0.282
2026-06-29 12:51:29.789,326061949,47789,2,0.10254,-1.01709,0.0127,0.863,1.634,-0.634
2026-06-29 12:51:29.989,326062149,47989,1,-0.20166,-0.85205,-0.37549,0.695,2.626,0.191
2026-06-29 12:51:29.989,326062149,47989,2,0.10034,-1.01367,0.02783,0.794,1.725,-0.534
2026-06-29 12:51:29.189,326061349,48189,1,-0.20557,-0.85107,-0.37329,0.481,2.282,0.374
2026-06-29 12:51:29.189,326061349,48189,2,0.10229,-1.01685,0.01343,0.55,1.405,-0.55
2026-06-29 12:51:29.389,326061549,48389,1,-0.20361,-0.85474,-0.36621,0.504,2.473,0.351
2026-06-29 12:51:29.389,326061549,48389,2,0.09985,-1.02905,0.02002,0.748,1.679,-0.588
2026-06-29 12:51:29.589,326061749,48589,1,-0.20752,-0.85669,-0.36914,0.672,2.496,0.359
2026-06-29 12:51:29.589,326061749,48589,2,0.10132,-1.02075,0.0188,0.985,1.145,-0.489
2026-06-29 12:51:30.789,326062949,48789,1,-0.20117,-0.85425,-0.37061,0.405,2.45,0.489
2026-06-29 12:51:30.789,326062949,48789,2,0.104,-1.02148,0.01318,1.076,1.71,-0.618
2026-06-29 12:51:30.989,326063149,48989,1,-0.2019,-0.85693,-0.37891,0.496,2.527,0.618
2026-06-29 12:51:30.989,326063149,48989,2,0.10303,-1.02124,0.01196,0.863,1.542,-0.603
2026-06-29 12:51:30.189,326062349,49189,1,-0.19458,-0.84668,-0.37109,0.611,2.443,0.374
2026-06-29 12:51:30.189,326062349,49189,2,0.10596,-1.01685,0.02271,0.809,1.519,-0.565
2026-06-29 12:51:30.389,326062549,49389,1,-0.20068,-0.85059,-0.38013,0.672,2.412,0.298
2026-06-29 12:51:30.389,326062549,49389,2,0.10742,-1.01489,0.01953,0.695,1.382,-0.229
2026-06-29 12:51:30.589,326062749,49589,1,-0.20313,-0.85571,-0.36865,0.733,2.374,0.076
2026-06-29 12:51:30.589,326062749,49589,2,0.09961,-1.01904,0.01367,0.328,1.382,-0.649
2026-06-29 12:51:31.789,326063949,49789,1,-0.19922,-0.85547,-0.37598,0.542,2.397,0.42
2026-06-29 12:51:31.789,326063949,49789,1,-0.19922,-0.85547,-0.37598,0.542,2.397,0.42
2026-06-29 12:51:31.789,326063949,49789,2,0.10449,-1.01831,0.01685,0.687,1.527,-0.466
2026-06-29 12:51:36.318,326068478,55318,1,-0.20483,-0.85645,-0.36987,0.893,2.405,0.237
2026-06-29 12:51:36.318,326068478,55318,2,0.10034,-1.02222,0.02124,0.832,1.42,-0.382
2026-06-29 12:51:36.561,326068721,55561,1,-0.19946,-0.8457,-0.37158,0.55,2.221,0.344
2026-06-29 12:51:36.561,326068721,55561,2,0.10034,-1.01733,0.01489,0.893,1.427,-0.496
2026-06-29 12:51:37.761,326069921,55761,1,-0.20581,-0.85278,-0.3728,0.42,2.305,0.359
2026-06-29 12:51:37.761,326069921,55761,2,0.104,-1.01587,0.01196,0.847,1.649,-0.656
2026-06-29 12:51:37.961,326070121,55961,1,-0.19702,-0.85059,-0.37988,0.58,2.267,0.45
2026-06-29 12:51:37.961,326070121,55961,2,0.10229,-1.02539,0.02124,0.74,1.756,-0.542
2026-06-29 12:51:37.161,326069321,56161,1,-0.20288,-0.85254,-0.37354,0.42,2.412,0.336
2026-06-29 12:51:37.161,326069321,56161,2,0.09692,-1.02124,0.01172,0.565,1.527,-0.557
2026-06-29 12:51:37.361,326069521,56361,1,-0.20508,-0.85815,-0.37622,0.473,2.649,0.336
2026-06-29 12:51:37.361,326069521,56361,2,0.10132,-1.01831,0.021,0.939,1.229,-0.389
2026-06-29 12:51:37.561,326069721,56561,1,-0.20313,-0.85254,-0.37549,0.664,2.328,0.359
2026-06-29 12:51:37.561,326069721,56561,2,0.09839,-1.01733,-0.0022,0.489,1.595,-0.557
2026-06-29 12:51:38.761,326070921,56761,1,-0.198,-0.85303,-0.37695,0.74,2.519,0.206
2026-06-29 12:51:38.761,326070921,56761,2,0.10278,-1.01294,0.01196,1.099,1.45,-0.611
2026-06-29 12:51:38.961,326071121,56961,1,-0.20654,-0.85181,-0.37305,0.344,2.351,0.527
2026-06-29 12:51:38.961,326071121,56961,2,0.10156,-1.01929,0.02124,0.649,1.504,-0.382
2026-06-29 12:51:38.161,326070321,57161,1,-0.19971,-0.85596,-0.37109,0.687,2.313,0.595
2026-06-29 12:51:38.161,326070321,57161,2,0.09839,-1.01855,0.02539,0.718,1.389,-0.435
2026-06-29 12:51:38.361,326070521,57361,1,-0.20361,-0.84741,-0.37329,0.649,2.321,0.328
2026-06-29 12:51:38.361,326070521,57361,2,0.10181,-1.02197,0.01831,0.702,1.412,-0.55
2026-06-29 12:51:38.561,326070721,57561,1,-0.2019,-0.85083,-0.37158,0.359,2.29,0.328
2026-06-29 12:51:38.561,326070721,57561,2,0.09961,-1.02222,0.02173,0.672,1.534,-0.443
2026-06-29 12:51:39.761,326071921,57761,1,-0.19995,-0.85522,-0.37354,0.565,2.473,0.237
2026-06-29 12:51:39.761,326071921,57761,2,0.09619,-1.01831,0.0022,0.664,1.198,-0.565
2026-06-29 12:51:39.961,326072121,57961,1,-0.19873,-0.85059,-0.38208,0.397,2.26,0.458
2026-06-29 12:51:39.961,326072121,57961,2,0.10254,-1.01831,0.00439,0.733,1.435,-0.618
2026-06-29 12:51:39.161,326071321,58161,1,-0.20044,-0.854,-0.38525,0.588,2.389,0.244
2026-06-29 12:51:39.161,326071321,58161,2,0.10205,-1.02563,0.00659,0.718,1.382,-0.496
2026-06-29 12:51:39.361,326071521,58361,1,-0.20215,-0.85718,-0.37354,0.504,2.466,0.344
2026-06-29 12:51:39.361,326071521,58361,2,0.09644,-1.01782,0.01685,0.641,1.427,-0.519
2026-06-29 12:51:39.561,326071721,58561,1,-0.20288,-0.84961,-0.37109,0.344,2.16,0.351
2026-06-29 12:51:39.561,326071721,58561,2,0.10107,-1.02466,0.01563,0.588,1.527,-0.557
2026-06-29 12:51:40.761,326072921,58761,1,-0.20068,-0.85034,-0.3772,0.573,2.489,0.435
2026-06-29 12:51:40.761,326072921,58761,2,0.10938,-1.02075,0.0166,0.649,1.603,-0.756
2026-06-29 12:51:40.961,326073121,58961,1,-0.20581,-0.85791,-0.37817,0.603,2.237,0.458
2026-06-29 12:51:40.961,326073121,58961,2,0.10425,-1.01831,0.01685,0.84,1.344,-0.489
2026-06-29 12:51:40.161,326072321,59161,1,-0.20728,-0.85205,-0.36987,0.618,2.412,0.313
2026-06-29 12:51:40.161,326072321,59161,2,0.10278,-1.02075,0.01294,0.649,1.611,-0.756
2026-06-29 12:51:40.361,326072521,59361,1,-0.19849,-0.85376,-0.38232,0.695,2.565,0.351
2026-06-29 12:51:40.361,326072521,59361,2,0.10547,-1.02222,0.01831,0.595,1.687,-0.481
2026-06-29 12:51:40.561,326072721,59561,1,-0.2063,-0.85059,-0.36914,0.542,2.45,0.45
2026-06-29 12:51:40.561,326072721,59561,2,0.10767,-1.02441,0.021,0.771,1.534,-0.534
2026-06-29 12:51:41.761,326073921,59761,1,-0.2019,-0.8501,-0.37378,0.824,2.466,0.344
2026-06-29 12:51:41.761,326073921,59761,2,0.10596,-1.01904,0.02173,0.817,1.412,-0.664
2026-06-29 12:51:41.961,326074121,59961,1,-0.2063,-0.85278,-0.36572,0.527,2.321,0.504
2026-06-29 12:51:41.961,326074121,59961,2,0.10181,-1.0188,0.01855,0.656,1.695,-0.618
2026-06-29 12:51:41.161,326073321,60161,1,-0.20239,-0.85229,-0.3623,0.443,2.321,0.435
2026-06-29 12:51:41.161,326073321,60161,2,0.10303,-1.01929,0.01782,0.611,1.458,-0.573
2026-06-29 12:51:41.361,326073521,60361,1,-0.20093,-0.85254,-0.37231,0.618,2.359,0.382
2026-06-29 12:51:41.361,326073521,60361,2,0.10278,-1.02075,0.0166,0.832,1.435,-0.359
2026-06-29 12:51:41.561,326073721,60561,1,-0.20264,-0.8479,-0.36816,0.344,2.405,0.435
2026-06-29 12:51:41.561,326073721,60561,2,0.10547,-1.01758,0.02002,0.771,1.557,-0.466
2026-06-29 12:51:42.761,326074921,60761,1,-0.20044,-0.85034,-0.37695,0.687,2.435,0.573
2026-06-29 12:51:42.761,326074921,60761,2,0.09668,-1.02148,0.01685,0.443,1.618,-0.809
2026-06-29 12:51:42.961,326075121,60961,1,-0.20386,-0.85156,-0.37329,0.733,2.405,0.344
2026-06-29 12:51:42.961,326075121,60961,2,0.11011,-1.02637,0.00464,0.435,1.351,-0.542
2026-06-29 12:51:42.161,326074321,61161,1,-0.2002,-0.8501,-0.38086,0.534,2.359,0.405
2026-06-29 12:51:42.161,326074321,61161,2,0.10303,-1.01953,0.01709,0.588,1.359,-0.611
2026-06-29 12:51:45.488,326077648,64488,1,-0.20972,-0.85205,-0.38135,0.542,2.496,0.519
2026-06-29 12:51:45.488,326077648,64488,2,0.10059,-1.02612,0.01733,1.053,1.443,-0.557
2026-06-29 12:51:46.688,326078848,64688,1,-0.20313,-0.84912,-0.37988,0.779,2.55,0.237
2026-06-29 12:51:46.688,326078848,64688,2,0.09912,-1.02686,0.01074,0.687,1.588,-0.634
2026-06-29 12:51:46.888,326079048,64888,1,-0.20483,-0.85205,-0.38062,0.58,2.267,0.443
2026-06-29 12:51:46.888,326079048,64888,2,0.10449,-1.01636,0.00732,0.779,1.55,-0.489
2026-06-29 12:51:46.088,326078248,65088,1,-0.20752,-0.85059,-0.37671,0.641,2.626,0.267
2026-06-29 12:51:46.088,326078248,65088,2,0.10449,-1.02002,0.01392,0.527,1.565,-0.55
2026-06-29 12:51:46.288,326078448,65288,1,-0.2063,-0.84888,-0.37891,0.649,2.435,0.229
2026-06-29 12:51:46.288,326078448,65288,2,0.104,-1.0249,0.01245,0.695,1.427,-0.45
2026-06-29 12:51:46.488,326078648,65488,1,-0.2019,-0.85376,-0.37549,0.443,2.328,0.389
2026-06-29 12:51:46.488,326078648,65488,2,0.10522,-1.02539,0.01489,0.84,1.527,-0.527
2026-06-29 12:51:47.688,326079848,65688,1,-0.2085,-0.85132,-0.38574,0.748,2.565,0.473
2026-06-29 12:51:47.688,326079848,65688,2,0.10376,-1.02026,0.01001,0.718,1.298,-0.344
2026-06-29 12:51:47.888,326080048,65888,1,-0.2019,-0.84961,-0.37988,0.588,2.26,0.374
2026-06-29 12:51:47.888,326080048,65888,2,0.10303,-1.02124,0.02051,0.786,1.389,-0.557
2026-06-29 12:51:47.106,326079266,66106,1,-0.20605,-0.854,-0.37915,0.496,2.519,0.42
2026-06-29 12:51:47.106,326079266,66106,2,0.10474,-1.01392,0.02051,0.794,1.427,-0.466
2026-06-29 12:51:47.306,326079466,66306,1,-0.20605,-0.84644,-0.37427,0.702,2.305,0.427
2026-06-29 12:51:47.306,326079466,66306,2,0.10693,-1.02515,0.01685,0.71,1.244,-0.573
2026-06-29 12:51:47.506,326079666,66506,1,-0.20532,-0.85156,-0.37427,0.519,2.481,0.382
2026-06-29 12:51:47.506,326079666,66506,2,0.10522,-1.01587,0.01416,0.374,1.359,-0.45
2026-06-29 12:51:48.706,326080866,66706,1,-0.20825,-0.85669,-0.37085,0.382,2.473,0.443
2026-06-29 12:51:48.706,326080866,66706,2,0.10449,-1.01953,0.021,0.542,1.374,-0.321
2026-06-29 12:51:48.906,326081066,66906,1,-0.19604,-0.85425,-0.37524,0.527,2.328,0.504
2026-06-29 12:51:48.906,326081066,66906,2,0.10181,-1.01807,0.01758,0.985,1.45,-0.481
2026-06-29 12:51:48.106,326080266,67106,1,-0.20728,-0.85107,-0.36841,0.412,2.496,0.282
2026-06-29 12:51:48.106,326080266,67106,2,0.10303,-1.01343,0.01392,0.962,1.573,-0.435
2026-06-29 12:51:48.306,326080466,67306,1,-0.2019,-0.8479,-0.38232,0.641,2.427,0.473
2026-06-29 12:51:48.306,326080466,67306,2,0.10693,-1.01465,0.01245,0.763,1.45,-0.42
2026-06-29 12:51:48.506,326080666,67506,1,-0.19946,-0.84717,-0.37134,1.0,2.389,0.313
2026-06-29 12:51:48.506,326080666,67506,2,0.10181,-1.02515,0.00903,0.656,1.718,-0.481
2026-06-29 12:51:49.706,326081866,67706,1,-0.20264,-0.85571,-0.37671,0.481,2.458,0.427
2026-06-29 12:51:49.706,326081866,67706,2,0.10254,-1.02393,0.01172,0.595,1.389,-0.481
2026-06-29 12:51:49.906,326082066,67906,1,-0.20142,-0.854,-0.3833,0.519,2.229,0.466
2026-06-29 12:51:49.906,326082066,67906,2,0.10303,-1.01611,0.01611,0.603,1.427,-0.45
2026-06-29 12:51:49.106,326081266,68106,1,-0.2019,-0.84839,-0.37378,0.794,2.435,0.26
2026-06-29 12:51:49.106,326081266,68106,2,0.10254,-1.0105,0.01587,0.725,1.473,-0.519
2026-06-29 12:51:49.306,326081466,68306,1,-0.20361,-0.85327,-0.38037,0.794,2.374,0.26
2026-06-29 12:51:49.306,326081466,68306,2,0.10449,-1.01929,0.01563,0.618,1.511,-0.557
2026-06-29 12:51:49.506,326081666,68506,1,-0.20239,-0.85303,-0.37549,0.55,2.443,0.26
2026-06-29 12:51:49.506,326081666,68506,2,0.10669,-1.02734,0.01123,0.924,1.366,-0.481
2026-06-29 12:51:50.706,326082866,68706,1,-0.2041,-0.85205,-0.37671,0.718,2.473,0.298
2026-06-29 12:51:50.706,326082866,68706,2,0.09424,-1.02002,0.0105,0.916,1.603,-0.634
2026-06-29 12:51:50.906,326083066,68906,1,-0.19873,-0.84985,-0.37573,0.389,2.084,0.191
2026-06-29 12:51:50.906,326083066,68906,2,0.10864,-1.02173,0.02393,0.618,1.336,-0.389
2026-06-29 12:51:50.106,326082266,69106,1,-0.19702,-0.84937,-0.38159,0.427,2.397,0.191
2026-06-29 12:51:50.106,326082266,69106,2,0.10156,-1.01782,0.00537,1.008,1.733,-0.565
2026-06-29 12:51:50.306,326082466,69306,1,-0.20166,-0.84521,-0.37524,0.313,2.489,0.397
2026-06-29 12:51:50.306,326082466,69306,2,0.10791,-1.01929,0.02222,0.893,1.679,-0.573
2026-06-29 12:51:50.506,326082666,69506,1,-0.20386,-0.85449,-0.3728,0.237,2.489,0.542
2026-06-29 12:51:50.506,326082666,69506,2,0.1106,-1.01245,0.01245,0.84,1.55,-0.489
2026-06-29 12:51:51.706,326083866,69706,1,-0.20337,-0.85107,-0.38428,0.565,2.489,0.321
2026-06-29 12:51:51.706,326083866,69706,2,0.09985,-1.02246,0.0105,0.809,1.45,-0.489
2026-06-29 12:51:51.906,326084066,69906,1,-0.1958,-0.85449,-0.37573,0.221,2.466,0.55
2026-06-29 12:51:51.906,326084066,69906,2,0.10645,-1.02173,0.0144,0.855,1.42,-0.511
2026-06-29 12:51:51.106,326083266,70106,1,-0.2063,-0.854,-0.37769,0.763,2.58,0.26
2026-06-29 12:51:51.106,326083266,70106,2,0.10571,-1.02026,0.00952,0.802,1.725,-0.443
2026-06-29 12:51:51.306,326083466,70306,1,-0.19824,-0.85059,-0.37549,0.595,2.427,0.443
2026-06-29 12:51:51.306,326083466,70306,2,0.10352,-1.021,0.01367,0.878,1.466,-0.656
2026-06-29 12:51:51.506,326083666,70506,1,-0.20605,-0.85156,-0.38135,0.542,2.496,0.466
2026-06-29 12:51:51.506,326083666,70506,2,0.10205,-1.02466,0.02466,0.824,1.489,-0.427
2026-06-29 12:51:52.706,326084866,70706,1,-0.20313,-0.84814,-0.38501,0.466,2.305,0.427
2026-06-29 12:51:52.706,326084866,70706,2,0.10352,-1.02271,0.02368,0.771,1.504,-0.473
2026-06-29 12:51:52.906,326085066,70906,1,-0.20898,-0.85376,-0.38062,1.008,2.435,-0.015
2026-06-29 12:51:52.906,326085066,70906,2,0.104,-1.01978,0.01001,1.008,1.26,-0.366
2026-06-29 12:51:52.106,326084266,71106,1,-0.19971,-0.84717,-0.38452,0.664,2.397,0.534
2026-06-29 12:51:52.106,326084266,71106,2,0.10254,-1.01831,0.02441,0.71,1.649,-0.443
2026-06-29 12:51:52.306,326084466,71306,1,-0.19995,-0.85107,-0.38721,0.298,2.229,0.382
2026-06-29 12:51:52.306,326084466,71306,2,0.10693,-1.02197,0.0105,0.611,1.473,-0.603
2026-06-29 12:51:52.506,326084666,71506,1,-0.20386,-0.85278,-0.38623,0.618,2.519,0.206
2026-06-29 12:51:52.506,326084666,71506,2,0.10425,-1.02246,0.01172,0.763,1.649,-0.687
2026-06-29 12:51:53.706,326085866,71706,1,-0.20117,-0.85303,-0.38281,0.405,2.298,0.496
2026-06-29 12:51:53.706,326085866,71706,2,0.1062,-1.02075,0.01343,0.847,1.13,-0.687
2026-06-29 12:51:53.906,326086066,71906,1,-0.20825,-0.85376,-0.38428,0.71,2.321,0.405
2026-06-29 12:51:53.906,326086066,71906,2,0.10669,-1.02539,0.00854,1.023,1.962,-0.481
2026-06-29 12:51:53.106,326085266,72106,1,-0.19775,-0.85181,-0.37573,2.832,2.366,-0.26
2026-06-29 12:51:53.106,326085266,72106,2,0.10669,-1.01489,0.01367,1.84,1.29,-0.153
2026-06-29 12:51:53.306,326085466,72306,1,-0.20532,-0.84985,-0.375,-0.069,2.557,0.435
2026-06-29 12:51:53.306,326085466,72306,2,0.1084,-1.02026,0.01172,0.55,1.466,-0.565
2026-06-29 12:51:53.506,326085666,72506,1,-0.20264,-0.85962,-0.37305,0.313,2.359,1.42
2026-06-29 12:51:53.506,326085666,72506,2,0.09619,-1.02319,0.02417,0.092,1.634,-0.588
2026-06-29 12:51:54.706,326086866,72706,1,-0.2019,-0.84888,-0.3855,0.183,2.634,0.298
2026-06-29 12:51:54.706,326086866,72706,2,0.10645,-1.02368,0.01709,0.687,1.626,-0.527
2026-06-29 12:51:54.906,326087066,72906,1,-0.20264,-0.8501,-0.37891,-0.748,2.55,0.565
2026-06-29 12:51:54.906,326087066,72906,2,0.10205,-1.01953,0.01514,0.649,1.611,-0.427
2026-06-29 12:51:54.106,326086266,73106,1,-0.19971,-0.85034,-0.37842,-0.473,2.473,0.664
2026-06-29 12:51:54.106,326086266,73106,2,0.09766,-1.02148,0.01318,0.626,1.779,-0.695
2026-06-29 12:51:54.352,326086512,73352,1,-0.20288,-0.85132,-0.38281,0.305,2.359,0.427
2026-06-29 12:51:54.352,326086512,73352,1,-0.20288,-0.85132,-0.38281,0.305,2.359,0.427
2026-06-29 12:51:54.352,326086512,73352,2,0.11011,-1.01733,0.02319,0.763,1.435,-0.489
2026-06-29 12:52:00.813,326092973,78813,1,-0.2041,-0.84277,-0.37622,0.504,2.366,0.321
2026-06-29 12:52:00.813,326092973,78813,2,0.09521,-1.02515,0.01172,0.802,1.573,-0.496
2026-06-29 12:52:00.049,326092209,79048,1,-0.19995,-0.85229,-0.38574,0.58,2.29,0.565
2026-06-29 12:52:00.049,326092209,79048,1,-0.19995,-0.85229,-0.38574,0.58,2.29,0.565
2026-06-29 12:52:00.049,326092209,79048,2,0.10181,-1.01685,0.02002,0.802,1.611,-0.603
2026-06-29 12:52:05.446,326097606,84446,1,-0.20117,-0.84839,-0.37915,0.542,2.389,0.389
2026-06-29 12:52:05.446,326097606,84446,2,0.10254,-1.01929,0.02075,0.618,1.435,-0.374
2026-06-29 12:52:05.646,326097806,84646,1,-0.19946,-0.84399,-0.3772,0.672,2.45,0.382
2026-06-29 12:52:05.646,326097806,84646,1,-0.19946,-0.84399,-0.3772,0.672,2.45,0.382
2026-06-29 12:52:05.646,326097806,84646,2,0.125,-1.02832,0.06348,-4.527,12.863,-37.504
2026-06-29T12:53:48.977863,,,,,,,,,
2026-06-29T13:04:28.773358,,,,,,,,,
2026-06-29T13:21:18.589940,,,,,,,,,
2026-06-29 13:21:19.611,327851771,6611,1,0.75659,-0.05615,0.73242,11.412,1.321,-2.931
2026-06-29 13:21:19.611,327851771,6611,2,1.03369,-0.09912,-0.11694,10.985,13.344,-3.092
2026-06-29 13:21:19.124,327851284,7124,1,0.59448,-0.11255,0.83936,7.229,3.656,25.603
2026-06-29 13:21:19.124,327851284,7124,2,1.01611,-0.06494,-0.07446,23.954,-8.817,-8.366
2026-06-29 13:21:19.431,327851591,7431,1,0.67041,-0.10645,0.81714,12.595,-11.061,8.748
2026-06-29 13:21:19.431,327851591,7431,2,1.02759,-0.05908,-0.15576,8.84,6.198,-1.176
2026-06-29 13:21:23.703,327855863,10703,1,0.66821,-0.11963,0.83887,2.122,0.756,-0.107
2026-06-29 13:21:23.703,327855863,10703,2,1.02002,-0.08765,-0.15894,-0.939,3.351,1.076
2026-06-29 13:21:23.903,327856063,10903,1,0.63184,-0.11914,0.83716,-1.076,0.374,-1.74
2026-06-29 13:21:23.903,327856063,10903,2,1.05762,-0.06445,-0.16284,-4.466,-0.702,0.832
2026-06-29 13:21:23.103,327855263,11103,1,0.63452,-0.10938,0.85449,3.153,-2.504,1.015
2026-06-29 13:21:23.103,327855263,11103,2,1.02686,-0.05029,-0.15161,-0.824,1.099,-2.038
2026-06-29 13:21:23.462,327855622,11462,1,0.6604,-0.14282,0.81958,-2.527,2.779,-4.832
2026-06-29 13:21:23.462,327855622,11462,2,1.01367,-0.07275,-0.16113,-1.115,-4.939,-2.824
2026-06-29 13:21:24.740,327856900,11740,1,0.73291,-0.09033,0.80371,-2.198,0.481,0.412
2026-06-29 13:21:24.740,327856900,11740,2,1.01147,-0.03857,-0.17188,1.802,-0.427,3.328
2026-06-29 13:21:24.940,327857100,11940,1,0.70288,-0.13818,0.7981,-3.107,2.504,-7.069
2026-06-29 13:21:24.940,327857100,11940,2,1.02148,-0.09521,-0.23169,6.863,-0.13,1.435
2026-06-29 13:21:24.427,327856587,12427,1,0.71338,-0.08545,0.80762,-0.008,-2.58,0.473
2026-06-29T13:21:25.820165,,,,,,,,,
2026-06-29 13:21:24.427,327856587,12427,2,1.03149,-0.10376,-0.21777,0.023,-4.397,1.969
2026-06-29 13:21:28.777,327860937,15777,1,0.64795,-0.10327,0.83081,-10.26,-4.924,19.763
2026-06-29 13:21:28.777,327860937,15777,2,1.05737,-0.18335,-0.19604,14.267,-5.305,-6.038
2026-06-29 13:21:28.777,327860937,15777,2,1.05737,-0.18335,-0.19604,14.267,-5.305,-6.038
2026-06-29 13:21:33.223,327865383,21223,1,0.70459,-0.10791,0.82104,9.878,4.069,18.168
2026-06-29 13:21:33.223,327865383,21223,2,1.01611,-0.10645,-0.18799,1.038,0.305,-3.267
2026-06-29 13:21:34.595,327866755,21595,1,0.67212,-0.11816,0.81909,-0.496,0.954,-5.382
2026-06-29 13:21:34.595,327866755,21595,2,1.01294,-0.09692,-0.20532,-4.42,-3.008,1.198
2026-06-29 13:21:34.795,327866955,21795,1,0.65942,-0.09912,0.854,-6.527,1.046,-13.389
2026-06-29 13:21:34.795,327866955,21795,1,0.65942,-0.09912,0.854,-6.527,1.046,-13.389
2026-06-29 13:21:34.795,327866955,21795,2,1.01343,-0.09009,-0.16553,28.374,5.534,-12.221
2026-06-29 13:21:39.086,327871246,27086,1,0.64063,-0.09595,0.8291,8.824,-5.237,27.145
2026-06-29 13:21:39.086,327871246,27086,2,1.01587,-0.12891,-0.2085,-4.115,-3.076,4.275
2026-06-29 13:21:39.086,327871246,27086,2,1.01587,-0.12891,-0.2085,-4.115,-3.076,4.275
2026-06-29 13:21:45.536,327877696,32536,1,0.69727,-0.10962,0.81372,-1.168,5.092,1.435
2026-06-29 13:21:45.536,327877696,32536,1,0.69727,-0.10962,0.81372,-1.168,5.092,1.435
2026-06-29 13:21:45.536,327877696,32536,2,1.00293,-0.20435,-0.20825,1.855,4.389,-0.588
2026-06-29 13:21:50.674,327882834,37673,1,0.68555,-0.22388,0.79224,0.786,3.687,-5.74
2026-06-29 13:21:50.674,327882834,37673,2,1.00977,-0.22046,-0.19531,3.061,1.992,0.122
2026-06-29 13:21:50.258,327882418,38258,1,0.72217,-0.20117,0.77002,-4.595,3.397,-13.992
2026-06-29 13:21:50.258,327882418,38258,2,0.96948,-0.25488,-0.25977,-8.435,-3.115,-2.496
2026-06-29 13:21:51.569,327883729,38569,1,0.74609,-0.16748,0.78003,-1.817,-8.366,-24.153
2026-06-29 13:21:51.569,327883729,38569,2,1.01245,-0.21826,-0.21338,-1.885,-2.267,4.427
2026-06-29 13:21:51.912,327884072,38912,1,0.71436,-0.06665,0.78882,-3.641,4.221,-11.344
2026-06-29 13:21:51.912,327884072,38912,2,1.00317,-0.06079,-0.21777,-21.168,4.168,-2.863
2026-06-29 13:21:51.208,327883368,39208,1,0.71069,0.03833,0.83105,0.832,2.71,-4.779
2026-06-29 13:21:51.208,327883368,39208,2,1.0022,-0.03687,-0.21411,-8.359,-1.092,0.863
2026-06-29 13:21:52.565,327884725,39565,1,0.72437,0.00391,0.79468,0.481,1.656,-1.511
2026-06-29 13:21:52.565,327884725,39565,1,0.72437,0.00391,0.79468,0.481,1.656,-1.511
2026-06-29 13:21:52.565,327884725,39565,2,1.01221,-0.10327,-0.2207,1.435,1.061,0.046
2026-06-29 13:21:52.565,327884725,39565,2,1.01221,-0.10327,-0.2207,1.435,1.061,0.046
2026-06-29 13:22:07.026,327899186,55026,1,0.72681,-0.1228,0.77856,-0.298,2.962,0.359
2026-06-29 13:22:07.026,327899186,55026,1,0.72681,-0.1228,0.77856,-0.298,2.962,0.359
2026-06-29 13:22:07.026,327899186,55026,2,1.01001,-0.12573,-0.22607,-0.557,1.931,-0.237
2026-06-29 13:22:15.108,327907268,63108,1,0.72168,-0.13623,0.78491,1.031,2.107,0.702
2026-06-29 13:22:15.108,327907268,63108,2,1.00879,-0.12183,-0.21069,1.023,2.252,-0.351
2026-06-29 13:22:15.324,327907484,63323,1,0.72461,-0.1377,0.79175,1.176,1.992,0.679
2026-06-29 13:22:15.324,327907484,63323,2,1.00659,-0.12598,-0.23535,0.16,1.542,-0.267
2026-06-29 13:22:16.523,327908683,63523,1,0.72412,-0.12891,0.77515,0.42,2.145,0.115
2026-06-29 13:22:16.523,327908683,63523,2,1.00244,-0.11938,-0.23242,0.183,1.321,-0.618
2026-06-29 13:22:19.856,327912016,66856,1,0.72241,-0.13159,0.7832,0.053,1.969,0.183
2026-06-29 13:22:19.856,327912016,66856,2,1.00488,-0.11963,-0.21606,2.26,1.092,-0.198
2026-06-29 13:22:19.056,327911216,67056,1,0.71606,-0.13159,0.79785,0.855,2.176,0.588
2026-06-29 13:22:19.056,327911216,67056,2,1.00732,-0.1145,-0.22754,0.573,0.893,-0.58
2026-06-29 13:22:20.541,327912701,67540,1,0.71802,-0.12622,0.79468,1.16,2.336,0.71
2026-06-29 13:22:20.541,327912701,67540,2,1.00562,-0.1228,-0.22192,-0.122,1.595,-0.229
2026-06-29 13:22:20.740,327912900,67740,1,0.71924,-0.13525,0.78223,0.824,2.183,-0.015
2026-06-29 13:22:20.740,327912900,67740,2,1.00244,-0.12671,-0.22144,-0.198,1.74,-0.038
2026-06-29 13:22:20.940,327913100,67940,1,0.72339,-0.14014,0.79053,0.412,2.931,0.244
2026-06-29 13:22:20.940,327913100,67940,2,1.00708,-0.1228,-0.21973,-0.656,0.489,-0.176
2026-06-29 13:22:20.192,327912352,68191,1,0.71753,-0.13257,0.79663,1.351,2.954,0.916
2026-06-29 13:22:20.192,327912352,68191,2,1.00635,-0.13037,-0.22681,0.74,1.763,-0.832
2026-06-29 13:22:20.391,327912551,68391,1,0.7168,-0.1311,0.78076,0.015,2.664,-0.099
2026-06-29 13:22:20.391,327912551,68391,2,1.0083,-0.12939,-0.22974,-0.099,1.26,0.099
2026-06-29 13:22:21.591,327913751,68591,1,0.70752,-0.13428,0.78857,-0.718,1.237,0.076
2026-06-29 13:22:21.591,327913751,68591,2,1.01221,-0.12329,-0.21289,2.061,2.366,-0.756
2026-06-29 13:22:21.929,327914089,68929,1,0.72485,-0.13232,0.78369,-0.527,2.931,-1.481
2026-06-29 13:22:21.929,327914089,68929,2,1.00659,-0.14453,-0.21289,-0.443,6.687,1.756
2026-06-29 13:22:21.254,327913414,69253,1,0.68311,-0.18823,0.79126,-9.55,9.71,-14.504
2026-06-29 13:22:21.254,327913414,69253,2,0.99829,-0.23071,-0.17871,-4.374,2.977,8.405
2026-06-29 13:22:21.453,327913613,69453,1,0.71387,-0.16577,0.82666,-4.817,1.786,-19.618
2026-06-29 13:22:21.453,327913613,69453,2,1.00488,-0.073,-0.31836,-13.649,-8.992,-10.824
2026-06-29 13:22:22.783,327914943,69783,1,0.69385,0.09229,0.79492,13.099,6.038,-32.924
2026-06-29 13:22:22.783,327914943,69783,2,0.98511,-0.03662,-0.22461,-6.26,-1.183,-3.847
2026-06-29 13:22:22.049,327914209,70049,1,0.73706,0.11475,0.85693,-12.718,-6.649,-17.366
2026-06-29 13:22:22.049,327914209,70049,2,1.00537,-0.06006,-0.20166,-14.748,1.046,3.13
2026-06-29 13:22:23.717,327915877,70717,1,0.69165,0.09473,0.8252,-10.206,1.336,-9.427
2026-06-29 13:22:23.717,327915877,70717,2,1.00854,-0.06763,-0.19067,-4.542,1.13,2.351
2026-06-29 13:22:23.252,327915412,71252,1,0.68066,0.09814,0.8313,0.015,1.191,-3.359
2026-06-29 13:22:23.252,327915412,71252,2,1.00439,-0.06641,-0.23828,-2.053,1.901,1.962
2026-06-29 13:22:24.577,327916737,71577,1,0.68799,0.0896,0.82007,1.45,1.084,0.588
2026-06-29 13:22:24.577,327916737,71577,2,1.01245,-0.04541,-0.2312,1.275,1.756,-3.817
2026-06-29 13:22:24.051,327916211,72051,1,0.70581,0.10522,0.80859,1.885,2.214,0.55
2026-06-29 13:22:24.051,327916211,72051,2,1.01245,-0.06006,-0.24414,2.71,3.42,-1.221
2026-06-29 13:22:24.358,327916518,72358,1,0.68604,0.09033,0.82349,2.015,2.557,3.756
2026-06-29 13:22:24.358,327916518,72358,2,1.00586,-0.05884,-0.22705,4.038,0.901,-1.466
2026-06-29 13:22:25.701,327917861,72700,1,0.69702,0.08252,0.81421,2.115,1.939,2.603
2026-06-29 13:22:25.701,327917861,72700,2,1.00928,-0.06738,-0.22974,1.466,0.481,-1.191
2026-06-29 13:22:25.937,327918097,72937,1,0.69604,0.0957,0.823,2.168,3.443,0.985
2026-06-29 13:22:25.937,327918097,72937,2,1.02197,-0.052,-0.23267,-0.092,1.588,-1.458
2026-06-29 13:22:25.137,327917297,73137,1,0.70117,0.08667,0.80859,0.366,2.481,-0.023
2026-06-29 13:22:25.137,327917297,73137,2,1.01563,-0.06519,-0.21509,0.244,3.71,-1.366
2026-06-29 13:22:26.529,327918689,73529,1,0.68628,0.08301,0.81372,1.275,2.359,2.344
2026-06-29 13:22:26.529,327918689,73529,2,1.00269,-0.05518,-0.23511,0.511,0.649,-0.366
2026-06-29 13:22:26.729,327918889,73729,1,0.6958,0.09302,0.8186,0.534,1.382,1.252
2026-06-29 13:22:26.729,327918889,73729,2,1.00073,-0.05786,-0.23291,-1.924,0.344,0.328
2026-06-29 13:22:26.929,327919089,73929,1,0.69849,0.08862,0.81909,-0.137,2.061,0.718
2026-06-29 13:22:26.929,327919089,73929,2,1.0144,-0.07446,-0.21948,4.031,1.58,-0.359
2026-06-29 13:22:26.165,327918325,74164,1,0.69189,0.07568,0.82007,1.145,2.267,2.183
2026-06-29 13:22:26.165,327918325,74164,2,1.00732,-0.06396,-0.22754,3.206,2.221,-0.366
2026-06-29 13:22:26.364,327918524,74364,1,0.69409,0.07373,0.82397,0.351,2.58,2.008
2026-06-29 13:22:26.364,327918524,74364,2,1.00317,-0.07471,-0.2395,1.924,1.053,-0.832
2026-06-29 13:22:27.564,327919724,74564,1,0.71118,0.06763,0.81079,0.29,1.122,0.756
2026-06-29 13:22:27.564,327919724,74564,2,1.00879,-0.07153,-0.23486,0.412,0.015,-1.023
2026-06-29 13:22:27.894,327920054,74894,1,0.69727,0.08154,0.81348,2.038,2.153,1.443
2026-06-29 13:22:27.894,327920054,74894,1,0.69727,0.08154,0.81348,2.038,2.153,1.443
2026-06-29 13:22:27.894,327920054,74894,2,1.00317,-0.06152,-0.24341,-0.191,0.198,-0.443
2026-06-29 13:22:32.152,327924312,80152,1,0.69971,0.08228,0.81152,1.275,1.939,0.084
2026-06-29 13:22:32.152,327924312,80152,2,1.00757,-0.0603,-0.23511,-0.855,1.214,-0.649
2026-06-29 13:22:32.352,327924512,80352,1,0.70166,0.08447,0.81689,0.137,1.611,-0.382
2026-06-29 13:22:32.352,327924512,80352,2,1.00122,-0.05151,-0.23853,-0.458,0.328,-0.412
2026-06-29 13:22:33.560,327925720,80560,1,0.69971,0.08545,0.81738,0.718,0.931,0.756
2026-06-29 13:22:33.560,327925720,80560,2,1.0,-0.05615,-0.24023,1.427,2.053,-0.802
2026-06-29 13:22:33.095,327925255,81095,1,0.70239,0.07495,0.80835,0.595,2.42,1.237
2026-06-29 13:22:33.095,327925255,81095,2,1.00952,-0.05396,-0.23999,3.527,2.603,-0.122
2026-06-29 13:22:33.439,327925599,81439,1,0.7041,0.07227,0.81348,-0.176,2.565,2.046
2026-06-29 13:22:33.439,327925599,81439,2,0.99854,-0.06665,-0.2334,1.023,1.901,-0.496
2026-06-29 13:22:34.703,327926863,81703,1,0.69849,0.06641,0.81177,1.351,3.458,2.71
2026-06-29 13:22:34.703,327926863,81703,2,1.01782,-0.06372,-0.23267,0.779,0.427,-0.046
2026-06-29 13:22:34.903,327927063,81903,1,0.70361,0.0542,0.80957,1.74,2.237,3.145
2026-06-29 13:22:34.903,327927063,81903,2,1.00732,-0.0647,-0.24414,3.069,0.336,-0.878
2026-06-29 13:22:34.195,327926355,82195,1,0.71802,0.06006,0.80298,1.359,1.527,2.557
2026-06-29 13:22:34.195,327926355,82195,2,0.99902,-0.0752,-0.25464,0.939,1.748,0.481
2026-06-29 13:22:34.395,327926555,82395,1,0.70703,0.04858,0.80518,1.366,0.916,3.573
2026-06-29 13:22:34.395,327926555,82395,2,1.0061,-0.08643,-0.23755,5.687,1.0,-0.275
2026-06-29 13:22:35.595,327927755,82595,1,0.71289,0.05054,0.802,2.557,2.802,2.779
2026-06-29 13:22:35.595,327927755,82595,2,1.00513,-0.07837,-0.25317,0.855,0.939,-2.267
2026-06-29 13:22:35.795,327927955,82795,1,0.70752,0.06348,0.79688,1.45,3.122,0.794
2026-06-29 13:22:35.795,327927955,82795,2,1.00195,-0.08374,-0.23193,-1.038,0.87,0.145
2026-06-29 13:22:35.167,327927327,83167,1,0.71411,0.03833,0.79858,0.374,2.595,1.046
2026-06-29 13:22:35.167,327927327,83167,2,1.0022,-0.08643,-0.24512,2.13,0.611,-1.214
2026-06-29 13:22:36.543,327928703,83543,1,0.7146,0.04688,0.80322,1.893,2.626,3.122
2026-06-29 13:22:36.543,327928703,83543,2,1.0083,-0.07397,-0.2583,4.008,1.908,-1.855
2026-06-29 13:22:36.743,327928903,83743,1,0.71362,0.04419,0.81006,0.969,2.42,1.13
2026-06-29 13:22:36.743,327928903,83743,2,0.99976,-0.07593,-0.23242,3.26,1.939,-1.45
2026-06-29 13:22:36.943,327929103,83943,1,0.71997,0.03882,0.80884,0.733,1.901,0.053
2026-06-29 13:22:36.943,327929103,83943,2,0.99805,-0.07251,-0.23364,-2.55,1.328,-0.13
2026-06-29 13:22:36.385,327928545,84384,1,0.71704,0.04712,0.80615,-0.908,2.733,-1.626
2026-06-29 13:22:36.385,327928545,84384,2,0.99927,-0.07715,-0.23413,-1.786,0.901,0.038
2026-06-29 13:22:37.584,327929744,84584,1,0.71655,0.04858,0.80493,1.023,2.733,-0.267
2026-06-29 13:22:37.584,327929744,84584,2,1.00806,-0.07422,-0.24756,0.885,2.321,-0.771
2026-06-29 13:22:37.784,327929944,84784,1,0.71582,0.05518,0.80127,2.901,2.771,0.908
2026-06-29 13:22:37.784,327929944,84784,2,1.00146,-0.06934,-0.23926,0.565,1.443,-0.802
2026-06-29 13:22:37.191,327929351,85191,1,0.72363,0.05298,0.79712,-0.916,3.504,-1.511
2026-06-29 13:22:37.191,327929351,85191,2,1.01172,-0.05322,-0.2417,-1.435,3.557,-0.435
2026-06-29 13:22:37.391,327929551,85391,1,0.71655,0.05884,0.80811,0.679,3.183,-1.527
2026-06-29 13:22:37.391,327929551,85391,2,1.00269,-0.06299,-0.22925,-0.206,2.901,0.626
2026-06-29 13:22:38.737,327930897,85737,1,0.70142,0.04761,0.80737,0.084,2.168,1.344
2026-06-29 13:22:38.737,327930897,85737,2,1.01221,-0.07007,-0.22876,2.847,1.87,-1.168
2026-06-29 13:22:38.937,327931097,85937,1,0.70508,0.05347,0.80566,2.603,2.679,3.023
2026-06-29 13:22:38.937,327931097,85937,2,1.01587,-0.06592,-0.2356,4.244,2.641,-1.397
2026-06-29 13:22:38.137,327930297,86137,1,0.70801,0.04468,0.81592,1.26,2.198,2.168
2026-06-29 13:22:38.137,327930297,86137,2,1.01147,-0.06177,-0.24512,2.771,0.496,-0.679
2026-06-29 13:22:38.137,327930297,86137,2,1.01147,-0.06177,-0.24512,2.771,0.496,-0.679
2026-06-29 13:22:43.373,327935533,91373,1,0.72754,0.02466,0.80371,-1.458,1.0,-2.779
2026-06-29 13:22:43.373,327935533,91373,2,1.0061,-0.07422,-0.22607,4.023,2.641,-2.397
2026-06-29 13:22:44.684,327936844,91683,1,0.7124,0.04956,0.80444,4.771,3.427,3.595
2026-06-29 13:22:44.684,327936844,91683,2,1.0061,-0.07202,-0.24292,5.931,3.473,-2.847
2026-06-29 13:22:44.883,327937043,91883,1,0.70459,0.03979,0.80713,1.427,4.084,3.664
2026-06-29 13:22:44.883,327937043,91883,2,1.0061,-0.05688,-0.21094,7.695,3.244,-1.496
2026-06-29 13:22:44.083,327936243,92083,1,0.70435,0.02148,0.80811,-1.771,1.908,0.008
2026-06-29 13:22:44.083,327936243,92083,2,1.01392,-0.06201,-0.21924,-2.336,1.061,0.252
2026-06-29 13:22:44.283,327936443,92283,1,0.69775,0.03076,0.8103,-0.45,1.366,-1.42
2026-06-29 13:22:44.283,327936443,92283,1,0.69775,0.03076,0.8103,-0.45,1.366,-1.42
2026-06-29 13:22:44.283,327936443,92283,2,1.01221,-0.07007,-0.23999,-1.817,-0.443,0.496
2026-06-29 13:22:50.678,327942838,97678,1,0.71509,0.06763,0.79932,1.229,1.427,-1.344
2026-06-29 13:22:50.678,327942838,97678,2,1.00708,-0.06714,-0.23071,-0.137,0.733,-0.412
2026-06-29 13:22:50.092,327942252,98092,1,0.71704,0.08032,0.80933,-0.305,2.305,-2.817
2026-06-29 13:22:50.092,327942252,98092,2,1.01001,-0.04492,-0.24561,-4.58,0.611,-0.214
2026-06-29 13:22:55.230,327947390,103230,1,0.72021,0.03223,0.81226,-0.221,2.878,0.824
2026-06-29 13:22:55.230,327947390,103230,2,1.0271,-0.08521,-0.18481,8.206,5.366,-1.435
2026-06-29 13:22:55.230,327947390,103230,2,1.0271,-0.08521,-0.18481,8.206,5.366,-1.435
2026-06-29 13:23:01.713,327953873,108713,1,0.72168,0.01611,0.79858,3.351,2.679,3.16
2026-06-29 13:23:01.713,327953873,108713,2,1.00488,-0.10156,-0.23218,3.908,2.58,-1.718
2026-06-29 13:23:01.713,327953873,108713,2,1.00488,-0.10156,-0.23218,3.908,2.58,-1.718
2026-06-29 13:23:11.868,327964028,118868,1,0.20728,0.04785,0.75024,-6.359,105.176,-34.687
2026-06-29 13:23:11.868,327964028,118868,2,0.89624,-0.13232,0.3623,-51.603,139.885,-15.534
2026-06-29 13:23:11.068,327963228,119068,1,-0.37378,0.06226,0.87573,12.176,141.71,63.954
2026-06-29 13:23:11.068,327963228,119068,2,0.69409,-0.06982,0.76782,-2.008,132.412,2.076
2026-06-29 13:23:11.268,327963428,119268,1,-0.87842,-0.02344,1.09595,19.496,76.031,62.977
2026-06-29 13:23:11.268,327963428,119268,1,-0.87842,-0.02344,1.09595,19.496,76.031,62.977
2026-06-29 13:23:11.268,327963428,119268,2,1.04761,-0.14795,-0.08301,-0.374,-0.374,-5.466
2026-06-29 13:23:11.268,327963428,119268,2,1.04761,-0.14795,-0.08301,-0.374,-0.374,-5.466
2026-06-29 13:23:22.719,327974879,129719,1,0.46338,0.26636,0.8623,2.855,-18.985,-18.473
2026-06-29 13:23:22.719,327974879,129719,2,1.06396,0.09961,-0.15161,-14.504,-17.115,-0.389
2026-06-29 13:23:22.919,327975079,129919,1,0.70508,-0.09741,0.87012,-2.145,-6.023,-4.618
2026-06-29 13:23:22.919,327975079,129919,2,1.09033,-0.24683,-0.14282,16.939,19.206,-0.427
2026-06-29 13:23:22.119,327974279,130119,1,0.63452,-0.10107,0.85352,-9.611,0.863,5.031
2026-06-29 13:23:22.119,327974279,130119,2,1.03418,-0.12695,-0.13257,3.916,4.374,11.443
2026-06-29 13:23:22.319,327974479,130319,1,0.66479,-0.16553,0.83301,-17.534,6.748,-25.26
2026-06-29 13:23:22.319,327974479,130319,2,1.10498,-0.29858,-0.11914,-11.214,10.924,15.939
2026-06-29 13:23:23.577,327975737,130577,1,0.53662,0.05151,0.91553,-14.84,7.504,2.038
2026-06-29 13:23:23.577,327975737,130577,2,1.05835,0.08228,-0.11914,-32.008,-12.885,12.267
2026-06-29 13:23:23.777,327975937,130777,1,0.58594,0.0957,0.85913,1.443,-9.519,-9.702
2026-06-29 13:23:23.777,327975937,130777,2,0.94849,0.01099,-0.16821,-17.198,-15.443,5.061
2026-06-29 13:23:23.977,327976137,130977,1,0.73975,-0.06299,0.84595,-15.008,-9.527,-16.084
2026-06-29 13:23:23.977,327976137,130977,2,1.00293,-0.0979,-0.25391,6.992,10.634,-10.908
2026-06-29 13:23:23.177,327975337,131177,1,0.69653,-0.03394,0.83618,11.267,2.779,10.176
2026-06-29 13:23:23.177,327975337,131177,2,1.05908,-0.10156,-0.18091,45.069,44.16,-5.489
2026-06-29 13:23:23.377,327975537,131377,1,0.72998,-0.09961,0.81494,1.763,9.328,1.16
2026-06-29 13:23:23.377,327975537,131377,2,0.9895,-0.15186,-0.22461,-31.534,0.168,-2.237
2026-06-29 13:23:24.577,327976737,131577,1,0.68921,-0.10376,0.82837,-10.901,7.947,-11.84
2026-06-29 13:23:24.577,327976737,131577,2,1.08423,-0.21362,-0.03589,19.901,-4.611,9.794
2026-06-29 13:23:27.681,327979841,134681,1,0.51392,-0.31787,0.9187,4.847,-12.046,16.359
2026-06-29 13:23:27.681,327979841,134681,2,1.02856,-0.26196,-0.06152,19.954,-14.038,3.366
2026-06-29 13:23:27.881,327980041,134881,1,0.5481,-0.26465,0.8916,16.802,-5.885,28.58
2026-06-29 13:23:27.881,327980041,134881,2,1.01196,-0.18604,-0.09131,13.771,-2.145,-11.901
2026-06-29 13:23:27.081,327979241,135081,1,0.64526,-0.16992,0.84473,24.847,-3.786,11.115
2026-06-29 13:23:27.081,327979241,135081,2,1.0542,-0.12573,-0.12939,26.489,0.885,-19.344
2026-06-29 13:23:27.333,327979493,135333,1,0.62085,0.01416,0.89111,28.015,1.458,30.626
2026-06-29 13:23:27.333,327979493,135333,2,1.06128,-0.00293,-0.03198,14.305,9.504,-3.519
2026-06-29 13:23:27.333,327979493,135333,2,1.06128,-0.00293,-0.03198,14.305,9.504,-3.519
2026-06-29 13:23:33.630,327985790,140629,1,0.17651,-0.04932,1.05566,-2.229,-60.656,36.275
2026-06-29 13:23:33.630,327985790,140629,2,0.96704,0.2439,0.21338,37.496,-80.664,10.13
2026-06-29 13:23:33.831,327985991,140831,1,0.35181,0.18994,0.85986,2.565,-64.534,-2.588
2026-06-29 13:23:33.831,327985991,140831,2,1.08325,0.0083,0.06055,16.336,-30.084,23.733
2026-06-29 13:23:33.281,327985441,141281,1,0.52246,-0.13159,0.94849,-10.626,18.344,21.473
2026-06-29 13:23:33.281,327985441,141281,2,1.10522,-0.3186,-0.08716,-15.473,13.359,9.473
2026-06-29 13:23:34.481,327986641,141481,1,0.40991,-0.16895,0.87354,-21.176,23.878,-10.214
2026-06-29 13:23:34.481,327986641,141481,1,0.40991,-0.16895,0.87354,-21.176,23.878,-10.214
2026-06-29 13:23:34.481,327986641,141481,2,1.0354,-0.15381,-0.17432,5.313,1.786,0.702
2026-06-29 13:23:39.693,327991853,146693,1,0.67041,-0.11523,0.85791,3.466,0.939,5.573
2026-06-29 13:23:39.693,327991853,146693,2,1.05713,-0.17285,-0.14722,13.824,9.527,-8.427
2026-06-29 13:23:39.893,327992053,146893,1,0.61353,-0.12183,0.86792,26.466,16.855,17.802
2026-06-29 13:23:39.893,327992053,146893,2,1.052,-0.10986,-0.09595,51.107,12.412,-20.58
2026-06-29 13:23:39.145,327991305,147145,1,0.51025,0.05688,0.93408,15.931,6.931,8.405
2026-06-29 13:23:39.145,327991305,147145,1,0.51025,0.05688,0.93408,15.931,6.931,8.405
2026-06-29 13:23:39.145,327991305,147145,2,0.99146,0.08301,-0.11548,38.794,12.824,-32.412
2026-06-29 13:23:45.487,327997647,152486,1,0.46387,0.36914,0.93188,28.458,3.298,14.206
2026-06-29 13:23:45.487,327997647,152486,1,0.46387,0.36914,0.93188,28.458,3.298,14.206
2026-06-29 13:23:45.487,327997647,152486,2,1.03662,-0.11523,-0.1145,-30.0,-15.832,10.031
2026-06-29 13:23:50.798,328002958,157798,1,0.60913,-0.11206,0.88818,-15.679,-16.145,-13.626
2026-06-29 13:23:50.798,328002958,157798,2,1.05518,-0.13965,-0.16235,-5.618,2.427,6.298
2026-06-29 13:23:50.104,328002264,158104,1,0.62134,-0.14575,0.87622,-5.038,16.321,-1.122
2026-06-29 13:23:50.104,328002264,158104,2,1.03174,-0.13989,-0.13672,8.046,12.397,1.679
2026-06-29 13:23:50.304,328002464,158304,1,0.53882,-0.12646,0.90063,5.878,19.107,5.55
2026-06-29 13:23:50.304,328002464,158304,2,1.02368,-0.1106,-0.06982,27.603,15.771,-10.84
2026-06-29 13:23:51.504,328003664,158504,1,0.51074,-0.04932,0.95508,23.13,6.954,14.855
2026-06-29 13:23:51.504,328003664,158504,2,1.0481,-0.03784,-0.09058,-5.84,-3.351,-15.939
2026-06-29 13:23:51.504,328003664,158504,2,1.0481,-0.03784,-0.09058,-5.84,-3.351,-15.939
2026-06-29 13:23:56.844,328009004,163844,1,0.57764,-0.08569,0.88843,5.588,12.42,4.374
2026-06-29 13:23:56.844,328009004,163844,2,1.03345,-0.08081,-0.10791,1.893,12.122,-2.847
2026-06-29 13:23:56.044,328008204,164044,1,0.55957,-0.09229,0.91211,8.351,9.832,9.099
2026-06-29 13:23:56.044,328008204,164044,2,1.04077,-0.04395,-0.06689,13.252,7.863,-7.794
2026-06-29 13:23:56.244,328008404,164244,1,0.55322,-0.03174,0.91309,12.481,2.214,15.374
2026-06-29 13:23:56.244,328008404,164244,2,1.06665,-0.02661,-0.06665,-14.344,2.969,5.344
2026-06-29 13:23:57.686,328009846,164686,1,0.54443,-0.13745,0.91846,-18.771,10.168,-13.542
2026-06-29 13:23:57.686,328009846,164686,2,1.04028,-0.11646,-0.04956,-16.687,3.351,17.916
2026-06-29 13:23:57.886,328010046,164886,1,0.50854,-0.22998,0.89575,-14.786,-3.015,-5.565
2026-06-29 13:23:57.886,328010046,164886,2,1.03052,-0.2002,-0.09302,-14.473,-6.458,12.679
2026-06-29 13:23:57.100,328009260,165100,1,0.56909,-0.28784,0.84229,-14.336,-0.29,-0.756
2026-06-29 13:23:57.100,328009260,165100,2,1.04858,-0.19092,-0.09863,6.55,4.053,-0.527
2026-06-29 13:23:57.406,328009566,165406,1,0.53662,-0.22974,0.87402,10.664,8.55,0.87
2026-06-29 13:23:57.406,328009566,165406,2,1.01929,-0.14893,-0.09766,3.977,6.13,-7.924
2026-06-29 13:23:58.683,328010843,165683,1,0.54541,-0.22217,0.91113,-5.382,5.885,-10.901
2026-06-29 13:23:58.683,328010843,165683,2,1.04785,-0.11987,-0.07739,5.458,1.702,-1.298
2026-06-29 13:23:58.172,328010332,166172,1,0.53906,-0.22266,0.90527,-1.275,3.802,-1.55
2026-06-29 13:23:58.172,328010332,166172,2,1.03003,-0.17578,-0.05981,9.878,4.771,-2.595
2026-06-29 13:23:59.521,328011681,166521,1,0.53906,-0.22705,0.88379,-6.435,1.687,-8.053
2026-06-29 13:23:59.521,328011681,166521,2,1.03784,-0.15356,-0.12207,-8.29,-1.053,-2.611
2026-06-29 13:23:59.819,328011979,166819,1,0.54883,-0.21826,0.8877,-1.656,3.313,-4.618
2026-06-29 13:23:59.819,328011979,166819,2,1.03491,-0.1543,-0.12109,4.588,0.603,0.374
2026-06-29 13:23:59.076,328011236,167076,1,0.55078,-0.21265,0.88403,2.374,1.214,2.679
2026-06-29 13:23:59.076,328011236,167076,2,1.0249,-0.12451,-0.12842,1.092,1.511,-0.344
2026-06-29 13:23:59.388,328011548,167388,1,0.5603,-0.20923,0.88721,2.107,1.344,1.58
2026-06-29 13:23:59.388,328011548,167388,2,1.04468,-0.12744,-0.13647,0.244,1.076,-0.458
2026-06-29 13:24:02.294,328014454,170294,1,0.53076,-0.21484,0.9104,-2.496,-1.641,0.588
2026-06-29 13:24:02.294,328014454,170294,2,1.03784,-0.13135,-0.08521,-2.511,-2.565,1.725
2026-06-29 13:24:03.628,328015788,170628,1,0.53516,-0.20459,0.9043,-3.969,-0.344,-1.214
2026-06-29 13:24:03.628,328015788,170628,2,1.03638,-0.14014,-0.0686,-5.397,-0.397,5.351
2026-06-29 13:24:03.828,328015988,170828,1,0.53369,-0.24219,0.88843,0.122,0.969,6.901
2026-06-29 13:24:03.828,328015988,170828,2,1.03638,-0.17261,-0.06885,4.748,0.687,0.779
2026-06-29 13:24:03.028,328015188,171028,1,0.51465,-0.2229,0.90991,2.481,1.55,8.183
2026-06-29 13:24:03.028,328015188,171028,2,1.03955,-0.14697,-0.08203,14.58,0.382,-2.504
2026-06-29 13:24:03.228,328015388,171228,1,0.52734,-0.23633,0.89624,5.214,-1.832,12.534
2026-06-29 13:24:03.228,328015388,171228,2,1.03687,-0.14722,-0.08057,11.305,-0.863,0.603
2026-06-29 13:24:03.428,328015588,171428,1,0.53809,-0.25391,0.88623,-1.061,0.214,5.183
2026-06-29 13:24:03.428,328015588,171428,2,1.0332,-0.17236,-0.09863,-2.305,2.092,0.389
2026-06-29 13:24:04.628,328016788,171628,1,0.53638,-0.2583,0.88159,-0.107,3.756,2.305
2026-06-29 13:24:04.628,328016788,171628,2,1.04102,-0.177,-0.08374,0.534,3.046,-0.366
2026-06-29 13:24:04.851,328017011,171851,1,0.52832,-0.26001,0.89136,-0.046,2.672,-1.718
2026-06-29 13:24:04.851,328017011,171851,2,1.03931,-0.16626,-0.08447,0.496,2.084,-1.191
2026-06-29 13:24:04.068,328016228,172068,1,0.53247,-0.24487,0.8894,-1.29,3.664,-2.504
2026-06-29 13:24:04.068,328016228,172068,2,1.03711,-0.16553,-0.07788,-1.221,3.168,-0.405
2026-06-29 13:24:04.268,328016428,172268,1,0.52612,-0.24829,0.89917,-0.298,3.573,-0.924
2026-06-29 13:24:04.268,328016428,172268,2,1.03223,-0.15698,-0.07251,-5.45,2.42,-0.832
2026-06-29 13:24:04.468,328016628,172468,1,0.5332,-0.25293,0.89355,-1.42,5.504,-1.275
2026-06-29 13:24:04.468,328016628,172468,2,1.02856,-0.14673,-0.05737,-1.084,3.328,-1.412
2026-06-29 13:24:05.828,328017988,172828,1,0.5166,-0.24731,0.90454,-0.099,3.397,-2.542
2026-06-29 13:24:05.828,328017988,172828,2,1.0376,-0.16113,-0.05884,0.435,1.389,0.389
2026-06-29 13:24:06.855,328019015,173855,1,0.51294,-0.25171,0.90137,0.969,2.908,2.427
2026-06-29 13:24:06.855,328019015,173855,2,1.04565,-0.14063,-0.06763,1.061,1.221,0.305
2026-06-29 13:24:06.073,328018233,174073,1,0.51294,-0.25098,0.91162,-0.053,1.588,1.008
2026-06-29 13:24:06.073,328018233,174073,2,1.05078,-0.07593,-0.01855,3.634,1.611,-1.458
2026-06-29 13:24:09.167,328021327,177167,1,0.46851,-0.15015,0.94824,-1.55,1.137,-6.458
2026-06-29 13:24:09.167,328021327,177167,2,1.06543,-0.09375,-0.04565,-0.733,-3.824,1.137
2026-06-29 13:24:09.443,328021603,177443,1,0.48413,-0.19312,0.93359,-8.176,4.771,-17.397
2026-06-29 13:24:09.443,328021603,177443,2,1.05103,-0.14453,-0.0769,0.45,-4.061,0.832
2026-06-29 13:24:10.791,328022951,177791,1,0.51978,-0.18726,0.91211,0.076,-5.107,1.718
2026-06-29 13:24:10.791,328022951,177791,2,1.02612,-0.14355,-0.09668,2.985,-1.656,1.985
2026-06-29 13:24:10.991,328023151,177991,1,0.55273,-0.18872,0.90234,-2.756,0.58,7.13
2026-06-29 13:24:10.991,328023151,177991,2,1.03271,-0.15796,-0.10107,7.992,2.29,2.366
2026-06-29 13:24:10.191,328022351,178191,1,0.53125,-0.24341,0.89795,5.718,-7.031,12.626
2026-06-29 13:24:10.191,328022351,178191,2,1.03076,-0.16675,-0.12061,-3.557,0.84,-2.885
2026-06-29 13:24:10.441,328022601,178441,1,0.60938,-0.15405,0.88232,2.802,-1.664,7.053
2026-06-29 13:24:10.441,328022601,178441,2,1.04419,-0.11694,-0.09741,3.756,2.58,-0.473
2026-06-29 13:24:11.641,328023801,178641,1,0.53442,-0.22949,0.90186,-0.672,4.908,10.046
2026-06-29 13:24:11.641,328023801,178641,2,1.04028,-0.14233,-0.11938,1.939,4.824,2.183
2026-06-29 13:24:11.841,328024001,178841,1,0.54053,-0.21582,0.89966,0.847,3.763,4.458
2026-06-29 13:24:11.841,328024001,178841,2,1.04907,-0.15503,-0.09912,-3.649,7.183,-0.351
2026-06-29 13:24:11.041,328023201,179041,1,0.52612,-0.28687,0.88892,0.908,6.969,7.427
2026-06-29 13:24:11.041,328023201,179041,2,1.02954,-0.16992,-0.07617,3.038,8.344,-0.191
2026-06-29 13:24:11.241,328023401,179241,1,0.4856,-0.27295,0.90942,-2.611,7.878,5.954
2026-06-29 13:24:11.241,328023401,179241,2,1.06934,-0.14795,-0.05469,7.573,5.191,2.382
2026-06-29 13:24:11.441,328023601,179441,1,0.45605,-0.26318,0.92456,3.511,-0.389,13.702
2026-06-29 13:24:11.441,328023601,179441,2,1.04785,-0.16064,-0.04395,5.641,4.122,2.313
2026-06-29 13:24:11.441,328023601,179441,2,1.04785,-0.16064,-0.04395,5.641,4.122,2.313
2026-06-29 13:24:17.661,328029821,184661,1,0.49585,-0.28833,0.90796,2.107,3.557,-2.847
2026-06-29 13:24:17.661,328029821,184661,2,1.04883,-0.16675,-0.05811,-0.588,3.008,-2.748
2026-06-29 13:24:17.861,328030021,184861,1,0.48999,-0.28003,0.8938,3.031,3.298,-3.473
2026-06-29 13:24:17.861,328030021,184861,2,1.04224,-0.13159,-0.05811,-0.389,3.13,-5.107
2026-06-29 13:24:17.084,328029244,185084,1,0.4856,-0.2439,0.91748,3.947,4.076,-4.084
2026-06-29 13:24:17.084,328029244,185084,2,1.05005,-0.10962,-0.05664,0.687,2.191,-5.267
2026-06-29 13:24:17.284,328029444,185284,1,0.4834,-0.21338,0.92871,4.061,3.771,-3.214
2026-06-29 13:24:17.284,328029444,185284,2,1.04419,-0.09766,-0.05835,-0.824,2.542,-3.977
2026-06-29 13:24:18.484,328030644,185484,1,0.4856,-0.18799,0.92969,2.069,2.802,-3.031
2026-06-29 13:24:18.484,328030644,185484,2,1.05835,-0.08154,-0.05688,-0.901,0.496,-1.435
2026-06-29 13:24:18.860,328031020,185860,1,0.49121,-0.16699,0.93506,-1.916,1.527,0.916
2026-06-29 13:24:18.860,328031020,185860,2,1.05029,-0.07568,-0.05225,0.74,1.275,2.427
2026-06-29 13:24:18.060,328030220,186060,1,0.49121,-0.18408,0.91772,-3.817,1.031,4.16
2026-06-29 13:24:18.060,328030220,186060,2,1.05664,-0.10181,-0.05786,2.565,-0.198,3.771
2026-06-29 13:24:18.260,328030420,186260,1,0.4939,-0.2251,0.92139,-2.916,-1.405,4.397
2026-06-29 13:24:18.260,328030420,186260,2,1.04492,-0.12427,-0.0686,2.275,-1.351,5.115
2026-06-29 13:24:18.460,328030620,186460,1,0.50122,-0.26904,0.90234,-4.366,1.626,3.893
2026-06-29 13:24:18.460,328030620,186460,2,1.03418,-0.18018,-0.06519,-0.198,0.221,3.496
2026-06-29 13:24:19.748,328031908,186748,1,0.50781,-0.28369,0.89868,-2.786,0.817,0.092
2026-06-29 13:24:19.748,328031908,186748,2,1.03564,-0.16846,-0.09595,1.565,1.725,-1.969
2026-06-29 13:24:20.477,328032637,187477,1,0.51245,-0.28955,0.87866,1.45,2.832,-1.595
2026-06-29 13:24:20.477,328032637,187477,2,1.03711,-0.1665,-0.0813,0.58,3.153,-3.542
2026-06-29 13:24:20.850,328033010,187850,1,0.50928,-0.27124,0.89233,3.794,4.145,-2.519
2026-06-29 13:24:20.850,328033010,187850,2,1.03662,-0.14185,-0.07129,0.473,3.214,-4.366
2026-06-29 13:24:20.164,328032324,188164,1,0.52295,-0.2478,0.9021,3.023,4.321,-1.977
2026-06-29 13:24:20.164,328032324,188164,2,1.04492,-0.11133,-0.06567,1.924,3.351,-4.191
2026-06-29 13:24:20.364,328032524,188364,1,0.50415,-0.21875,0.91479,2.321,3.885,-2.038
2026-06-29 13:24:20.364,328032524,188364,2,1.05225,-0.08569,-0.04614,0.366,1.092,1.649
2026-06-29 13:24:21.195,328033355,189195,1,0.4895,-0.20288,0.91895,-3.718,0.489,3.618
2026-06-29 13:24:21.195,328033355,189195,2,1.05957,-0.08984,-0.07788,-10.237,-1.145,5.076
2026-06-29 13:24:21.195,328033355,189195,2,1.05957,-0.08984,-0.07788,-10.237,-1.145,5.076
2026-06-29 13:24:35.540,328047700,202540,1,0.46948,-0.27124,0.91724,-0.893,5.473,3.252
2026-06-29 13:24:35.540,328047700,202540,2,1.04126,-0.15527,-0.00513,-3.16,3.076,-3.573
2026-06-29 13:24:35.757,328047917,202757,1,0.46509,-0.28906,0.92041,5.351,4.893,1.008
2026-06-29 13:24:35.757,328047917,202757,2,1.04565,-0.14648,0.00586,1.58,1.763,-7.412
2026-06-29 13:24:35.957,328048117,202957,1,0.46216,-0.23315,0.92993,9.611,4.496,-5.183
2026-06-29 13:24:35.957,328048117,202957,2,1.05371,-0.11304,0.00488,-0.504,3.641,-7.634
2026-06-29 13:24:35.246,328047406,203245,1,0.42505,-0.17969,0.95117,3.763,9.397,-12.473
2026-06-29 13:24:35.246,328047406,203245,2,1.05762,-0.07056,0.03613,-0.809,3.969,-7.55
2026-06-29 13:24:35.445,328047605,203445,1,0.44458,-0.14307,0.96387,8.0,8.267,-11.618
2026-06-29 13:24:35.445,328047605,203445,2,1.05225,-0.03271,0.04541,-2.863,5.504,-5.695
2026-06-29 13:24:36.736,328048896,203736,1,0.3855,-0.06787,1.01074,2.237,5.924,-7.802
2026-06-29 13:24:36.736,328048896,203736,2,1.06348,0.00977,0.06201,2.046,-1.885,5.763
2026-06-29 13:24:36.269,328048429,204269,1,0.40137,-0.08496,0.98413,-6.557,-7.824,15.557
2026-06-29 13:24:36.269,328048429,204269,2,1.06226,-0.13916,-0.00049,11.779,-1.534,13.267
2026-06-29 13:24:37.802,328049962,204802,1,0.41968,-0.35229,0.9043,-0.641,1.313,12.878
2026-06-29 13:24:37.802,328049962,204802,2,1.03564,-0.22827,0.01563,5.542,-0.252,-1.023
2026-06-29 13:24:37.002,328049162,205002,1,0.43018,-0.33813,0.90991,4.107,0.282,-2.031
2026-06-29 13:24:37.002,328049162,205002,2,1.04077,-0.22021,0.01514,-1.412,-0.122,-3.344
2026-06-29 13:24:37.202,328049362,205202,1,0.43237,-0.30542,0.92358,3.557,4.924,-13.527
2026-06-29 13:24:37.202,328049362,205202,2,1.04688,-0.1272,0.02246,-3.107,3.076,-7.786
2026-06-29 13:24:38.681,328050841,205681,1,0.4353,-0.19067,0.94824,14.206,7.527,-7.718
2026-06-29 13:24:38.681,328050841,205681,2,1.06445,-0.05151,0.03271,-1.824,6.191,-11.611
2026-06-29 13:24:38.892,328051052,205892,1,0.39355,-0.09717,0.99902,9.45,8.695,-9.115
2026-06-29 13:24:38.892,328051052,205892,2,1.06763,-0.00537,0.04688,4.084,2.824,-7.863
2026-06-29 13:24:38.114,328050274,206114,1,0.39136,-0.01685,1.02295,5.038,1.29,0.962
2026-06-29 13:24:38.114,328050274,206114,2,1.06958,0.04346,0.04028,4.664,-0.786,-1.053
2026-06-29 13:24:38.325,328050485,206325,1,0.42407,-0.0332,0.98218,-5.893,-7.252,6.214
2026-06-29 13:24:38.325,328050485,206325,2,1.0603,-0.01318,-0.00195,4.321,-1.893,6.908
2026-06-29 13:24:39.525,328051685,206525,1,0.46704,-0.13159,0.94336,-8.412,-4.435,12.565
2026-06-29 13:24:39.525,328051685,206525,2,1.0625,-0.05322,-0.0022,1.221,-1.725,8.809
2026-06-29 13:24:39.725,328051885,206725,1,0.45435,-0.21704,0.92188,-11.214,-3.382,7.542
2026-06-29 13:24:39.725,328051885,206725,2,1.05615,-0.13818,-0.01001,-1.924,-1.183,10.847
2026-06-29 13:24:39.925,328052085,206925,1,0.46533,-0.27588,0.91284,-7.252,-1.282,9.756
2026-06-29 13:24:39.925,328052085,206925,2,1.05078,-0.18457,-0.01758,2.397,-0.374,5.473
2026-06-29 13:24:39.125,328051285,207125,1,0.47461,-0.31763,0.90112,-2.031,0.046,4.214
2026-06-29 13:24:39.125,328051285,207125,2,1.03906,-0.19507,-0.00781,-1.794,1.863,0.656
2026-06-29 13:24:39.325,328051485,207325,1,0.47876,-0.32129,0.89746,1.435,3.076,
2026-06-29 13:24:39.325,328051485,207325,2,1.04712,-0.15601,-0.00684,0.382,3.443,-3.053
2026-06-29 13:24:39.325,328051485,207325,2,1.04712,-0.15601,-0.00684,0.382,3.443,-3.053
2026-06-29 13:24:50.899,328063059,217899,1,0.45288,-0.28125,0.91748,3.069,3.366,-2.664
2026-06-29 13:24:50.899,328063059,217899,1,0.45288,-0.28125,0.91748,3.069,3.366,-2.664
2026-06-29 13:24:50.899,328063059,217899,2,1.04077,-0.1897,-0.05249,8.13,1.328,-1.26
2026-06-29 13:24:50.899,328063059,217899,2,1.04077,-0.1897,-0.05249,8.13,1.328,-1.26
2026-06-29 13:25:10.168,328082328,238168,1,0.42773,-0.39893,0.88794,-1.214,1.443,-1.061
2026-06-29 13:25:10.168,328082328,238168,2,1.02979,-0.24585,-0.04248,-3.84,2.29,0.366
2026-06-29 13:25:10.368,328082528,238368,1,0.4165,-0.41382,0.87817,0.672,3.618,-3.122
2026-06-29 13:25:10.368,328082528,238368,2,1.02979,-0.24121,-0.03735,0.122,2.893,-0.557
2026-06-29 13:25:11.568,328083728,238568,1,0.41675,-0.40137,0.88159,-0.832,3.214,1.305
2026-06-29 13:25:11.568,328083728,238568,2,1.03223,-0.24023,-0.0376,5.031,2.931,-0.023
2026-06-29 13:25:11.768,328083928,238768,1,0.41016,-0.40942,0.88208,0.015,1.679,2.733
2026-06-29 13:25:11.768,328083928,238768,2,1.02563,-0.23999,-0.03613,3.237,1.137,-0.26
2026-06-29 13:25:11.968,328084128,238968,1,0.41382,-0.40503,0.88477,1.221,2.611,0.634
2026-06-29 13:25:11.968,328084128,238968,2,1.02881,-0.25195,-0.04663,-1.214,0.763,-0.244
2026-06-29 13:25:11.184,328083344,239184,1,0.42139,-0.40942,0.86963,0.412,2.786,-0.893
2026-06-29 13:25:11.184,328083344,239184,2,1.01538,-0.26587,-0.03101,-1.809,-2.069,-0.145
2026-06-29 13:25:11.441,328083601,239441,1,0.40942,-0.41187,0.87354,-0.16,,-1.557
2026-06-29 13:25:11.441,328083601,239441,2,1.01538,-0.25757,-0.04492,0.435,-1.221,-0.725
2026-06-29 13:25:12.988,328085148,239988,1,0.43677,-0.38745,0.88159,3.748,5.008,-3.473
2026-06-29 13:25:12.988,328085148,239988,2,1.0188,-0.23975,-0.06885,-4.763,4.282,-2.733
2026-06-29 13:25:12.188,328084348,240188,1,0.44019,-0.37988,0.87549,2.595,4.87,-6.16
2026-06-29 13:25:12.188,328084348,240188,2,1.03076,-0.24658,-0.05127,-5.794,3.076,-3.573
2026-06-29 13:25:12.388,328084548,240388,1,0.43823,-0.3562,0.89087,0.824,5.779,-5.947
2026-06-29 13:25:12.388,328084548,240388,2,1.04346,-0.21802,-0.03857,1.046,5.084,-1.183
2026-06-29 13:25:13.628,328085788,240628,1,0.42969,-0.37305,0.88965,2.832,5.74,-3.16
2026-06-29 13:25:13.628,328085788,240628,2,1.03394,-0.20093,-0.03125,3.0,4.16,-5.664
2026-06-29 13:25:13.828,328085988,240828,1,0.43872,-0.33643,0.90698,4.901,2.641,-2.733
2026-06-29 13:25:13.828,328085988,240828,2,1.03564,-0.20459,-0.02246,1.176,1.71,-5.015
2026-06-29 13:25:13.028,328085188,241028,1,0.45801,-0.3269,0.91187,3.519,3.336,-5.649
2026-06-29 13:25:13.028,328085188,241028,2,1.0459,-0.16675,-0.02661,-3.427,3.412,-1.038
2026-06-29 13:25:13.315,328085475,241315,1,0.41772,-0.29004,0.92407,-2.313,4.115,-3.672
2026-06-29 13:25:13.315,328085475,241315,2,1.04883,-0.14697,0.00195,-4.122,2.076,1.084
2026-06-29 13:25:14.515,328086675,241515,1,0.42188,-0.30005,0.91846,0.557,1.458,2.061
2026-06-29 13:25:14.515,328086675,241515,2,1.04395,-0.16187,-0.01709,3.794,-0.458,0.534
2026-06-29 13:25:14.715,328086875,241715,1,0.43555,-0.31372,0.90771,-2.397,-2.237,6.931
2026-06-29 13:25:14.715,328086875,241715,1,0.43555,-0.31372,0.90771,-2.397,-2.237,6.931
2026-06-29 13:25:14.715,328086875,241715,2,1.0354,-0.13281,-0.06421,38.947,-18.305,-3.076
2026-06-29 13:25:19.177,328091337,247177,1,0.51221,-0.04712,0.93555,9.817,5.802,4.321
2026-06-29 13:25:19.177,328091337,247177,2,1.03687,-0.03198,-0.07983,9.023,5.221,-7.542
2026-06-29 13:25:19.377,328091537,247377,1,0.68262,-0.08472,0.90332,8.924,11.863,-2.626
2026-06-29 13:25:19.377,328091537,247377,2,1.14502,-0.02515,-0.0415,15.786,46.534,-17.221
2026-06-29 13:25:20.577,328092737,247577,1,0.52051,0.04663,0.69238,18.015,123.527,4.901
2026-06-29 13:25:20.577,328092737,247577,2,0.75391,0.08496,0.15576,-25.969,195.061,-38.221
2026-06-29 13:25:20.789,328092949,247788,1,-0.45532,0.00586,0.61279,18.84,193.893,-11.366
2026-06-29 13:25:20.789,328092949,247788,2,0.39624,0.20068,1.10303,-5.046,100.305,-30.511
2026-06-29 13:25:21.416,328093576,249416,1,-0.73193,0.09106,0.6333,4.466,-3.855,-2.954
2026-06-29 13:25:21.416,328093576,249416,2,0.38086,0.18799,1.01978,-0.786,-0.145,-4.908
2026-06-29 13:25:22.616,328094776,249616,1,-0.74707,0.09033,0.64282,4.176,7.221,-0.542
2026-06-29 13:25:22.616,328094776,249616,2,0.35376,0.19873,1.04443,-0.16,4.824,-3.84
2026-06-29 13:25:22.816,328094976,249816,1,-0.76025,0.1062,0.64893,0.916,1.878,0.168
2026-06-29 13:25:22.816,328094976,249816,2,0.35596,0.20898,1.04077,0.664,1.084,0.405
2026-06-29 13:25:22.383,328094543,250383,1,-0.75366,0.09985,0.65063,-0.573,3.153,1.397
2026-06-29 13:25:22.383,328094543,250383,2,0.36426,0.2019,1.04712,1.023,1.611,2.344
2026-06-29 13:25:23.611,328095771,250611,1,-0.74951,0.09912,0.64795,-2.397,1.962,2.313
2026-06-29 13:25:23.611,328095771,250611,2,0.37134,0.18555,1.03613,1.496,2.198,3.008
2026-06-29 13:25:23.831,328095991,250831,1,-0.74463,0.08008,0.65405,-1.916,2.16,2.252
2026-06-29 13:25:23.831,328095991,250831,2,0.36353,0.19116,1.02466,0.679,2.038,1.611
2026-06-29 13:25:23.031,328095191,251031,1,-0.74878,0.07568,0.65405,-0.832,2.13,0.435
2026-06-29 13:25:23.031,328095191,251031,2,0.37549,0.19312,1.03638,0.298,0.679,-0.084
2026-06-29 13:25:23.231,328095391,251231,1,-0.73877,0.08545,0.65112,1.382,2.183,-0.824
2026-06-29 13:25:23.231,328095391,251231,2,0.38477,0.18555,1.03979,-0.336,-0.137,-0.786
2026-06-29 13:25:24.483,328096643,251483,1,-0.74731,0.08325,0.65894,0.672,-0.557,-1.16
2026-06-29 13:25:24.483,328096643,251483,2,0.37842,0.18481,1.02808,-0.069,-0.443,-0.985
2026-06-29 13:25:24.683,328096843,251683,1,-0.72217,0.07715,0.66675,0.473,0.229,-1.13
2026-06-29 13:25:24.683,328096843,251683,2,0.39014,0.18066,1.01538,-0.435,-0.397,-0.893
2026-06-29 13:25:24.883,328097043,251883,1,-0.74854,0.08618,0.68506,1.634,1.847,-1.756
2026-06-29 13:25:24.883,328097043,251883,2,0.39941,0.16016,1.0293,0.496,0.115,-1.511
2026-06-29 13:25:24.122,328096282,252122,1,-0.70654,0.08936,0.6814,3.87,1.908,0.908
2026-06-29 13:25:24.122,328096282,252122,2,0.4104,0.17212,1.02026,1.977,2.924,-2.489
2026-06-29 13:25:24.327,328096487,252327,1,-0.72144,0.08252,0.68579,2.313,4.008,0.603
2026-06-29 13:25:24.327,328096487,252327,2,0.39966,0.18066,1.02124,1.916,3.198,-1.824
2026-06-29 13:25:25.527,328097687,252527,1,-0.71997,0.08228,0.67456,0.099,2.832,-5.733
2026-06-29 13:25:25.527,328097687,252527,2,0.39429,0.16528,1.03174,0.29,-1.847,-1.13
2026-06-29 13:25:25.727,328097887,252727,1,-1.35156,0.12354,1.00342,8.771,-56.176,2.794
2026-06-29 13:25:25.727,328097887,252727,2,0.33521,0.2207,1.14575,-5.649,-155.718,35.038
2026-06-29 13:25:25.007,328097167,253007,1,0.24609,0.02295,0.20679,-26.718,-205.557,-13.725
2026-06-29 13:25:25.007,328097167,253007,2,0.90894,-0.0791,0.11157,-41.405,-192.252,27.603
2026-06-29 13:25:25.207,328097367,253207,1,0.77197,-0.06299,0.63184,-9.847,-112.023,-0.26
2026-06-29 13:25:25.207,328097367,253207,2,1.21362,-0.11816,-0.375,-0.519,-81.244,9.466
2026-06-29 13:25:25.407,328097567,253407,1,0.93823,-0.08789,0.76074,0.695,7.298,10.702
2026-06-29 13:25:25.407,328097567,253407,2,0.95288,-0.02734,-0.38745,-242.435,-12.42,70.321
2026-06-29 13:25:28.815,328100975,255814,1,0.7771,-0.29956,0.82617,-95.763,24.252,-159.382
2026-06-29 13:25:28.815,328100975,255814,2,0.9873,-0.40674,-0.12036,107.511,12.328,-45.0
2026-06-29 13:25:28.311,328100471,256311,1,0.60938,0.27856,0.89648,137.947,18.374,216.405
2026-06-29 13:25:28.311,328100471,256311,2,1.01831,0.16724,-0.24023,125.466,7.023,-19.038
2026-06-29 13:25:29.546,328101706,256546,1,0.49097,0.177,0.93408,32.718,8.718,94.573
2026-06-29 13:25:29.546,328101706,256546,2,1.05371,0.11865,-0.14404,-0.26,9.252,-5.695
2026-06-29 13:25:29.746,328101906,256746,1,0.49634,0.14258,0.90479,-3.435,-0.298,22.221
2026-06-29 13:25:29.746,328101906,256746,2,1.13623,-0.00269,-0.08936,-34.557,0.565,3.702
2026-06-29 13:25:29.946,328102106,256946,1,0.38867,-0.1145,0.94141,-18.305,-0.198,37.603
2026-06-29 13:25:29.946,328102106,256946,2,1.13232,-0.06836,0.08081,21.573,3.511,20.405
2026-06-29 13:25:29.146,328101306,257146,1,0.29077,-0.30957,0.94971,-25.282,1.382,-5.656
2026-06-29 13:25:29.146,328101306,257146,2,1.04272,-0.1543,0.05444,-0.557,-8.053,20.176
2026-06-29 13:25:29.404,328101564,257404,1,0.35596,-0.40088,0.91895,-19.832,3.298,-50.908
2026-06-29 13:25:29.404,328101564,257404,2,0.9873,-0.2002,-0.08179,-42.557,-15.397,1.374
2026-06-29 13:25:30.604,328102764,257604,1,0.57959,-0.19019,0.85938,-3.481,-2.137,-55.779
2026-06-29 13:25:30.604,328102764,257604,2,1.05493,-0.24756,-0.09399,-33.786,-8.679,-5.496
2026-06-29 13:25:30.804,328102964,257804,1,0.5647,-0.07153,0.93237,16.298,13.725,-6.786
2026-06-29 13:25:30.804,328102964,257804,2,1.05127,0.07251,-0.13794,11.55,-1.656,-26.656
2026-06-29 13:25:30.083,328102243,258083,1,0.58765,0.16748,0.90405,27.985,4.397,1.763
2026-06-29 13:25:30.083,328102243,258083,2,1.02051,0.12915,-0.16797,5.115,8.656,-15.053
2026-06-29 13:25:30.283,328102443,258283,1,0.56519,0.2019,0.948,-4.267,5.031,-10.382
2026-06-29 13:25:30.283,328102443,258283,2,1.01807,0.12866,-0.14038,-16.992,1.427,-0.321
2026-06-29 13:25:31.483,328103643,258483,1,0.5271,0.15771,0.93115,-3.939,10.855,-3.099
2026-06-29 13:25:31.483,328103643,258483,2,1.04199,-0.04346,-0.12964,10.374,2.641,6.244
2026-06-29 13:25:31.231,328103391,259230,1,0.5127,0.01782,0.94971,-6.023,2.947,15.13
2026-06-29 13:25:31.231,328103391,259230,2,1.0332,-0.03809,-0.12866,12.496,6.351,5.0
2026-06-29 13:25:31.231,328103391,259230,2,1.0332,-0.03809,-0.12866,12.496,6.351,5.0
2026-06-29 13:25:40.680,328112840,267680,1,0.48096,-0.15894,0.94165,0.786,3.153,0.649
2026-06-29 13:25:40.680,328112840,267680,2,1.03955,-0.11401,-0.05981,2.191,1.779,0.053
2026-06-29 13:25:40.985,328113145,267985,1,0.48511,-0.17407,0.93604,0.359,2.382,0.504
2026-06-29 13:25:40.985,328113145,267985,2,1.0498,-0.12476,-0.06665,0.328,1.282,0.176
2026-06-29 13:25:40.234,328112394,268234,1,0.47998,-0.17676,0.93359,-0.069,2.611,0.107
2026-06-29 13:25:40.234,328112394,268234,1,0.47998,-0.17676,0.93359,-0.069,2.611,0.107
2026-06-29 13:25:40.234,328112394,268234,2,1.04663,0.00171,0.06006,25.137,-1.893,8.969
2026-06-29 13:25:51.492,328123652,278492,1,0.34448,-0.0769,0.98999,5.115,-6.733,9.527
2026-06-29 13:25:51.492,328123652,278492,2,1.05811,-0.0188,0.04004,10.504,-4.824,4.84
2026-06-29 13:25:51.692,328123852,278692,1,0.38354,-0.08984,0.96826,-5.924,-1.817,-4.809
2026-06-29 13:25:51.692,328123852,278692,2,1.06787,-0.05298,0.02686,-11.557,1.878,6.16
2026-06-29 13:25:51.892,328124052,278892,1,0.41235,-0.15503,0.96387,-12.939,1.603,-3.939
2026-06-29 13:25:51.892,328124052,278892,2,1.0415,-0.07349,,1.412,0.771,9.221
2026-06-29 13:25:51.892,328124052,278892,2,1.0415,-0.07349,,1.412,0.771,9.221
2026-06-29 13:25:56.041,328128201,284041,1,-0.7207,0.05835,0.66675,1.321,2.786,-0.046
2026-06-29 13:25:56.041,328128201,284041,2,0.36084,0.23755,1.02222,2.305,1.137,-2.901
2026-06-29 13:25:56.241,328128401,284241,1,-0.75977,0.09814,0.61841,-0.382,-3.145,-4.344
2026-06-29 13:25:56.241,328128401,284241,2,0.31982,0.25317,1.02808,-0.443,-0.122,-0.176
2026-06-29 13:25:57.507,328129667,284507,1,-0.73218,0.03296,0.65259,0.603,3.458,-0.534
2026-06-29 13:25:57.507,328129667,284507,2,0.38843,0.19287,1.04736,5.336,1.847,-0.313
2026-06-29 13:25:57.707,328129867,284707,1,-0.74805,0.02759,0.64209,-1.252,3.412,-4.214
2026-06-29 13:25:57.707,328129867,284707,2,0.34644,0.19897,1.02417,-0.947,-2.153,-0.061
2026-06-29 13:25:57.907,328130067,284907,1,-0.75146,0.05688,0.64795,0.069,-1.29,1.992
2026-06-29 13:25:57.907,328130067,284907,2,0.40112,0.22974,1.03296,1.855,0.878,0.908
2026-06-29 13:25:57.107,328129267,285107,1,-0.71899,0.04785,0.6748,-2.153,0.977,-0.031
2026-06-29 13:25:57.107,328129267,285107,2,0.38354,0.20557,1.04175,2.756,1.595,2.237
2026-06-29 13:25:57.307,328129467,285307,1,-0.72656,0.04102,0.67456,-0.45,-0.031,3.489
2026-06-29 13:25:57.307,328129467,285307,2,0.36011,0.28418,1.00146,-10.55,0.107,0.664
2026-06-29 13:25:58.507,328130667,285507,1,-0.76904,0.02612,0.64258,-1.656,1.687,1.954
2026-06-29 13:25:58.507,328130667,285507,2,0.39282,0.2373,1.02393,-0.275,0.809,0.053
2026-06-29 13:25:58.862,328131022,285862,1,-0.73657,0.09302,0.66846,1.328,5.13,-0.198
2026-06-29 13:25:58.862,328131022,285862,2,0.38574,0.22217,1.03027,1.0,2.275,0.763
2026-06-29 13:25:58.062,328130222,286062,1,-0.74023,0.05566,0.65747,0.595,3.137,3.252
2026-06-29 13:25:58.062,328130222,286062,2,0.37427,0.23145,1.01074,-0.351,2.511,2.191
2026-06-29 13:25:58.262,328130422,286262,1,-0.72583,0.01709,0.69897,0.397,4.962,0.511
2026-06-29 13:25:58.262,328130422,286262,2,0.39722,0.24463,1.01904,-0.29,1.641,0.397
2026-06-29 13:25:58.474,328130634,286474,1,-0.75171,0.04517,0.66187,-0.145,1.313,-1.611
2026-06-29 13:25:58.474,328130634,286474,2,0.3833,0.22949,1.02222,0.611,1.084,0.573
2026-06-29 13:25:59.674,328131834,286674,1,-0.72632,0.05225,0.67285,-1.672,-0.267,-1.137
2026-06-29 13:25:59.674,328131834,286674,2,0.39063,0.20068,1.02637,0.191,1.229,2.45
2026-06-29 13:25:59.874,328132034,286874,1,-0.72437,0.04102,0.6709,-2.496,2.527,2.656
2026-06-29 13:25:59.874,328132034,286874,2,0.3833,0.21069,1.02832,1.099,2.511,3.382
2026-06-29 13:25:59.074,328131234,287074,1,-0.72852,0.01318,0.68408,-2.206,1.275,2.824
2026-06-29 13:25:59.074,328131234,287074,2,0.39063,0.21094,1.01587,0.145,1.534,2.16
2026-06-29 13:25:59.294,328131454,287293,1,-0.7251,0.02515,0.6792,-0.55,3.198,1.305
2026-06-29 13:25:59.294,328131454,287293,2,0.38599,0.1936,1.03613,1.878,2.962,0.305
2026-06-29 13:26:00.507,328132667,287507,1,-0.729,0.03076,0.6792,0.779,2.771,1.573
2026-06-29 13:26:00.507,328132667,287507,2,0.37988,0.19971,1.03003,0.496,2.817,0.267
2026-06-29 13:26:00.707,328132867,287707,1,-0.72559,0.03638,0.69019,0.038,3.336,1.076
2026-06-29 13:26:00.707,328132867,287707,2,0.38013,0.19922,1.03125,1.13,3.443,0.084
2026-06-29 13:26:03.644,328135804,290644,1,0.55884,-0.07666,0.88599,3.763,18.939,-4.534
2026-06-29 13:26:03.644,328135804,290644,2,0.99048,-0.17651,-0.11206,-7.275,10.397,-5.58
2026-06-29 13:26:03.964,328136124,290963,1,0.5813,-0.12964,0.94263,19.863,7.908,12.389
2026-06-29 13:26:03.964,328136124,290963,2,0.98071,-0.0686,-0.16968,26.962,14.137,-20.977
2026-06-29 13:26:03.163,328135323,291163,1,0.56445,0.06299,0.92773,24.817,9.061,19.328
2026-06-29 13:26:03.163,328135323,291163,2,0.98535,0.04443,-0.17651,28.008,2.282,-13.87
2026-06-29 13:26:03.363,328135523,291363,1,0.55249,0.11035,0.88574,1.107,-4.198,-4.008
2026-06-29 13:26:03.363,328135523,291363,2,0.98096,-0.24731,0.11816,22.611,34.389,18.16
2026-06-29 13:26:04.688,328136848,291688,1,0.46411,0.01953,0.92847,8.046,3.832,14.405
2026-06-29 13:26:04.688,328136848,291688,2,1.03394,-0.01758,-0.11426,21.366,-7.771,-1.427
2026-06-29 13:26:04.888,328137048,291888,1,0.57764,-0.00391,0.96509,0.756,-5.305,-6.405
2026-06-29 13:26:04.888,328137048,291888,2,1.06494,-0.15796,-0.1001,11.45,8.099,12.099
2026-06-29 13:26:04.088,328136248,292088,1,0.45215,0.00928,0.92432,3.191,3.885,4.611
2026-06-29 13:26:04.088,328136248,292088,2,1.07129,-0.12988,-0.13672,-5.305,0.557,7.847
2026-06-29 13:26:04.383,328136543,292383,1,0.54224,-0.08057,0.92041,-11.038,5.351,2.206
2026-06-29 13:26:04.383,328136543,292383,2,1.02979,-0.04443,-0.18164,-27.649,4.55,6.573
2026-06-29 13:26:05.583,328137743,292583,1,0.5564,-0.1084,0.91089,-14.962,3.191,-16.985
2026-06-29 13:26:05.583,328137743,292583,2,1.03247,-0.12427,-0.15527,-8.84,-0.985,8.107
2026-06-29 13:26:05.783,328137943,292783,1,0.53784,-0.14697,0.92114,3.061,6.336,-3.29
2026-06-29 13:26:05.783,328137943,292783,2,1.0293,-0.08862,-0.14624,1.374,1.42,-2.42
2026-06-29 13:26:05.241,328137401,293241,1,0.52832,-0.073,0.92725,0.573,1.71,-0.16
2026-06-29 13:26:05.241,328137401,293241,2,1.03735,-0.11133,-0.15723,0.023,2.618,-1.931
2026-06-29 13:26:05.441,328137601,293441,1,0.52881,-0.09058,0.93237,-4.122,1.947,3.435
2026-06-29 13:26:05.441,328137601,293441,2,1.03125,-0.10767,-0.146,2.611,2.756,0.992
2026-06-29 13:26:16.539,328148699,303539,2,0.95801,-0.3103,0.44116,2.351,3.183,-0.626
2026-06-29 13:26:16.539,328148699,303539,2,0.95801,-0.3103,0.44116,2.351,3.183,-0.626
2026-06-29 13:26:34.636,328166796,321636,1,0.59741,-0.11377,1.02197,-2.183,-57.45,-17.771
2026-06-29 13:26:34.636,328166796,321636,2,0.99756,0.00952,-0.17065,-4.672,-30.244,-14.832
2026-06-29 13:26:34.891,328167051,321891,1,0.62378,-0.02832,0.83447,8.267,-19.42,2.405
2026-06-29 13:26:34.891,328167051,321891,2,1.06348,-0.06909,-0.22974,37.87,-17.74,-3.023
2026-06-29 13:26:34.091,328166251,322091,1,0.57397,-0.04102,0.89014,17.977,16.939,36.626
2026-06-29 13:26:34.091,328166251,322091,2,1.04053,0.03052,-0.13403,27.924,25.275,-5.198
2026-06-29 13:26:34.291,328166451,322291,1,0.32178,-0.18506,0.87354,3.763,19.092,21.481
2026-06-29 13:26:34.291,328166451,322291,2,0.98242,-0.05518,-0.04492,8.45,0.969,-4.855
2026-06-29 13:26:35.619,328167779,322619,1,0.38989,-0.10181,0.95703,-14.458,-4.244,-6.885
2026-06-29 13:26:35.619,328167779,322619,2,1.06299,-0.06812,-0.0918,-9.176,-10.008,1.58
2026-06-29 13:26:35.619,328167779,322619,2,1.06299,-0.06812,-0.0918,-9.176,-10.008,1.58
2026-06-29 13:26:40.842,328173002,327842,1,0.23926,-0.15918,1.02197,21.618,-3.359,12.931
2026-06-29 13:26:40.842,328173002,327842,2,1.03174,-0.13574,0.10522,4.489,-11.298,-8.061
2026-06-29 13:26:40.042,328172202,328042,1,0.32715,-0.18701,1.02026,0.664,-9.344,19.504
2026-06-29 13:26:40.042,328172202,328042,2,1.21582,0.00098,0.11548,14.443,29.687,-8.588
2026-06-29 13:26:40.292,328172452,328292,1,0.37451,-0.14966,0.89697,16.855,51.435,-0.977
2026-06-29 13:26:40.292,328172452,328292,2,0.95679,0.19507,0.23315,17.58,89.229,-32.634
2026-06-29 13:26:41.575,328173735,328575,1,0.04663,0.19849,0.83105,32.206,95.359,-5.893
2026-06-29 13:26:41.575,328173735,328575,2,0.90552,0.22632,0.36426,-2.626,107.481,-25.038
2026-06-29 13:26:41.775,328173935,328775,1,-0.59521,0.22876,0.87573,18.015,106.412,-13.527
2026-06-29 13:26:41.775,328173935,328775,2,0.72461,-0.09399,1.02051,35.992,100.527,-4.351
2026-06-29 13:26:41.975,328174135,328975,1,-0.99365,-0.04639,0.82715,-25.481,70.275,-0.55
2026-06-29 13:26:41.975,328174135,328975,2,0.32031,0.25562,1.10181,6.366,-7.939,-0.878
2026-06-29 13:26:41.188,328173348,329188,1,-0.69556,-0.03296,0.7085,8.809,-17.305,-3.779
2026-06-29 13:26:41.188,328173348,329188,2,0.42017,-0.02808,0.94897,-10.908,1.328,18.038
2026-06-29 13:26:41.388,328173548,329388,1,-0.61475,-0.02344,0.60669,4.191,11.534,24.748
2026-06-29 13:26:41.388,328173548,329388,2,0.43335,0.16162,1.02075,19.214,22.412,8.496
2026-06-29 13:26:42.588,328174748,329588,1,-0.89233,0.04663,0.67749,-1.603,5.221,4.58
2026-06-29 13:26:42.588,328174748,329588,2,0.37109,0.2251,1.00171,-2.13,1.313,3.107
2026-06-29 13:26:42.845,328175005,329845,1,-0.75098,0.02344,0.64355,0.557,0.794,0.008
2026-06-29 13:26:42.845,328175005,329845,2,0.36743,0.20093,1.04028,1.198,1.687,1.092
2026-06-29 13:26:42.045,328174205,330045,1,-0.76245,0.03931,0.65112,-0.771,-0.061,2.725
2026-06-29 13:26:42.045,328174205,330045,2,0.37988,0.1897,1.02271,0.13,-1.107,2.214
2026-06-29 13:26:42.245,328174405,330245,1,-0.73413,0.02612,0.67749,0.641,0.42,2.359
2026-06-29 13:26:42.245,328174405,330245,2,0.41602,0.20313,1.01831,0.786,-0.069,-2.305
2026-06-29 13:26:42.466,328174626,330466,1,-0.7063,0.03247,0.68335,4.992,1.206,-1.282
2026-06-29 13:26:42.466,328174626,330466,2,0.4021,0.18774,1.0166,-1.351,3.519,-5.756
2026-06-29 13:26:43.666,328175826,330666,1,-0.73047,0.05005,0.66162,3.695,6.45,-3.0
2026-06-29 13:26:43.666,328175826,330666,2,0.41162,0.19922,1.03638,-0.053,6.084,-5.542
2026-06-29 13:26:43.866,328176026,330866,1,-0.76025,0.0459,0.63965,3.153,6.328,-0.794
2026-06-29 13:26:43.866,328176026,330866,2,0.33301,0.21045,1.03345,-0.328,5.397,-3.0
2026-06-29 13:26:43.066,328175226,331066,1,-0.76245,0.05127,0.62378,0.374,5.718,-0.038
2026-06-29 13:26:43.066,328175226,331066,2,0.3418,0.20044,1.03931,-0.023,3.55,-1.008
2026-06-29 13:26:43.350,328175510,331350,1,-0.7915,0.04639,0.60938,-0.328,3.992,1.084
2026-06-29 13:26:43.350,328175510,331350,2,0.31641,0.20972,1.05151,0.893,1.0,2.191
2026-06-29 13:26:44.635,328176795,331635,1,-0.77686,0.03345,0.61255,-1.382,1.733,1.214
2026-06-29 13:26:44.635,328176795,331635,2,0.34033,0.19604,1.05542,1.45,0.076,1.099
2026-06-29 13:26:44.945,328177105,331944,1,-0.77734,0.02466,0.62402,-0.13,1.237,0.649
2026-06-29 13:26:44.945,328177105,331944,2,0.34521,0.19824,1.04834,1.305,-0.695,0.321
2026-06-29 13:26:44.144,328176304,332144,1,-0.76538,0.03906,0.63843,-0.137,-1.137,0.626
2026-06-29 13:26:44.144,328176304,332144,2,0.34253,0.20679,1.04297,-0.092,-2.183,0.374
2026-06-29 13:26:44.344,328176504,332344,1,-0.75269,0.03735,0.64111,2.145,-3.16,0.748
2026-06-29 13:26:44.344,328176504,332344,2,0.37158,0.19678,1.03857,1.397,-3.748,0.13
2026-06-29 13:26:45.544,328177704,332544,1,-0.74072,0.02808,0.67407,2.374,-3.519,0.649
2026-06-29 13:26:45.544,328177704,332544,2,0.43237,0.18945,1.00537,1.817,-4.786,-0.58
2026-06-29 13:26:45.782,328177942,332782,1,-0.85986,0.06226,0.75562,13.359,-14.115,0.779
2026-06-29 13:26:45.782,328177942,332782,2,0.39917,0.28833,1.21875,3.794,-35.664,8.298
2026-06-29 13:26:45.986,328178146,332986,1,-1.12988,0.11304,0.93628,-24.168,-153.076,-9.229
2026-06-29 13:26:45.986,328178146,332986,2,0.79614,-0.02148,0.15332,-59.115,-219.496,45.359
2026-06-29 13:26:45.222,328177382,333222,1,0.37598,-0.04028,0.51807,-8.466,-161.954,-29.458
2026-06-29 13:26:45.222,328177382,333222,2,1.04736,-0.16797,0.00806,-52.168,-120.977,16.687
2026-06-29 13:26:45.422,328177582,333422,1,0.83984,-0.07178,0.81641,3.595,-63.405,-8.267
2026-06-29 13:26:45.422,328177582,333422,2,1.03857,-0.12158,-0.32031,4.443,-21.336,4.137
2026-06-29 13:26:46.622,328178782,333622,1,0.7373,-0.10083,0.83057,4.611,-0.672,10.382
2026-06-29 13:26:46.622,328178782,333622,2,1.03687,-0.12012,-0.30273,17.023,7.542,-4.473
2026-06-29 13:26:46.822,328178982,333822,1,0.6084,-0.04712,0.85938,17.679,29.328,22.679
2026-06-29 13:26:46.822,328178982,333822,2,0.99097,-0.04419,-0.23047,2.565,9.573,-15.374
2026-06-29 13:26:46.022,328178182,334022,1,0.53125,0.0481,0.92554,2.527,11.534,-5.71
2026-06-29 13:26:46.022,328178182,334022,2,1.02734,-0.0625,-0.21167,-5.198,-7.359,0.641
2026-06-29 13:26:46.234,328178394,334234,1,0.64771,-0.10083,0.95215,-4.084,-4.962,-5.573
2026-06-29 13:26:46.234,328178394,334234,2,1.09253,-0.23877,-0.16479,8.618,7.183,-0.176
2026-06-29 13:26:46.434,328178594,334434,1,0.60571,0.0625,0.90869,15.267,18.206,26.786
2026-06-29 13:26:46.434,328178594,334434,2,0.97021,0.07617,-0.19824,8.87,15.458,-5.595
2026-06-29 13:26:47.638,328179798,334638,1,0.49756,0.14331,0.86768,-5.58,12.58,-10.511
2026-06-29 13:26:47.638,328179798,334638,2,1.02515,0.01465,-0.08862,22.122,18.13,8.504
2026-06-29 13:26:47.870,328180030,334870,1,0.45288,-0.03662,0.98584,-18.74,-12.504,33.977
2026-06-29 13:26:47.870,328180030,334870,2,1.03394,0.00146,-0.0144,-16.16,6.916,10.328
2026-06-29 13:26:47.286,328179446,335286,1,0.3479,-0.42993,0.90771,-28.321,19.687,-11.817
2026-06-29 13:26:47.286,328179446,335286,2,0.99707,-0.27222,-0.03369,-34.008,15.466,20.588
2026-06-29 13:26:48.486,328180646,335486,1,0.26831,-0.51685,0.91943,-14.588,13.328,-19.55
2026-06-29 13:26:48.486,328180646,335486,2,0.98462,-0.33936,-0.05566,-9.191,-0.695,0.076
2026-06-29 13:26:48.486,328180646,335486,2,0.98462,-0.33936,-0.05566,-9.191,-0.695,0.076
2026-06-29 13:26:53.765,328185925,340764,1,0.21167,-0.40625,0.95654,8.824,-1.672,10.481
2026-06-29 13:26:53.765,328185925,340764,2,1.05664,-0.2583,0.12915,2.969,4.908,-0.977
2026-06-29 13:26:53.964,328186124,340964,1,0.1814,-0.46509,0.90771,-0.374,5.076,1.435
2026-06-29 13:26:53.964,328186124,340964,2,1.03223,-0.28906,0.10205,3.298,4.504,-1.863
2026-06-29 13:26:53.164,328185324,341164,1,0.18164,-0.41138,0.94312,5.176,-0.191,-2.687
2026-06-29 13:26:53.164,328185324,341164,2,1.0332,-0.22339,0.1001,-0.733,-2.359,-5.298
2026-06-29 13:26:56.117,328188277,344117,1,0.2417,-0.40405,0.93384,-0.519,1.542,2.863
2026-06-29 13:26:56.117,328188277,344117,2,1.04858,-0.21826,0.06445,1.107,1.137,1.458
2026-06-29 13:26:56.322,328188482,344322,1,0.22583,-0.41064,0.94287,0.748,1.855,-1.641
2026-06-29 13:26:56.322,328188482,344322,2,1.0415,-0.21582,0.06006,-0.229,2.412,-1.099
2026-06-29 13:26:57.607,328189767,344607,1,0.24536,-0.39673,0.94922,2.847,2.534,-1.298
2026-06-29 13:26:57.607,328189767,344607,2,1.03638,-0.21973,0.07056,-1.519,2.45,-1.634
2026-06-29 13:26:57.807,328189967,344807,1,0.23633,-0.39844,0.94043,0.847,4.336,-0.718
2026-06-29 13:26:57.807,328189967,344807,2,1.04907,-0.21436,0.06152,-2.29,2.176,
2026-06-29 13:26:57.007,328189167,345007,1,0.22974,-0.39185,0.9585,-0.817,2.527,1.221
2026-06-29 13:26:57.007,328189167,345007,2,1.04712,-0.21167,0.07153,2.42,0.954,-1.183
2026-06-29 13:26:57.238,328189398,345238,1,0.24194,-0.39966,0.94507,1.481,1.634,2.244
2026-06-29 13:26:57.238,328189398,345238,2,1.04126,-0.20972,0.06274,1.725,1.45,-1.053
2026-06-29 13:26:57.438,328189598,345438,1,0.24463,-0.40479,0.94067,2.695,3.015,0.374
2026-06-29 13:26:57.438,328189598,345438,2,1.0459,-0.21265,0.06201,-0.832,1.977,-0.55
2026-06-29 13:26:57.438,328189598,345438,2,1.0459,-0.21265,0.06201,-0.832,1.977,-0.55
2026-06-29 13:27:08.533,328200693,355533,1,-0.18188,-0.50879,0.8689,8.046,-5.84,-4.603
2026-06-29 13:27:08.533,328200693,355533,2,0.87549,-0.39429,0.54468,-0.313,-8.824,-9.969
2026-06-29 13:27:08.733,328200893,355733,1,-0.14746,-0.46021,0.8938,4.847,-5.595,-5.947
2026-06-29 13:27:08.733,328200893,355733,2,0.90967,-0.35889,0.50513,-2.947,-7.26,-6.573
2026-06-29 13:27:08.933,328201093,355933,1,-0.13916,-0.47559,0.91895,7.313,-5.664,-4.794
2026-06-29 13:27:08.933,328201093,355933,2,0.94312,-0.34229,0.46558,-3.405,-8.725,-7.489
2026-06-29 13:27:08.181,328200341,356181,1,-0.08521,-0.47656,0.90649,4.504,-5.55,0.664
2026-06-29 13:27:08.181,328200341,356181,2,0.93335,-0.34619,0.42261,7.0,-8.893,-4.321
2026-06-29 13:27:08.381,328200541,356381,1,-0.10815,-0.50415,0.94165,17.092,-12.87,7.656
2026-06-29 13:27:08.381,328200541,356381,2,0.96143,-0.29761,0.41846,14.779,-16.832,-13.336
2026-06-29 13:27:09.581,328201741,356581,1,-0.00098,-0.40088,0.95898,23.481,-23.198,4.802
2026-06-29 13:27:09.581,328201741,356581,2,1.02881,-0.15454,0.24634,17.595,-18.908,-13.947
2026-06-29 13:27:09.956,328202116,356956,1,0.146,-0.24561,1.00903,13.771,-13.183,8.641
2026-06-29 13:27:09.956,328202116,356956,2,1.05762,-0.13818,0.19141,20.893,-11.969,-10.74
2026-06-29 13:27:09.156,328201316,357156,1,0.18896,-0.18066,1.01782,9.664,-4.008,14.786
2026-06-29 13:27:09.156,328201316,357156,2,1.06348,-0.10718,0.17017,23.099,-4.779,-8.557
2026-06-29 13:27:09.356,328201516,357356,1,0.20581,-0.14648,1.02539,12.099,-3.183,19.618
2026-06-29 13:27:09.356,328201516,357356,2,1.04883,-0.01489,0.17627,6.916,5.053,0.298
2026-06-29 13:27:10.713,328202873,357712,1,0.15039,-0.17139,1.03955,3.115,0.252,5.817
2026-06-29 13:27:10.713,328202873,357712,2,1.05444,-0.05103,0.18726,2.107,1.992,2.695
2026-06-29 13:27:10.922,328203082,357922,1,0.16748,-0.15796,1.03467,-3.71,3.733,0.695
2026-06-29 13:27:10.922,328203082,357922,2,1.06226,-0.07959,0.20093,-25.237,15.198,5.634
2026-06-29 13:27:10.412,328202572,358412,1,0.15601,-0.2041,1.01343,-17.038,20.641,-26.344
2026-06-29 13:27:10.412,328202572,358412,2,1.05151,-0.1062,0.22388,-36.015,18.908,9.847
2026-06-29 13:27:11.757,328203917,358757,1,0.02881,-0.35107,0.95972,-23.664,28.58,-20.603
2026-06-29 13:27:11.757,328203917,358757,2,0.96313,-0.3269,0.37402,-31.595,24.13,15.443
2026-06-29 13:27:11.015,328203175,359015,1,-0.04541,-0.46411,0.90991,-20.466,25.435,-19.244
2026-06-29 13:27:11.015,328203175,359015,2,0.95654,-0.3562,0.40747,-24.328,19.756,12.656
2026-06-29 13:27:11.215,328203375,359215,1,-0.0769,-0.51904,0.89209,-10.786,15.237,-8.931
2026-06-29 13:27:11.215,328203375,359215,2,0.93018,-0.40649,0.43457,-11.206,11.847,8.443
2026-06-29 13:27:11.415,328203575,359415,1,-0.0542,-0.53931,0.86719,-11.305,12.687,-7.847
2026-06-29 13:27:11.415,328203575,359415,2,0.91797,-0.44702,0.42212,-9.695,10.275,8.023
2026-06-29 13:27:12.666,328204826,359666,1,-0.0835,-0.59717,0.85815,-6.802,6.115,-7.053
2026-06-29 13:27:12.666,328204826,359666,2,0.88574,-0.49414,0.42188,-8.489,3.855,4.344
2026-06-29 13:27:12.866,328205026,359866,1,-0.06348,-0.64819,0.82813,-2.489,-1.282,-1.687
2026-06-29 13:27:12.866,328205026,359866,2,0.86548,-0.50537,0.42773,0.931,-2.137,1.305
2026-06-29 13:27:12.066,328204226,360066,1,-0.09839,-0.67847,0.83618,6.672,-6.351,7.405
2026-06-29 13:27:12.066,328204226,360066,2,0.85645,-0.552,0.44727,20.214,-15.046,-10.191
2026-06-29 13:27:12.266,328204426,360266,1,-0.07129,-0.60181,0.85645,28.977,-33.053,26.985
2026-06-29 13:27:12.266,328204426,360266,2,0.92749,-0.45898,0.35718,49.542,-39.344,-22.015
2026-06-29 13:27:12.466,328204626,360466,1,0.05713,-0.46973,0.90576,43.84,-47.206,52.679
2026-06-29 13:27:12.466,328204626,360466,2,0.9834,-0.30981,0.20874,76.603,-48.252,-30.122
2026-06-29 13:27:13.666,328205826,360666,1,0.21313,-0.38135,0.89844,52.954,-55.237,72.435
2026-06-29 13:27:13.666,328205826,360666,2,1.01807,-0.23169,0.03784,79.458,-52.718,-39.008
2026-06-29 13:27:13.866,328206026,360866,1,0.46606,-0.1106,1.02563,59.603,-47.084,73.427
2026-06-29 13:27:13.866,328206026,360866,2,1.03442,0.21045,-0.06494,64.038,-21.275,-29.183
2026-06-29 13:27:13.066,328205226,361066,1,0.44409,0.12134,1.03247,29.206,-13.511,26.328
2026-06-29 13:27:13.066,328205226,361066,2,1.06982,0.17407,-0.07617,22.115,6.42,-19.412
2026-06-29 13:27:13.276,328205436,361275,1,0.41382,0.13403,0.93237,27.328,5.122,28.55
2026-06-29 13:27:13.276,328205436,361275,2,1.00732,0.19141,-0.06128,15.412,-4.221,-17.427
2026-06-29 13:27:13.475,328205635,361475,1,0.41089,0.16553,0.96851,17.718,-1.733,-2.748
2026-06-29 13:27:13.475,328205635,361475,2,1.00439,0.20874,-0.10815,-2.359,-1.145,-6.0
2026-06-29 13:27:14.933,328207093,361933,1,0.3811,0.22119,0.95313,6.038,1.023,-7.069
2026-06-29 13:27:14.933,328207093,361933,2,1.07568,0.11499,-0.08716,9.916,-4.282,-2.084
2026-06-29 13:27:14.302,328206462,362302,1,0.40479,0.26074,0.979,-2.046,3.649,-1.336
2026-06-29 13:27:14.302,328206462,362302,2,0.99634,0.24683,-0.13379,7.359,3.374,-4.893
2026-06-29 13:27:15.526,328207686,362526,1,0.39258,0.24243,0.94385,-1.649,2.573,7.099
2026-06-29 13:27:15.526,328207686,362526,2,1.00879,0.23901,-0.11304,-18.901,5.893,-6.84
2026-06-29 13:27:15.864,328208024,362864,1,0.41772,0.21436,0.95923,4.366,5.702,7.092
2026-06-29 13:27:15.864,328208024,362864,2,0.98193,0.25928,-0.08594,4.954,6.206,-7.618
2026-06-29 13:27:15.455,328207615,363455,1,0.39038,0.26831,0.94727,4.473,-3.672,2.847
2026-06-29 13:27:15.455,328207615,363455,2,0.99097,0.30469,-0.07788,4.198,-1.901,-0.183
2026-06-29 13:27:16.655,328208815,363655,1,0.44019,0.24634,0.96826,1.71,-0.42,0.725
2026-06-29 13:27:16.655,328208815,363655,2,0.99634,0.2832,-0.08984,1.656,0.786,-1.985
2026-06-29 13:27:16.855,328209015,363855,1,0.40063,0.2688,0.95068,-2.412,2.84,0.634
2026-06-29 13:27:16.855,328209015,363855,2,1.00732,0.30273,-0.09937,-4.206,3.763,-0.389
2026-06-29 13:27:16.130,328208290,364130,1,0.41943,0.24292,0.94775,-2.061,3.71,-0.481
2026-06-29 13:27:16.130,328208290,364130,2,0.98315,0.27075,-0.10718,3.069,1.947,0.076
2026-06-29 13:27:16.330,328208490,364330,1,0.41919,0.24756,0.95776,1.237,1.695,-0.26
2026-06-29 13:27:16.330,328208490,364330,2,0.99512,0.28564,-0.10864,4.962,0.221,0.756
2026-06-29 13:27:17.530,328209690,364530,1,0.41162,0.25537,0.95117,-0.412,2.931,-3.954
2026-06-29 13:27:17.530,328209690,364530,2,0.98047,0.29663,-0.12305,-4.313,1.534,0.687
2026-06-29 13:27:17.772,328209932,364772,1,0.40161,0.24487,0.96631,1.244,-0.565,-1.672
2026-06-29 13:27:17.772,328209932,364772,2,0.99512,0.27881,-0.11108,4.55,0.534,0.916
2026-06-29 13:27:17.976,328210136,364976,1,0.40771,0.2561,0.9624,-1.076,4.214,-0.26
2026-06-29 13:27:17.976,328210136,364976,2,0.99707,0.27588,-0.11475,1.626,-0.725,2.107
2026-06-29 13:27:17.176,328209336,365176,1,0.40039,0.25757,0.94849,1.496,3.679,0.588
2026-06-29 13:27:17.176,328209336,365176,2,1.00244,0.27686,-0.11523,0.389,2.053,0.206
2026-06-29 13:27:17.376,328209536,365376,1,0.40454,0.24683,0.95215,0.336,1.977,0.626
2026-06-29 13:27:17.376,328209536,365376,2,0.99292,0.27295,-0.11133,1.168,2.603,-1.16
2026-06-29 13:27:18.576,328210736,365576,1,0.41675,0.24805,0.94946,1.015,3.611,0.679
2026-06-29 13:27:18.576,328210736,365576,2,0.99976,0.27588,-0.12061,3.863,2.496,-1.107
2026-06-29 13:27:18.791,328210951,365791,1,0.4043,0.25293,0.95679,2.26,2.328,2.313
2026-06-29 13:27:18.791,328210951,365791,2,0.99976,0.28687,-0.12622,3.351,2.443,-1.275
2026-06-29 13:27:18.991,328211151,365991,1,0.41748,0.25488,0.95264,3.588,3.122,1.908
2026-06-29 13:27:18.991,328211151,365991,2,0.98584,0.28174,-0.12354,1.817,2.092,-1.046
2026-06-29 13:27:18.191,328210351,366191,1,0.41553,0.25635,0.95117,0.634,2.679,0.672
2026-06-29 13:27:18.191,328210351,366191,2,0.98877,0.26929,-0.10889,-0.504,1.443,-0.656
2026-06-29 13:27:21.222,328213382,369222,1,0.40503,0.24902,0.9541,0.542,2.298,-0.046
2026-06-29 13:27:21.222,328213382,369222,2,0.99219,0.27637,-0.1189,-0.992,1.374,0.099
2026-06-29 13:27:21.422,328213582,369422,1,0.40625,0.2478,0.95361,1.649,2.824,1.023
2026-06-29 13:27:21.422,328213582,369422,2,0.99194,0.27441,-0.10303,1.252,1.664,-0.695
2026-06-29 13:27:21.422,328213582,369422,2,0.99194,0.27441,-0.10303,1.252,1.664,-0.695
2026-06-29 13:27:27.660,328219820,374660,1,0.40942,0.24854,0.95459,-0.954,2.153,0.031
2026-06-29 13:27:27.660,328219820,374660,1,0.40942,0.24854,0.95459,-0.954,2.153,0.031
2026-06-29 13:27:27.660,328219820,374660,2,1.05298,-0.11304,-0.02808,1.824,1.351,-1.168
2026-06-29 13:27:27.660,328219820,374660,2,1.05298,-0.11304,-0.02808,1.824,1.351,-1.168
2026-06-29 13:27:42.786,328234946,389786,1,0.36987,-0.18701,0.97095,-3.511,2.634,1.328
2026-06-29 13:27:42.786,328234946,389786,2,1.05396,-0.10303,-0.02979,0.718,0.504,1.992
2026-06-29 13:27:42.986,328235146,389986,1,0.38428,-0.20874,0.96631,-2.16,6.145,0.13
2026-06-29 13:27:42.986,328235146,389986,2,1.04712,-0.05249,-0.02124,0.58,6.71,-3.313
2026-06-29 13:27:42.186,328234346,390186,1,0.34619,-0.1958,0.97437,0.603,4.214,-8.542
2026-06-29 13:27:42.186,328234346,390186,2,1.06396,-0.06738,-0.02197,-4.45,-2.191,-5.901
2026-06-29 13:27:42.462,328234622,390462,1,0.38672,-0.17554,0.97827,3.534,-0.695,-1.954
2026-06-29 13:27:42.462,328234622,390462,2,1.05762,-0.06396,-0.05005,6.634,0.046,-1.947
2026-06-29 13:27:43.662,328235822,390662,1,0.4043,-0.17676,0.96777,0.878,0.573,9.618
2026-06-29 13:27:43.662,328235822,390662,2,1.05054,-0.06689,-0.01758,9.29,1.84,1.527
2026-06-29 13:27:43.862,328236022,390862,1,0.38354,-0.19849,0.97021,0.985,3.031,11.29
2026-06-29 13:27:43.862,328236022,390862,1,0.38354,-0.19849,0.97021,0.985,3.031,11.29
2026-06-29 13:27:43.862,328236022,390862,2,1.05273,-0.07104,-0.00391,4.649,1.389,-1.191
2026-06-29 13:27:48.987,328241147,395987,1,0.35962,-0.2229,0.96802,1.656,1.626,1.58
2026-06-29 13:27:48.987,328241147,395987,1,0.35962,-0.2229,0.96802,1.656,1.626,1.58
2026-06-29 13:27:48.987,328241147,395987,2,1.04761,-0.08813,-0.03882,-7.267,-2.053,0.718
2026-06-29 13:27:53.108,328245268,401108,1,0.40894,-0.21167,0.96436,-2.71,3.351,-6.756
2026-06-29 13:27:53.108,328245268,401108,2,1.05151,-0.0813,-0.04297,-1.298,2.901,0.618
2026-06-29 13:27:54.501,328246661,401500,1,0.38867,-0.20313,0.95923,-1.069,4.435,-4.458
2026-06-29 13:27:54.501,328246661,401500,2,1.06055,-0.07861,-0.05396,-1.702,0.977,-0.405
2026-06-29 13:27:54.722,328246882,401722,1,0.40674,-0.20874,0.95679,-1.466,5.534,-5.656
2026-06-29 13:27:54.722,328246882,401722,2,1.05737,-0.09521,-0.03979,-1.031,3.176,-0.397
2026-06-29 13:27:54.947,328247107,401947,1,0.40308,-0.21094,0.97021,0.786,3.641,-0.076
2026-06-29 13:27:54.947,328247107,401947,2,1.05322,-0.09521,-0.03076,2.305,5.924,-0.573
2026-06-29 13:27:54.164,328246324,402164,1,0.37598,-0.23877,0.98047,-1.908,8.908,4.573
2026-06-29 13:27:54.164,328246324,402164,2,1.05054,-0.11938,-0.01538,1.458,6.183,0.908
2026-06-29 13:27:54.364,328246524,402364,1,0.32837,-0.25171,0.98242,-1.031,2.664,4.664
2026-06-29 13:27:54.364,328246524,402364,2,1.04175,-0.10522,0.00439,4.916,1.947,-2.305
2026-06-29 13:27:55.564,328247724,402564,1,0.33789,-0.26123,0.99365,-3.595,4.084,-5.359
2026-06-29 13:27:55.564,328247724,402564,2,1.07324,-0.10889,-0.01978,-3.504,3.679,3.168
2026-06-29 13:27:55.855,328248015,402855,1,0.34668,-0.27148,0.94995,0.71,3.939,-1.748
2026-06-29 13:27:55.855,328248015,402855,2,1.04736,-0.11938,0.02026,3.763,-0.397,-2.481
2026-06-29 13:27:55.055,328247215,403055,1,0.36353,-0.20752,0.98511,11.061,-2.336,9.145
2026-06-29 13:27:55.055,328247215,403055,2,1.05225,-0.08008,-0.02417,9.198,-0.481,-2.267
