datetime,epoch_ms,ts_millis,mpu_id,ax,ay,az,gx,gy,gz
2026-06-09T16:25:15.380810,,,,,,,,,
2026-06-09 16:25:14.290,2905853746,5290,1,0.02173,-0.97729,0.10645,0.336,2.344,0.71
2026-06-09 16:25:14.290,2905853746,5290,2,0.06616,-0.6333,-0.72314,0.55,1.527,-0.267
2026-06-09 16:25:15.490,2905854946,5490,1,0.01636,-0.98291,0.10791,0.718,2.305,0.458
2026-06-09 16:25:15.490,2905854946,5490,2,0.05615,-0.6355,-0.7168,0.649,1.412,-0.412
2026-06-09 16:25:15.690,2905855146,5690,1,0.0188,-0.98413,0.11548,0.748,2.29,0.626
2026-06-09 16:25:15.690,2905855146,5690,2,0.05762,-0.63623,-0.71411,0.405,1.42,-0.382
2026-06-09 16:25:15.969,2905855425,5969,1,0.02441,-0.98291,0.10596,0.412,2.29,0.405
2026-06-09 16:25:15.969,2905855425,5969,2,0.06494,-0.62891,-0.71338,0.695,1.618,-0.382
2026-06-09 16:25:15.169,2905854625,6169,1,0.02124,-0.98022,0.11938,0.588,2.359,0.443
2026-06-09 16:25:15.169,2905854625,6169,2,0.06128,-0.62769,-0.71533,0.649,1.557,-0.405
2026-06-09 16:25:15.369,2905854825,6369,1,0.01367,-0.97632,0.1106,0.802,2.443,0.656
2026-06-09 16:25:15.369,2905854825,6369,2,0.0542,-0.63647,-0.72217,0.603,1.573,-0.153
2026-06-09 16:25:16.569,2905856025,6569,1,0.02319,-0.98022,0.104,0.58,2.313,0.481
2026-06-09 16:25:16.569,2905856025,6569,2,0.0625,-0.64185,-0.71216,0.58,1.031,-0.359
2026-06-09 16:25:16.820,2905856276,6820,1,0.03979,-0.98438,0.18433,-23.733,-19.71,-1.527
2026-06-09 16:25:16.820,2905856276,6820,2,-0.30688,-0.66016,-0.66431,-21.313,-40.695,-69.397
2026-06-09 16:25:16.020,2905855476,7020,1,-0.06104,-0.97583,0.14966,-64.16,4.351,-40.481
2026-06-09 16:25:16.020,2905855476,7020,2,0.12671,-0.59595,-0.57251,-38.756,-67.046,16.023
2026-06-09 16:25:16.220,2905855676,7220,1,-0.01025,-1.00122,0.21997,5.115,2.237,0.206
2026-06-09 16:25:16.220,2905855676,7220,2,0.11548,-0.70752,-1.12305,-38.229,-4.45,10.664
2026-06-09 16:25:16.420,2905855876,7420,1,0.02808,-0.98047,0.14355,-0.237,2.099,-0.298
2026-06-09 16:25:16.420,2905855876,7420,2,0.19092,-0.67603,-0.54834,11.153,55.992,-7.0
2026-06-09 16:25:17.620,2905857076,7620,1,0.04321,-0.96802,0.14624,-5.076,-0.084,1.611
2026-06-09 16:25:17.620,2905857076,7620,2,0.12451,-0.58643,-0.88086,18.992,18.183,-12.176
2026-06-09T16:36:41.548164,,,,,,,,,
2026-06-09T16:39:37.439802,,,,,,,,,
2026-06-09 16:39:36.311,2906715767,5311,1,0.01318,-0.97876,0.12085,0.74,2.29,0.427
2026-06-09 16:39:36.311,2906715767,5311,2,-0.01245,-0.46582,-0.81714,0.718,1.542,-0.183
2026-06-09 16:39:37.511,2906716967,5511,1,0.01172,-0.98145,0.12451,0.679,2.344,0.687
2026-06-09 16:39:37.511,2906716967,5511,2,-0.00879,-0.46777,-0.81445,0.74,1.397,-0.42
2026-06-09 16:39:37.711,2906717167,5711,1,0.01416,-0.97876,0.13037,0.504,2.206,0.611
2026-06-09 16:39:37.711,2906717167,5711,2,-0.01294,-0.4707,-0.80127,0.573,1.695,-0.534
2026-06-09 16:39:37.945,2906717401,5945,1,0.0166,-0.97852,0.12451,0.397,2.191,0.573
2026-06-09 16:39:37.945,2906717401,5945,2,-0.00854,-0.46582,-0.81738,0.618,1.504,-0.489
2026-06-09 16:39:37.145,2906716601,6145,1,0.02124,-0.97925,0.12329,0.504,2.344,0.481
2026-06-09 16:39:37.145,2906716601,6145,2,-0.01416,-0.47021,-0.81201,0.756,1.534,-0.473
2026-06-09 16:39:37.345,2906716801,6345,1,0.01001,-0.97729,0.12158,0.458,2.221,0.397
2026-06-09 16:39:37.345,2906716801,6345,2,-0.01123,-0.46387,-0.81494,0.534,1.618,-0.435
2026-06-09 16:39:38.545,2906718001,6545,1,0.0105,-0.97583,0.12207,0.664,2.29,0.435
2026-06-09 16:39:38.545,2906718001,6545,2,-0.0144,-0.46558,-0.81616,0.626,1.504,-0.58
2026-06-09 16:39:38.745,2906718201,6745,1,0.01563,-0.97437,0.11597,0.641,2.244,0.435
2026-06-09 16:39:38.745,2906718201,6745,2,-0.00464,-0.45898,-0.80859,0.649,1.466,-0.458
2026-06-09 16:39:38.945,2906718401,6945,1,0.01294,-0.97192,0.1189,0.687,2.397,0.565
2026-06-09 16:39:38.945,2906718401,6945,2,-0.01514,-0.45898,-0.82227,0.542,1.519,-0.427
2026-06-09 16:39:38.145,2906717601,7145,1,0.00977,-0.97607,0.12817,0.573,2.443,0.573
2026-06-09 16:39:38.145,2906717601,7145,2,-0.0083,-0.4646,-0.82129,0.718,1.504,-0.336
2026-06-09 16:39:38.345,2906717801,7345,1,0.0083,-0.97412,0.12231,0.504,2.221,0.55
2026-06-09 16:39:38.345,2906717801,7345,2,-0.00977,-0.46313,-0.82104,0.565,1.542,-0.344
2026-06-09 16:39:39.545,2906719001,7545,1,0.01636,-0.97827,0.12646,0.649,2.206,0.679
2026-06-09 16:39:39.545,2906719001,7545,2,-0.01587,-0.46436,-0.81128,0.565,1.489,-0.427
2026-06-09 16:39:39.745,2906719201,7745,1,0.01123,-0.97852,0.11694,0.634,2.427,0.603
2026-06-09 16:39:39.745,2906719201,7745,2,-0.01538,-0.45972,-0.81885,0.763,1.588,-0.496
2026-06-09 16:39:39.945,2906719401,7945,1,0.01538,-0.97681,0.12915,0.634,2.29,0.679
2026-06-09 16:39:39.945,2906719401,7945,2,-0.01099,-0.46216,-0.81128,0.611,1.527,-0.397
2026-06-09 16:39:39.145,2906718601,8145,1,0.01831,-0.97412,0.12061,0.649,2.496,0.634
2026-06-09 16:39:39.145,2906718601,8145,2,-0.01245,-0.4624,-0.81323,0.473,1.458,-0.282
2026-06-09 16:39:39.345,2906718801,8345,1,0.01001,-0.97437,0.12842,0.382,2.252,0.595
2026-06-09 16:39:39.345,2906718801,8345,2,-0.01416,-0.4624,-0.8291,0.511,1.58,-0.397
2026-06-09 16:39:40.545,2906720001,8545,1,0.01245,-0.97485,0.11792,0.756,2.542,0.55
2026-06-09 16:39:40.545,2906720001,8545,2,-0.01367,-0.46094,-0.81592,0.618,1.55,-0.42
2026-06-09 16:39:40.745,2906720201,8745,1,0.01465,-0.97705,0.12183,0.473,2.214,0.557
2026-06-09 16:39:40.745,2906720201,8745,2,-0.01245,-0.46094,-0.81738,0.71,1.519,-0.496
2026-06-09 16:39:40.945,2906720401,8945,1,0.01392,-0.98071,0.1272,0.595,2.305,0.55
2026-06-09 16:39:40.945,2906720401,8945,2,-0.01172,-0.46851,-0.81909,0.58,1.504,-0.405
2026-06-09 16:39:40.145,2906719601,9145,1,0.01245,-0.97437,0.12158,0.511,2.366,0.382
2026-06-09 16:39:40.145,2906719601,9145,2,-0.01172,-0.45874,-0.81665,0.542,1.565,-0.374
2026-06-09 16:39:40.345,2906719801,9345,1,0.00977,-0.97974,0.12671,0.618,2.366,0.504
2026-06-09 16:39:40.345,2906719801,9345,2,-0.01343,-0.46729,-0.81763,0.466,1.511,-0.405
2026-06-09 16:39:41.545,2906721001,9545,1,0.01416,-0.98022,0.12134,0.634,2.298,0.557
2026-06-09 16:39:41.545,2906721001,9545,2,-0.01416,-0.46118,-0.81348,0.573,1.466,-0.519
2026-06-09 16:39:41.745,2906721201,9745,1,0.0144,-0.97437,0.12305,0.321,2.328,0.374
2026-06-09 16:39:41.745,2906721201,9745,2,-0.01733,-0.46606,-0.81763,0.595,1.649,-0.389
2026-06-09 16:39:41.945,2906721401,9945,1,0.01782,-0.97998,0.12549,0.55,2.359,0.443
2026-06-09 16:39:41.945,2906721401,9945,2,-0.01245,-0.46021,-0.82446,0.557,1.573,-0.412
2026-06-09 16:39:41.145,2906720601,10145,1,0.01416,-0.98218,0.125,0.527,2.519,0.427
2026-06-09 16:39:41.145,2906720601,10145,2,-0.01147,-0.4646,-0.81787,0.84,1.519,-0.443
2026-06-09 16:39:41.345,2906720801,10345,1,0.01343,-0.97632,0.12256,0.603,2.252,0.573
2026-06-09 16:39:41.345,2906720801,10345,2,-0.02026,-0.46533,-0.81519,0.718,1.496,-0.366
2026-06-09 16:39:42.545,2906722001,10545,1,0.0166,-0.9751,0.12451,0.656,2.244,0.45
2026-06-09 16:39:42.545,2906722001,10545,2,-0.00879,-0.46313,-0.81445,0.557,1.595,-0.366
2026-06-09 16:39:42.780,2906722236,10780,1,0.01025,-0.97754,0.13257,0.42,2.313,0.45
2026-06-09 16:39:42.780,2906722236,10780,2,-0.01074,-0.46289,-0.82373,0.718,1.679,-0.42
2026-06-09 16:39:42.980,2906722436,10980,1,0.00562,-0.97681,0.12085,0.611,2.221,0.573
2026-06-09 16:39:42.980,2906722436,10980,2,-0.01074,-0.46558,-0.82715,0.626,1.611,-0.466
2026-06-09 16:39:42.180,2906721636,11180,1,0.01172,-0.97461,0.12036,0.45,2.229,0.634
2026-06-09 16:39:42.180,2906721636,11180,2,-0.01611,-0.46216,-0.80859,0.595,1.519,-0.427
2026-06-09 16:39:42.384,2906721840,11384,1,0.00928,-0.9856,0.12695,0.603,2.313,0.489
2026-06-09 16:39:42.384,2906721840,11384,2,-0.01172,-0.46338,-0.80957,0.542,1.473,-0.511
2026-06-09 16:39:43.584,2906723040,11584,1,0.01221,-0.97778,0.13208,0.527,2.267,0.351
2026-06-09 16:39:43.584,2906723040,11584,2,-0.01733,-0.45923,-0.81982,0.634,1.588,-0.374
2026-06-09 16:39:43.784,2906723240,11784,1,0.01147,-0.9834,0.13208,0.412,2.282,0.656
2026-06-09 16:39:43.784,2906723240,11784,2,-0.01831,-0.46631,-0.82153,0.763,1.427,-0.511
2026-06-09 16:39:43.984,2906723440,11984,1,0.01807,-0.98071,0.12378,0.687,2.313,0.466
2026-06-09 16:39:43.984,2906723440,11984,2,-0.01514,-0.46289,-0.82349,0.588,1.481,-0.405
2026-06-09 16:39:43.184,2906722640,12184,1,0.01294,-0.97803,0.13208,0.58,2.099,0.634
2026-06-09 16:39:43.184,2906722640,12184,2,-0.01782,-0.4646,-0.81494,-0.015,1.588,-0.473
2026-06-09 16:39:43.384,2906722840,12384,1,0.0188,-0.98511,0.13672,0.344,2.168,0.534
2026-06-09 16:39:43.384,2906722840,12384,2,-0.01001,-0.46191,-0.81299,0.641,1.58,-0.382
2026-06-09 16:39:44.584,2906724040,12584,1,0.00757,-0.98315,0.12598,0.817,2.382,0.733
2026-06-09 16:39:44.584,2906724040,12584,2,-0.02222,-0.46582,-0.8125,0.55,1.427,-0.473
2026-06-09 16:39:44.784,2906724240,12784,1,0.01099,-0.98047,0.13013,0.489,2.206,0.565
2026-06-09 16:39:44.784,2906724240,12784,2,-0.01733,-0.45923,-0.81763,0.55,1.573,-0.366
2026-06-09 16:39:44.984,2906724440,12984,1,0.01221,-0.98096,0.11914,0.511,2.458,0.313
2026-06-09 16:39:44.984,2906724440,12984,2,-0.01563,-0.46167,-0.82031,0.71,1.504,-0.374
2026-06-09 16:39:44.184,2906723640,13184,1,0.01294,-0.97534,0.12476,0.71,2.359,0.473
2026-06-09 16:39:44.184,2906723640,13184,2,-0.0166,-0.46094,-0.80444,0.687,1.435,-0.511
2026-06-09 16:39:44.384,2906723840,13384,1,0.0188,-0.97705,0.11523,0.626,2.405,0.458
2026-06-09 16:39:44.384,2906723840,13384,2,-0.01343,-0.45972,-0.83203,0.878,1.588,-0.389
2026-06-09 16:39:45.584,2906725040,13584,1,0.01514,-0.97339,0.12573,0.641,2.389,0.374
2026-06-09 16:39:45.584,2906725040,13584,2,-0.00879,-0.45947,-0.82129,0.626,1.443,-0.489
2026-06-09 16:39:45.784,2906725240,13784,1,0.01489,-0.98047,0.11621,0.656,2.405,0.565
2026-06-09 16:39:45.784,2906725240,13784,2,-0.02173,-0.46826,-0.81299,0.573,1.603,-0.466
2026-06-09 16:39:45.984,2906725440,13984,1,0.01416,-0.97876,0.12817,0.542,2.206,0.473
2026-06-09 16:39:45.984,2906725440,13984,2,-0.00977,-0.46191,-0.8335,0.511,1.473,-0.405
2026-06-09 16:39:45.184,2906724640,14184,1,0.01147,-0.97632,0.13208,0.16,2.351,0.473
2026-06-09 16:39:45.184,2906724640,14184,2,-0.01709,-0.46338,-0.82227,0.527,1.595,-0.366
2026-06-09 16:39:45.384,2906724840,14384,1,0.01074,-0.97583,0.12158,0.84,2.328,0.664
2026-06-09 16:39:45.384,2906724840,14384,2,-0.0144,-0.45654,-0.81885,0.748,1.313,-0.351
2026-06-09 16:39:46.584,2906726040,14584,1,0.01294,-0.97534,0.12183,0.305,2.496,0.405
2026-06-09 16:39:46.584,2906726040,14584,2,-0.01074,-0.46606,-0.82153,0.603,1.374,-0.435
2026-06-09 16:39:46.784,2906726240,14784,1,0.00854,-0.97192,0.13135,0.656,2.389,0.534
2026-06-09 16:39:46.784,2906726240,14784,2,-0.01782,-0.46143,-0.81592,0.687,1.481,-0.443
2026-06-09 16:39:46.984,2906726440,14984,1,0.01099,-0.98267,0.12573,0.504,2.412,0.504
2026-06-09 16:39:46.984,2906726440,14984,2,-0.01221,-0.4585,-0.82007,0.435,1.496,-0.366
2026-06-09 16:39:46.184,2906725640,15184,1,0.01074,-0.97754,0.12598,0.42,2.237,0.656
2026-06-09 16:39:46.184,2906725640,15184,2,-0.01831,-0.46045,-0.81421,0.641,1.58,-0.282
2026-06-09 16:39:46.384,2906725840,15384,1,0.01221,-0.97852,0.12964,0.641,2.412,0.672
2026-06-09 16:39:46.384,2906725840,15384,2,-0.02051,-0.46143,-0.81323,0.618,1.618,-0.458
2026-06-09 16:39:47.584,2906727040,15584,1,0.01611,-0.97729,0.12476,0.45,2.443,0.504
2026-06-09 16:39:47.584,2906727040,15584,2,-0.01929,-0.46362,-0.81372,0.412,1.649,-0.466
2026-06-09 16:39:47.784,2906727240,15784,1,0.01636,-0.97729,0.11719,0.527,2.458,0.481
2026-06-09 16:39:47.784,2906727240,15784,2,-0.01611,-0.46338,-0.81885,0.718,1.656,-0.336
2026-06-09 16:39:47.984,2906727440,15984,1,0.00903,-0.97754,0.13037,0.542,2.298,0.466
2026-06-09 16:39:47.984,2906727440,15984,2,-0.01245,-0.46167,-0.81665,0.794,1.466,-0.351
2026-06-09 16:39:47.184,2906726640,16184,1,0.00806,-0.97388,0.12866,0.565,2.397,0.466
2026-06-09 16:39:47.184,2906726640,16184,2,-0.01416,-0.46851,-0.8208,0.565,1.481,-0.389
2026-06-09 16:39:47.384,2906726840,16384,1,0.01196,-0.9751,0.12354,0.595,2.206,0.527
2026-06-09 16:39:47.384,2906726840,16384,2,-0.01807,-0.46118,-0.81934,0.55,1.573,-0.359
2026-06-09 16:39:48.584,2906728040,16584,1,0.01392,-0.97705,0.12769,0.374,2.473,0.397
2026-06-09 16:39:48.584,2906728040,16584,2,-0.01001,-0.45776,-0.82715,0.443,1.527,-0.489
2026-06-09 16:39:48.784,2906728240,16784,1,0.01709,-0.97437,0.13257,0.504,2.481,0.534
2026-06-09 16:39:48.784,2906728240,16784,2,-0.02075,-0.46753,-0.8147,0.481,1.565,-0.496
2026-06-09 16:39:48.984,2906728440,16984,1,0.00537,-0.97681,0.11987,0.55,2.26,0.55
2026-06-09 16:39:48.984,2906728440,16984,2,-0.01904,-0.46704,-0.82617,0.71,1.527,-0.42
2026-06-09 16:39:48.184,2906727640,17184,1,0.01172,-0.97827,0.12573,0.588,2.359,0.542
2026-06-09 16:39:48.184,2906727640,17184,2,-0.00537,-0.46411,-0.81763,0.527,1.695,-0.511
2026-06-09 16:39:48.402,2906727858,17402,1,0.01025,-0.97998,0.12476,0.275,2.366,0.527
2026-06-09 16:39:48.402,2906727858,17402,2,-0.01709,-0.46265,-0.82178,0.542,1.534,-0.504
2026-06-09 16:39:54.757,2906734213,22757,1,0.01392,-0.9707,0.12744,0.58,2.321,0.336
2026-06-09 16:39:54.757,2906734213,22757,2,-0.0166,-0.46143,-0.82251,0.763,1.397,-0.252
2026-06-09 16:39:54.002,2906733458,23002,1,0.01025,-0.98633,0.12378,0.573,2.366,0.473
2026-06-09 16:39:54.002,2906733458,23002,2,-0.0166,-0.46729,-0.82275,0.527,1.511,-0.427
2026-06-09 16:39:55.418,2906734874,23418,1,0.0166,-0.98096,0.12451,0.679,2.405,0.542
2026-06-09 16:39:55.418,2906734874,23418,2,-0.01733,-0.46118,-0.81079,0.718,1.611,-0.397
2026-06-09 16:39:55.618,2906735074,23618,1,0.01196,-0.98169,0.12109,0.672,2.298,0.595
2026-06-09 16:39:55.618,2906735074,23618,2,-0.01563,-0.46387,-0.81934,0.641,1.42,-0.336
2026-06-09 16:39:55.914,2906735370,23914,1,0.00854,-0.98291,0.1167,0.489,2.237,0.595
2026-06-09 16:39:55.914,2906735370,23914,2,-0.01709,-0.46191,-0.81958,0.405,1.672,-0.565
2026-06-09 16:39:56.530,2906735986,24529,1,0.01147,-0.97266,0.11987,0.58,2.229,0.389
2026-06-09 16:39:56.530,2906735986,24529,2,-0.01343,-0.46143,-0.8147,0.611,1.649,-0.458
2026-06-09 16:39:56.795,2906736251,24795,1,0.01538,-0.97705,0.13062,0.634,2.504,0.427
2026-06-09 16:39:56.795,2906736251,24795,2,-0.00684,-0.46021,-0.80444,0.695,1.557,-0.427
2026-06-09 16:39:56.026,2906735482,25026,1,0.01196,-0.98193,0.11377,0.756,2.321,0.412
2026-06-09 16:39:56.026,2906735482,25026,2,-0.02051,-0.4585,-0.81226,0.695,1.718,-0.443
2026-06-09 16:39:56.226,2906735682,25226,1,0.01782,-0.9729,0.12183,0.534,2.389,0.74
2026-06-09 16:39:56.226,2906735682,25226,2,-0.01831,-0.46216,-0.81494,0.664,1.527,-0.382
2026-06-09 16:39:57.426,2906736882,25426,1,0.01294,-0.97168,0.11572,0.466,2.115,0.351
2026-06-09 16:39:57.426,2906736882,25426,2,-0.01782,-0.46436,-0.81738,0.611,1.504,-0.473
2026-06-09 16:39:57.645,2906737101,25645,1,0.01343,-0.98218,0.12329,0.618,2.107,0.336
2026-06-09 16:39:57.645,2906737101,25645,2,-0.01196,-0.46411,-0.82373,0.687,1.611,-0.359
2026-06-09 16:39:57.896,2906737352,25896,1,0.01514,-0.97827,0.12476,0.458,2.42,0.542
2026-06-09 16:39:57.896,2906737352,25896,2,-0.01465,-0.46094,-0.81982,0.588,1.71,-0.458
2026-06-09 16:39:57.096,2906736552,26096,1,0.00977,-0.97925,0.12891,0.618,2.328,0.489
2026-06-09 16:39:57.096,2906736552,26096,2,-0.01904,-0.45605,-0.82813,0.603,1.542,-0.374
2026-06-09 16:39:57.325,2906736781,26325,1,0.01294,-0.97949,0.12256,0.679,2.252,0.58
2026-06-09 16:39:57.325,2906736781,26325,2,-0.01636,-0.46875,-0.81567,0.496,1.557,-0.481
2026-06-09 16:39:58.525,2906737981,26525,1,0.0144,-0.979,0.11646,0.511,2.458,0.55
2026-06-09 16:39:58.525,2906737981,26525,2,-0.01953,-0.45386,-0.81641,0.618,1.542,-0.42
2026-06-09 16:39:58.725,2906738181,26725,1,0.01953,-0.97852,0.13208,0.504,2.374,0.573
2026-06-09 16:39:58.725,2906738181,26725,2,-0.00977,-0.46021,-0.81226,0.58,1.427,-0.389
2026-06-09 16:39:58.925,2906738381,26925,1,0.0083,-0.97437,0.1272,0.519,2.145,0.519
2026-06-09 16:39:58.925,2906738381,26925,2,-0.01929,-0.46191,-0.82324,0.641,1.542,-0.336
2026-06-09 16:39:58.125,2906737581,27125,1,0.00952,-0.96997,0.12012,0.626,2.244,0.542
2026-06-09 16:39:58.125,2906737581,27125,2,-0.01294,-0.45313,-0.81396,0.718,1.511,-0.359
2026-06-09 16:39:58.325,2906737781,27325,1,0.01538,-0.9707,0.12817,0.656,2.313,0.496
2026-06-09 16:39:58.325,2906737781,27325,2,-0.01685,-0.46704,-0.823,0.527,1.603,-0.374
2026-06-09 16:39:59.525,2906738981,27525,1,0.00854,-0.97437,0.12915,0.649,2.298,0.55
2026-06-09 16:39:59.525,2906738981,27525,2,-0.01416,-0.45532,-0.81738,0.588,1.626,-0.26
2026-06-09 16:39:59.725,2906739181,27725,1,0.01489,-0.97729,0.12793,0.55,2.221,0.458
2026-06-09 16:39:59.725,2906739181,27725,2,-0.02075,-0.46411,-0.82275,0.687,1.618,-0.412
2026-06-09 16:39:59.925,2906739381,27925,1,0.01172,-0.97388,0.13501,0.588,2.305,0.534
2026-06-09 16:39:59.925,2906739381,27925,2,-0.01587,-0.46216,-0.8208,0.656,1.687,-0.489
2026-06-09 16:39:59.125,2906738581,28125,1,0.00879,-0.97827,0.12451,0.786,2.168,0.359
2026-06-09 16:39:59.125,2906738581,28125,2,-0.01465,-0.46338,-0.82129,0.42,1.481,-0.527
2026-06-09 16:39:59.325,2906738781,28325,1,0.01392,-0.97583,0.1167,0.641,2.328,0.641
2026-06-09 16:39:59.325,2906738781,28325,2,-0.01172,-0.46143,-0.81006,0.519,1.672,-0.45
2026-06-09 16:40:00.525,2906739981,28525,1,0.01465,-0.97534,0.12158,0.542,2.359,0.672
2026-06-09 16:40:00.525,2906739981,28525,2,-0.01343,-0.46436,-0.81348,0.634,1.718,-0.489
2026-06-09 16:40:00.725,2906740181,28725,1,0.01367,-0.97754,0.13574,0.588,2.183,0.611
2026-06-09 16:40:00.725,2906740181,28725,2,-0.01978,-0.45874,-0.82178,0.786,1.687,-0.542
2026-06-09 16:40:00.925,2906740381,28925,1,0.01636,-0.97803,0.1311,0.664,2.496,0.557
2026-06-09 16:40:00.925,2906740381,28925,2,-0.01953,-0.46387,-0.81519,0.672,1.626,-0.382
2026-06-09 16:40:00.125,2906739581,29125,1,0.01416,-0.97681,0.13501,0.481,2.511,0.435
2026-06-09 16:40:00.125,2906739581,29125,2,-0.021,-0.46265,-0.81348,0.687,1.542,-0.466
2026-06-09 16:40:00.325,2906739781,29325,1,0.01489,-0.97705,0.12329,0.519,2.229,0.565
2026-06-09 16:40:00.325,2906739781,29325,2,-0.01587,-0.46606,-0.82813,0.641,1.71,-0.412
2026-06-09 16:40:01.525,2906740981,29525,1,0.01221,-0.97754,0.11865,0.527,2.275,0.626
2026-06-09 16:40:01.525,2906740981,29525,2,-0.01733,-0.4585,-0.81055,0.641,1.557,-0.42
2026-06-09 16:40:01.725,2906741181,29725,1,0.01074,-0.98022,0.11255,0.603,2.275,0.565
2026-06-09 16:40:01.725,2906741181,29725,2,-0.02246,-0.46387,-0.81177,0.565,1.443,-0.496
2026-06-09 16:40:01.925,2906741381,29925,1,0.01416,-0.98242,0.12744,0.679,2.191,0.481
2026-06-09 16:40:01.925,2906741381,29925,2,-0.00757,-0.46313,-0.8208,0.496,1.573,-0.344
2026-06-09 16:40:01.125,2906740581,30125,1,0.01855,-0.97656,0.13062,0.649,2.435,0.366
2026-06-09 16:40:01.125,2906740581,30125,2,-0.01147,-0.46143,-0.80542,0.664,1.496,-0.435
2026-06-09 16:40:01.325,2906740781,30325,1,0.01465,-0.97681,0.12427,0.626,2.244,0.626
2026-06-09 16:40:01.325,2906740781,30325,2,-0.02075,-0.46045,-0.81396,0.634,1.435,-0.519
2026-06-09 16:40:02.525,2906741981,30525,1,0.0083,-0.98145,0.12207,0.71,2.092,0.405
2026-06-09 16:40:02.525,2906741981,30525,2,-0.01367,-0.46191,-0.82202,0.595,1.45,-0.344
2026-06-09 16:40:02.725,2906742181,30725,1,0.01343,-0.97583,0.1311,0.641,2.435,0.634
2026-06-09 16:40:02.725,2906742181,30725,2,-0.01611,-0.45728,-0.81226,0.603,1.519,-0.26
2026-06-09 16:40:02.925,2906742381,30925,1,0.00635,-0.97949,0.11841,0.527,2.046,0.382
2026-06-09 16:40:02.925,2906742381,30925,2,-0.02026,-0.46069,-0.80518,0.763,1.527,-0.527
2026-06-09 16:40:02.125,2906741581,31125,1,0.01074,-0.97925,0.11987,0.504,2.466,0.427
2026-06-09 16:40:02.125,2906741581,31125,2,-0.01636,-0.4668,-0.80908,0.626,1.496,-0.458
2026-06-09 16:40:02.325,2906741781,31325,1,0.01489,-0.97827,0.12109,0.573,2.366,0.588
2026-06-09 16:40:02.325,2906741781,31325,2,-0.01807,-0.46265,-0.81738,0.588,1.672,-0.504
2026-06-09 16:40:03.525,2906742981,31525,1,0.01001,-0.97217,0.11328,0.695,2.321,0.435
2026-06-09 16:40:03.525,2906742981,31525,2,-0.02026,-0.46216,-0.82129,0.84,1.588,-0.351
2026-06-09 16:40:03.725,2906743181,31725,1,0.0083,-0.97876,0.12378,0.672,2.221,0.458
2026-06-09 16:40:03.725,2906743181,31725,2,-0.02051,-0.45972,-0.82007,0.649,1.595,-0.374
2026-06-09 16:40:03.925,2906743381,31925,1,0.01563,-0.97827,0.13306,0.489,2.382,0.45
2026-06-09 16:40:03.925,2906743381,31925,2,-0.01343,-0.4668,-0.82153,0.55,1.718,-0.573
2026-06-09 16:40:03.125,2906742581,32125,1,0.0127,-0.97876,0.12207,0.534,2.267,0.405
2026-06-09 16:40:03.125,2906742581,32125,2,-0.01538,-0.45776,-0.81299,0.565,1.481,-0.466
2026-06-09 16:40:03.374,2906742830,32374,1,0.01196,-0.98633,0.11084,0.641,2.374,0.458
2026-06-09 16:40:03.374,2906742830,32374,2,-0.02344,-0.46362,-0.81763,0.58,1.756,-0.45
2026-06-09 16:40:04.591,2906744047,32591,1,0.00952,-0.97534,0.12793,0.344,2.29,0.435
2026-06-09 16:40:04.591,2906744047,32591,2,-0.02051,-0.4585,-0.80884,0.519,1.557,-0.443
2026-06-09 16:40:06.987,2906746443,34987,1,0.01025,-0.97998,0.12866,0.504,2.366,0.481
2026-06-09 16:40:06.987,2906746443,34987,2,-0.01611,-0.46362,-0.8186,0.573,1.641,-0.519
2026-06-09 16:40:06.187,2906745643,35187,1,0.01343,-0.97803,0.12549,0.489,2.42,0.725
2026-06-09 16:40:06.187,2906745643,35187,2,-0.01367,-0.4624,-0.81104,0.588,1.603,-0.42
2026-06-09 16:40:06.387,2906745843,35387,1,0.0105,-0.9751,0.12012,0.832,2.26,0.557
2026-06-09 16:40:06.387,2906745843,35387,2,-0.01782,-0.46436,-0.82275,0.718,1.55,-0.443
2026-06-09 16:40:07.587,2906747043,35587,1,0.01001,-0.97827,0.11548,0.595,2.351,0.374
2026-06-09 16:40:07.587,2906747043,35587,2,-0.01978,-0.46094,-0.81885,0.664,1.466,-0.527
2026-06-09 16:40:07.787,2906747243,35787,1,0.01807,-0.97998,0.12158,0.412,2.344,0.527
2026-06-09 16:40:07.787,2906747243,35787,2,-0.01855,-0.46509,-0.81836,0.473,1.58,-0.511
2026-06-09 16:40:10.703,2906750159,38703,1,0.01172,-0.98071,0.12085,0.71,2.443,0.611
2026-06-09 16:40:10.703,2906750159,38703,2,-0.01733,-0.45557,-0.8252,0.427,1.519,-0.412
2026-06-09 16:40:10.015,2906749471,39014,1,0.0105,-0.97461,0.12524,0.55,2.229,0.58
2026-06-09 16:40:10.015,2906749471,39014,2,-0.01489,-0.46313,-0.81738,0.656,1.763,-0.405
2026-06-09 16:40:10.322,2906749778,39322,1,0.01831,-0.97607,0.12085,0.55,2.336,0.588
2026-06-09 16:40:10.322,2906749778,39322,2,-0.01709,-0.4624,-0.80518,0.71,1.565,-0.351
2026-06-09 16:40:11.697,2906751153,39697,1,0.01587,-0.97583,0.12427,0.588,2.397,0.641
2026-06-09 16:40:11.697,2906751153,39697,2,-0.01465,-0.46387,-0.82153,0.573,1.573,-0.481
2026-06-09 16:40:11.897,2906751353,39897,1,0.01147,-0.97363,0.12988,0.649,2.26,0.473
2026-06-09 16:40:11.897,2906751353,39897,2,-0.01489,-0.46143,-0.81421,0.611,1.573,-0.481
2026-06-09 16:40:11.130,2906750586,40130,1,0.00635,-0.979,0.125,0.641,2.29,0.656
2026-06-09 16:40:11.130,2906750586,40130,2,-0.02393,-0.45996,-0.80688,0.756,1.649,-0.405
2026-06-09 16:40:11.330,2906750786,40330,1,0.01318,-0.97314,0.12402,0.687,2.229,0.618
2026-06-09 16:40:11.330,2906750786,40330,2,-0.01611,-0.46118,-0.82202,0.695,1.71,-0.45
2026-06-09 16:40:12.530,2906751986,40530,1,0.01685,-0.98047,0.12891,0.58,2.374,0.527
2026-06-09 16:40:12.530,2906751986,40530,2,-0.01514,-0.46216,-0.82544,0.565,1.511,-0.55
2026-06-09 16:40:12.730,2906752186,40730,1,0.00977,-0.97241,0.12524,0.702,2.321,0.565
2026-06-09 16:40:12.730,2906752186,40730,2,-0.01831,-0.46411,-0.82227,0.55,1.489,-0.389
2026-06-09 16:40:12.930,2906752386,40930,1,0.01025,-0.98096,0.12036,0.427,2.206,0.511
2026-06-09 16:40:12.930,2906752386,40930,2,-0.01709,-0.4646,-0.81226,0.763,1.603,-0.397
2026-06-09 16:40:12.130,2906751586,41130,1,0.01147,-0.97754,0.12598,0.374,2.221,0.489
2026-06-09 16:40:12.130,2906751586,41130,2,-0.01465,-0.45972,-0.81543,0.58,1.366,-0.382
2026-06-09 16:40:12.330,2906751786,41330,1,0.01367,-0.98145,0.12744,0.588,2.435,0.427
2026-06-09 16:40:12.330,2906751786,41330,2,-0.02075,-0.46533,-0.81567,0.489,1.504,-0.565
2026-06-09 16:40:13.530,2906752986,41530,1,0.01709,-0.97974,0.12915,0.824,2.45,0.344
2026-06-09 16:40:13.530,2906752986,41530,2,-0.02368,-0.46118,-0.81348,0.618,1.595,-0.473
2026-06-09 16:40:13.730,2906753186,41730,1,0.0127,-0.97559,0.1228,0.626,2.267,0.718
2026-06-09 16:40:13.730,2906753186,41730,2,-0.01514,-0.45947,-0.82056,0.534,1.473,-0.519
2026-06-09 16:40:13.930,2906753386,41930,1,0.00879,-0.97925,0.12622,0.466,2.229,0.473
2026-06-09 16:40:13.930,2906753386,41930,2,-0.01367,-0.46436,-0.8186,0.527,1.672,-0.328
2026-06-09 16:40:13.130,2906752586,42130,1,0.01514,-0.97534,0.12793,0.603,2.275,0.542
2026-06-09 16:40:13.130,2906752586,42130,2,-0.02344,-0.46265,-0.81372,0.496,1.481,-0.504
2026-06-09 16:40:13.330,2906752786,42330,1,0.01685,-0.97974,0.12109,0.573,2.252,0.496
2026-06-09 16:40:13.330,2906752786,42330,2,-0.02173,-0.46436,-0.82373,0.595,1.557,-0.496
2026-06-09 16:40:14.530,2906753986,42530,1,0.01196,-0.97607,0.12256,0.481,2.252,0.626
2026-06-09 16:40:14.530,2906753986,42530,2,-0.01904,-0.4624,-0.81274,0.725,1.565,-0.641
2026-06-09 16:40:14.730,2906754186,42730,1,0.01147,-0.97852,0.12817,0.618,2.206,0.435
2026-06-09 16:40:14.730,2906754186,42730,2,-0.01392,-0.45874,-0.81909,0.687,1.534,-0.42
2026-06-09 16:40:14.930,2906754386,42930,1,0.01245,-0.97656,0.12231,0.55,2.435,0.458
2026-06-09 16:40:14.930,2906754386,42930,2,-0.01685,-0.45654,-0.81348,0.573,1.641,-0.565
2026-06-09 16:40:14.130,2906753586,43130,1,0.01196,-0.98071,0.11865,0.389,2.244,0.458
2026-06-09 16:40:14.130,2906753586,43130,2,-0.01978,-0.4668,-0.81372,0.55,1.565,-0.466
2026-06-09 16:40:14.330,2906753786,43330,1,0.01563,-0.98096,0.12549,0.603,2.359,0.656
2026-06-09 16:40:14.330,2906753786,43330,2,-0.01685,-0.46094,-0.81885,0.71,1.511,-0.481
2026-06-09 16:40:15.530,2906754986,43530,1,0.0105,-0.98291,0.11792,0.725,2.305,0.351
2026-06-09 16:40:15.530,2906754986,43530,2,-0.02368,-0.46118,-0.81836,0.603,1.527,-0.435
2026-06-09 16:40:15.730,2906755186,43730,1,0.01489,-0.98682,0.12793,0.443,2.244,0.55
2026-06-09 16:40:15.730,2906755186,43730,2,-0.01563,-0.46753,-0.82178,0.695,1.45,-0.168
2026-06-09 16:40:15.932,2906755388,43932,1,0.00977,-0.97974,0.12622,0.496,2.328,0.389
2026-06-09 16:40:15.932,2906755388,43932,2,-0.01709,-0.45898,-0.81543,0.672,1.603,-0.382
2026-06-09 16:40:15.132,2906754588,44132,1,0.0105,-0.97778,0.11914,0.55,2.305,0.588
2026-06-09 16:40:15.132,2906754588,44132,2,-0.01074,-0.46387,-0.81152,0.496,1.603,-0.45
2026-06-09 16:40:16.441,2906755897,44441,1,0.01123,-0.97827,0.11914,0.534,2.29,0.443
2026-06-09 16:40:16.441,2906755897,44441,2,-0.01758,-0.45776,-0.81689,0.55,1.611,-0.366
2026-06-09 16:40:16.641,2906756097,44641,1,0.01245,-0.97705,0.12158,0.763,2.573,0.573
2026-06-09 16:40:16.641,2906756097,44641,2,-0.01172,-0.46069,-0.81421,0.595,1.565,-0.389
2026-06-09 16:40:16.841,2906756297,44841,1,0.00977,-0.97314,0.12988,0.542,2.435,0.412
2026-06-09 16:40:16.841,2906756297,44841,2,-0.01978,-0.46289,-0.81348,0.672,1.466,-0.641
2026-06-09 16:40:16.041,2906755497,45041,1,0.00781,-0.97803,0.12305,0.634,2.16,0.389
2026-06-09 16:40:16.041,2906755497,45041,2,-0.01953,-0.4668,-0.81396,0.481,1.626,-0.588
2026-06-09 16:40:16.241,2906755697,45241,1,0.01489,-0.97729,0.12598,0.679,2.183,0.611
2026-06-09 16:40:16.241,2906755697,45241,2,-0.01758,-0.46558,-0.82715,0.649,1.58,-0.321
2026-06-09 16:40:17.441,2906756897,45441,1,0.01074,-0.97241,0.11914,0.679,2.466,0.359
2026-06-09 16:40:17.441,2906756897,45441,2,-0.01758,-0.4563,-0.81592,0.672,1.481,-0.206
2026-06-09 16:40:17.641,2906757097,45641,1,0.0105,-0.97168,0.12524,0.565,2.252,0.527
2026-06-09 16:40:17.641,2906757097,45641,2,-0.01465,-0.45605,-0.8186,0.382,1.55,-0.458
2026-06-09 16:40:17.841,2906757297,45841,1,0.01245,-0.98071,0.12427,0.595,2.504,0.603
2026-06-09 16:40:17.841,2906757297,45841,2,-0.01123,-0.46826,-0.81982,0.702,1.489,-0.359
2026-06-09 16:40:17.087,2906756543,46087,1,0.01392,-0.97729,0.12842,0.672,2.412,0.42
2026-06-09 16:40:17.087,2906756543,46087,2,-0.01563,-0.46216,-0.81934,0.55,1.519,-0.359
2026-06-09 16:40:17.369,2906756825,46369,1,0.00928,-0.97729,0.13159,0.427,2.366,0.618
2026-06-09 16:40:17.369,2906756825,46369,2,-0.01733,-0.46265,-0.81909,0.595,1.58,-0.351
2026-06-09 16:40:18.569,2906758025,46569,1,0.01001,-0.97485,0.11963,0.42,2.275,0.565
2026-06-09 16:40:18.569,2906758025,46569,2,-0.01611,-0.46558,-0.82007,0.725,1.565,-0.374
2026-06-09 16:40:18.775,2906758231,46775,1,0.00952,-0.97656,0.12695,0.588,2.443,0.588
2026-06-09 16:40:18.775,2906758231,46775,2,-0.01831,-0.46143,-0.82153,0.481,1.557,-0.55
2026-06-09 16:40:18.975,2906758431,46975,1,0.00903,-0.97095,0.11865,0.664,2.321,0.588
2026-06-09 16:40:18.975,2906758431,46975,2,-0.0166,-0.46436,-0.81201,0.664,1.733,-0.496
2026-06-09 16:40:18.175,2906757631,47175,1,0.01221,-0.979,0.12061,0.519,2.29,0.443
2026-06-09 16:40:18.175,2906757631,47175,2,-0.01758,-0.45825,-0.81421,0.626,1.473,-0.42
2026-06-09 16:40:18.375,2906757831,47375,1,0.00903,-0.97778,0.11938,0.611,2.328,0.504
2026-06-09 16:40:18.375,2906757831,47375,2,-0.01636,-0.4563,-0.82153,0.511,1.519,-0.382
2026-06-09 16:40:19.575,2906759031,47575,1,0.01514,-0.98096,0.12109,0.603,2.191,0.481
2026-06-09 16:40:19.575,2906759031,47575,2,-0.01733,-0.46289,-0.81592,0.656,1.611,-0.412
2026-06-09 16:40:19.775,2906759231,47775,1,0.00977,-0.97583,0.12109,0.802,2.29,0.55
2026-06-09 16:40:19.775,2906759231,47775,2,-0.01343,-0.46313,-0.81592,0.718,1.496,-0.359
2026-06-09 16:40:19.007,2906758463,48007,1,0.00977,-0.97632,0.12524,0.58,2.16,0.611
2026-06-09 16:40:19.007,2906758463,48007,2,-0.01196,-0.45801,-0.80518,0.618,1.618,-0.542
2026-06-09 16:40:19.207,2906758663,48207,1,0.0083,-0.98242,0.13013,0.527,2.26,0.519
2026-06-09 16:40:19.207,2906758663,48207,2,-0.02148,-0.46045,-0.81787,0.817,1.649,-0.321
2026-06-09 16:40:20.429,2906759885,48429,1,0.01514,-0.97827,0.12085,0.71,2.16,0.641
2026-06-09 16:40:20.429,2906759885,48429,2,-0.0188,-0.46362,-0.81543,0.511,1.527,-0.473
2026-06-09 16:40:20.629,2906760085,48629,1,0.01807,-0.97827,0.12305,0.664,2.13,0.359
2026-06-09 16:40:20.629,2906760085,48629,2,-0.01538,-0.45996,-0.82104,0.542,1.466,-0.45
2026-06-09 16:40:20.829,2906760285,48829,1,0.00903,-0.97729,0.11816,0.504,2.443,0.435
2026-06-09 16:40:20.829,2906760285,48829,2,-0.01636,-0.45996,-0.81006,0.702,1.656,-0.557
2026-06-09 16:40:20.029,2906759485,49029,1,0.00854,-0.97949,0.11475,0.664,2.313,0.557
2026-06-09 16:40:20.029,2906759485,49029,2,-0.01855,-0.45654,-0.81567,0.664,1.573,-0.427
2026-06-09 16:40:20.229,2906759685,49229,1,0.0083,-0.97363,0.13477,0.45,2.275,0.511
2026-06-09 16:40:20.229,2906759685,49229,2,-0.02271,-0.46509,-0.81519,0.634,1.679,-0.504
2026-06-09 16:40:21.442,2906760898,49442,1,0.01392,-0.98462,0.12354,0.313,2.252,0.763
2026-06-09 16:40:21.442,2906760898,49442,2,-0.01782,-0.46582,-0.81445,0.664,1.641,-0.382
2026-06-09 16:40:21.642,2906761098,49642,1,0.02026,-0.97827,0.12476,0.534,2.328,0.458
2026-06-09 16:40:21.642,2906761098,49642,2,-0.01465,-0.46045,-0.81592,0.656,1.481,-0.458
2026-06-09 16:40:21.842,2906761298,49842,1,0.01099,-0.979,0.11621,0.649,2.282,0.695
2026-06-09 16:40:21.842,2906761298,49842,2,-0.01025,-0.45972,-0.82104,0.58,1.359,-0.298
2026-06-09 16:40:21.042,2906760498,50042,1,0.01172,-0.97583,0.12012,0.695,2.443,0.435
2026-06-09 16:40:21.042,2906760498,50042,2,-0.01343,-0.46558,-0.81299,0.702,1.634,-0.466
2026-06-09 16:40:21.242,2906760698,50242,1,0.01001,-0.98364,0.11499,0.565,2.359,0.626
2026-06-09 16:40:21.242,2906760698,50242,2,-0.02148,-0.46313,-0.81421,0.687,1.305,-0.405
2026-06-09 16:40:22.442,2906761898,50442,1,0.01782,-0.979,0.11816,0.496,2.244,0.427
2026-06-09 16:40:22.442,2906761898,50442,2,-0.0188,-0.45776,-0.81128,0.489,1.725,-0.534
2026-06-09 16:40:22.642,2906762098,50642,1,0.01172,-0.98071,0.12891,0.397,2.229,0.412
2026-06-09 16:40:22.642,2906762098,50642,2,-0.0144,-0.46313,-0.82227,0.603,1.748,-0.382
2026-06-09 16:40:22.859,2906762315,50859,1,0.0127,-0.97729,0.13403,0.565,2.374,0.427
2026-06-09 16:40:22.859,2906762315,50859,2,-0.01709,-0.45898,-0.82813,0.595,1.489,-0.374
2026-06-09 16:40:22.059,2906761515,51059,1,0.01489,-0.97925,0.11914,0.679,2.344,0.695
2026-06-09 16:40:22.059,2906761515,51059,2,-0.02319,-0.45801,-0.82007,1.779,1.725,0.183
2026-06-09 16:40:22.259,2906761715,51259,1,0.01563,-0.97217,0.12378,0.374,2.511,0.534
2026-06-09 16:40:22.259,2906761715,51259,2,-0.02075,-0.4668,-0.81494,0.595,1.519,-0.244
2026-06-09 16:40:23.459,2906762915,51459,1,0.00977,-0.98315,0.13062,0.542,2.282,0.664
2026-06-09 16:40:23.459,2906762915,51459,2,-0.01978,-0.46777,-0.81372,0.649,1.763,-0.443
2026-06-09 16:40:23.659,2906763115,51659,1,0.0127,-0.97485,0.12573,0.336,2.328,0.397
2026-06-09 16:40:23.659,2906763115,51659,2,-0.00537,-0.4585,-0.83032,0.473,1.481,-0.313
2026-06-09 16:40:23.866,2906763322,51866,1,0.01465,-0.97168,0.12622,0.542,2.466,0.366
2026-06-09 16:40:23.866,2906763322,51866,2,-0.02222,-0.46387,-0.80884,0.695,1.725,-0.519
2026-06-09 16:40:23.067,2906762523,52067,1,0.01074,-0.98706,0.12793,0.656,1.802,0.534
2026-06-09 16:40:23.067,2906762523,52067,2,-0.01782,-0.46948,-0.80542,0.626,1.687,-0.618
2026-06-09 16:40:23.267,2906762723,52267,1,0.01294,-0.97217,0.12183,0.557,2.42,0.672
2026-06-09 16:40:23.267,2906762723,52267,2,-0.01636,-0.46899,-0.83301,0.779,1.221,-0.198
2026-06-09 16:40:24.467,2906763923,52467,1,0.01074,-0.97876,0.12109,0.603,2.664,0.489
2026-06-09 16:40:24.467,2906763923,52467,2,-0.01782,-0.46118,-0.8208,0.366,1.45,-0.389
2026-06-09 16:40:24.667,2906764123,52667,1,0.01685,-0.9751,0.1189,0.489,2.16,0.397
2026-06-09 16:40:24.667,2906764123,52667,2,-0.0166,-0.45825,-0.80811,0.672,1.656,-0.496
2026-06-09 16:40:24.867,2906764323,52867,1,0.01465,-0.97314,0.11206,0.58,2.374,0.489
2026-06-09 16:40:24.867,2906764323,52867,2,-0.01367,-0.46191,-0.81421,0.557,1.511,-0.481
2026-06-09 16:40:24.121,2906763577,53121,1,0.01147,-0.97217,0.12573,0.565,2.313,0.496
2026-06-09 16:40:24.121,2906763577,53121,2,-0.0127,-0.47021,-0.81274,0.687,1.588,-0.328
2026-06-09 16:40:25.777,2906765233,53777,1,0.01367,-0.97583,0.11694,0.557,2.45,0.366
2026-06-09 16:40:25.777,2906765233,53777,2,-0.01929,-0.46094,-0.81641,0.855,1.496,-0.275
2026-06-09 16:40:25.977,2906765433,53977,1,0.01318,-0.98096,0.11987,0.748,2.397,0.565
2026-06-09 16:40:25.977,2906765433,53977,2,-0.01709,-0.46143,-0.82129,0.603,1.641,-0.328
2026-06-09 16:40:25.177,2906764633,54177,1,0.01001,-0.97583,0.1272,0.573,2.267,0.611
2026-06-09 16:40:25.177,2906764633,54177,2,-0.0127,-0.46045,-0.81738,0.557,1.519,-0.496
2026-06-09 16:40:25.377,2906764833,54377,1,0.01294,-0.97803,0.1189,0.664,2.29,0.496
2026-06-09 16:40:25.377,2906764833,54377,2,-0.02075,-0.46924,-0.82031,0.695,1.618,-0.557
2026-06-09 16:40:26.577,2906766033,54577,1,0.01538,-0.97632,0.13135,0.725,2.29,0.405
2026-06-09 16:40:26.577,2906766033,54577,2,-0.01831,-0.46069,-0.80957,0.603,1.626,-0.282
2026-06-09 16:40:26.778,2906766234,54778,1,0.01929,-0.97314,0.12695,0.542,2.298,0.397
2026-06-09 16:40:26.778,2906766234,54778,2,-0.0144,-0.45996,-0.81445,0.55,1.626,-0.489
2026-06-09 16:40:26.978,2906766434,54978,1,0.01318,-0.97998,0.12695,0.397,2.351,0.588
2026-06-09 16:40:26.978,2906766434,54978,2,-0.01978,-0.46558,-0.81812,0.618,1.45,-0.45
2026-06-09 16:40:26.178,2906765634,55178,1,0.0105,-0.98242,0.11792,0.656,2.282,0.336
2026-06-09 16:40:26.178,2906765634,55178,2,-0.0166,-0.45776,-0.80884,0.557,1.489,-0.481
2026-06-09 16:40:26.392,2906765848,55392,1,0.01489,-0.97339,0.11621,0.565,2.42,0.557
2026-06-09 16:40:26.392,2906765848,55392,2,-0.01465,-0.46069,-0.82813,0.687,1.527,-0.397
2026-06-09 16:40:27.592,2906767048,55592,1,0.01904,-0.97046,0.11816,0.618,2.603,0.534
2026-06-09 16:40:27.592,2906767048,55592,2,-0.01758,-0.46167,-0.81934,0.718,1.634,-0.534
2026-06-09 16:40:27.792,2906767248,55792,1,0.01001,-0.9707,0.12598,0.382,2.229,0.55
2026-06-09 16:40:27.792,2906767248,55792,2,-0.0166,-0.46289,-0.82178,0.626,1.443,-0.336
2026-06-09 16:40:27.992,2906767448,55992,1,0.01172,-0.97949,0.13037,0.473,2.313,0.618
2026-06-09 16:40:27.992,2906767448,55992,2,-0.01563,-0.46387,-0.81738,0.618,1.489,-0.519
2026-06-09 16:40:27.192,2906766648,56192,1,0.01147,-0.96655,0.12427,0.679,2.473,0.695
2026-06-09 16:40:27.192,2906766648,56192,2,-0.01855,-0.46436,-0.81055,0.611,1.725,-0.557
2026-06-09 16:40:27.392,2906766848,56392,1,0.0083,-0.97852,0.12256,0.649,2.42,0.427
2026-06-09 16:40:27.392,2906766848,56392,2,-0.01636,-0.45679,-0.82031,0.534,1.618,-0.489
2026-06-09 16:40:28.592,2906768048,56592,1,0.00977,-0.98096,0.11328,0.695,2.328,0.557
2026-06-09 16:40:28.592,2906768048,56592,2,-0.02563,-0.46411,-0.8125,0.527,1.55,-0.359
2026-06-09 16:40:28.792,2906768248,56792,1,0.01294,-0.97827,0.12207,0.405,2.313,0.435
2026-06-09 16:40:28.792,2906768248,56792,2,-0.0127,-0.46362,-0.81567,0.55,1.565,-0.412
2026-06-09 16:40:28.992,2906768448,56992,1,0.01392,-0.97607,0.12598,0.481,2.282,0.55
2026-06-09 16:40:28.992,2906768448,56992,2,-0.01367,-0.4646,-0.82666,0.779,1.733,-0.344
2026-06-09 16:40:28.192,2906767648,57192,1,0.01465,-0.97778,0.12354,0.55,2.336,0.496
2026-06-09 16:40:28.192,2906767648,57192,2,-0.02222,-0.46411,-0.81396,0.855,1.656,-0.542
2026-06-09 16:40:28.392,2906767848,57392,1,0.01465,-0.98267,0.12451,0.443,2.168,0.489
2026-06-09 16:40:28.392,2906767848,57392,2,-0.02197,-0.45361,-0.82349,0.656,1.519,-0.473
2026-06-09 16:40:29.592,2906769048,57592,1,0.01221,-0.97949,0.12451,0.779,2.542,0.443
2026-06-09 16:40:29.592,2906769048,57592,2,-0.01855,-0.46338,-0.82568,0.771,1.496,-0.321
2026-06-09 16:40:29.793,2906769249,57793,1,0.0127,-0.97803,0.13184,0.496,2.275,0.458
2026-06-09 16:40:29.793,2906769249,57793,2,-0.01978,-0.46021,-0.82666,0.55,1.573,-0.473
2026-06-09 16:40:29.993,2906769449,57993,1,0.01001,-0.98071,0.11938,0.611,2.29,0.618
2026-06-09 16:40:29.993,2906769449,57993,2,-0.02026,-0.46948,-0.81689,0.573,1.565,-0.504
2026-06-09 16:40:29.193,2906768649,58193,1,0.0166,-0.97876,0.12427,0.473,2.443,0.527
2026-06-09 16:40:29.193,2906768649,58193,2,-0.01855,-0.45947,-0.80933,0.42,1.55,-0.321
2026-06-09 16:40:29.393,2906768849,58393,1,0.01001,-0.98413,0.12085,0.55,2.366,0.58
2026-06-09 16:40:29.393,2906768849,58393,2,-0.01855,-0.4668,-0.82031,0.664,1.557,-0.412
2026-06-09 16:40:30.593,2906770049,58593,1,0.01343,-0.97705,0.125,0.489,2.366,0.557
2026-06-09 16:40:30.593,2906770049,58593,2,-0.02197,-0.46143,-0.82153,0.779,1.504,-0.298
2026-06-09 16:40:30.793,2906770249,58793,1,0.01196,-0.97607,0.12378,0.603,2.305,0.611
2026-06-09 16:40:30.793,2906770249,58793,2,-0.01807,-0.46118,-0.81738,0.565,1.603,-0.511
2026-06-09 16:40:30.993,2906770449,58993,1,0.01196,-0.97095,0.11768,0.534,2.382,0.702
2026-06-09 16:40:30.993,2906770449,58993,2,-0.01514,-0.46021,-0.81738,0.565,1.42,-0.374
2026-06-09 16:40:30.193,2906769649,59193,1,0.01318,-0.97095,0.12988,0.198,2.466,0.565
2026-06-09 16:40:30.193,2906769649,59193,2,-0.01465,-0.46216,-0.82446,0.55,1.626,-0.504
2026-06-09 16:40:30.393,2906769849,59393,1,0.01221,-0.97803,0.12036,0.481,2.374,0.519
2026-06-09 16:40:30.393,2906769849,59393,2,-0.0166,-0.46606,-0.81763,0.504,1.412,-0.519
2026-06-09 16:40:31.593,2906771049,59593,1,0.01367,-0.97852,0.12158,0.359,2.511,0.504
2026-06-09 16:40:31.593,2906771049,59593,2,-0.02002,-0.4624,-0.81372,0.71,1.603,-0.496
2026-06-09 16:40:31.793,2906771249,59793,1,0.01416,-0.97925,0.12061,0.557,2.313,0.565
2026-06-09 16:40:31.793,2906771249,59793,2,-0.01514,-0.46509,-0.81738,0.557,1.496,-0.458
2026-06-09 16:40:31.993,2906771449,59993,1,0.00952,-0.98218,0.12231,0.71,2.466,0.313
2026-06-09 16:40:31.993,2906771449,59993,2,-0.02271,-0.46387,-0.82617,0.618,1.687,-0.397
2026-06-09 16:40:31.193,2906770649,60193,1,0.01416,-0.9856,0.12915,0.573,2.344,0.405
2026-06-09 16:40:31.193,2906770649,60193,2,-0.01831,-0.46313,-0.82446,0.687,1.573,-0.351
2026-06-09 16:40:31.393,2906770849,60393,1,0.01514,-0.98511,0.12646,0.687,2.427,0.443
2026-06-09 16:40:31.393,2906770849,60393,2,-0.01685,-0.45972,-0.81763,0.435,1.489,-0.328
2026-06-09 16:40:32.593,2906772049,60593,1,0.01196,-0.97729,0.12305,0.687,2.382,0.565
2026-06-09 16:40:32.593,2906772049,60593,2,-0.02075,-0.46362,-0.82178,0.58,1.611,-0.405
2026-06-09 16:40:32.793,2906772249,60793,1,0.01025,-0.97583,0.12622,0.565,2.298,0.557
2026-06-09 16:40:32.793,2906772249,60793,2,-0.01978,-0.46729,-0.81763,0.656,1.504,-0.313
2026-06-09 16:40:32.993,2906772449,60993,1,0.00854,-0.97534,0.11719,0.695,2.328,0.397
2026-06-09 16:40:32.993,2906772449,60993,2,-0.01929,-0.45776,-0.81543,0.611,1.527,-0.595
2026-06-09 16:40:32.193,2906771649,61193,1,0.01025,-0.98022,0.12646,0.443,2.473,0.664
2026-06-09 16:40:32.193,2906771649,61193,2,-0.01587,-0.46387,-0.823,0.466,1.534,-0.427
2026-06-09 16:40:32.393,2906771849,61393,1,0.01733,-0.98071,0.12769,0.397,2.267,0.519
2026-06-09 16:40:32.393,2906771849,61393,2,-0.01416,-0.46045,-0.81714,0.618,1.588,-0.252
2026-06-09 16:40:33.593,2906773049,61593,1,0.01294,-0.98242,0.12671,0.71,2.42,0.328
2026-06-09 16:40:33.593,2906773049,61593,2,-0.0166,-0.46118,-0.79834,0.565,1.687,-0.313
2026-06-09 16:40:33.793,2906773249,61793,1,0.01123,-0.97998,0.1272,0.382,2.153,0.443
2026-06-09 16:40:33.793,2906773249,61793,2,-0.01929,-0.46411,-0.82593,0.527,1.481,-0.565
2026-06-09 16:40:33.993,2906773449,61993,1,0.01147,-0.98291,0.11597,0.588,2.084,0.481
2026-06-09 16:40:33.993,2906773449,61993,2,-0.01758,-0.46704,-0.8186,0.565,1.618,-0.405
2026-06-09 16:40:33.193,2906772649,62193,1,0.01636,-0.97534,0.11938,0.473,2.229,0.557
2026-06-09 16:40:33.193,2906772649,62193,2,-0.01196,-0.46313,-0.823,0.656,1.473,-0.29
2026-06-09 16:40:33.393,2906772849,62393,1,0.01367,-0.98267,0.12256,0.489,2.382,0.565
2026-06-09 16:40:33.393,2906772849,62393,2,-0.02124,-0.46704,-0.81738,0.534,1.679,-0.481
2026-06-09 16:40:34.593,2906774049,62593,1,0.01074,-0.97363,0.12524,0.702,2.29,0.588
2026-06-09 16:40:34.593,2906774049,62593,2,-0.02026,-0.45972,-0.81616,0.603,1.481,-0.45
2026-06-09 16:40:34.793,2906774249,62793,1,0.01074,-0.97852,0.11621,0.45,2.397,0.435
2026-06-09 16:40:34.793,2906774249,62793,2,-0.0127,-0.46265,-0.8186,0.58,1.527,-0.466
2026-06-09 16:40:34.993,2906774449,62993,1,0.01245,-0.97705,0.12256,0.511,2.458,0.435
2026-06-09 16:40:34.993,2906774449,62993,2,-0.01611,-0.46655,-0.80688,0.504,1.481,-0.382
2026-06-09 16:40:34.193,2906773649,63193,1,0.01001,-0.97632,0.12939,0.55,2.221,0.405
2026-06-09 16:40:34.193,2906773649,63193,2,-0.01758,-0.46533,-0.82129,0.573,1.481,-0.313
2026-06-09 16:40:34.393,2906773849,63393,1,0.01807,-0.98145,0.11304,0.496,2.305,0.542
2026-06-09 16:40:34.393,2906773849,63393,2,-0.01685,-0.46362,-0.81665,0.649,1.496,-0.511
2026-06-09 16:40:35.593,2906775049,63593,1,0.00977,-0.97852,0.11865,0.504,2.397,0.366
2026-06-09 16:40:35.593,2906775049,63593,2,-0.01099,-0.46289,-0.80957,0.626,1.595,-0.336
2026-06-09 16:40:35.793,2906775249,63793,1,0.01221,-0.97241,0.11597,0.718,2.229,0.603
2026-06-09 16:40:35.793,2906775249,63793,2,-0.01807,-0.46338,-0.82495,0.603,1.679,-0.26
2026-06-09 16:40:35.993,2906775449,63993,1,0.01196,-0.97827,0.11011,0.595,2.313,0.496
2026-06-09 16:40:35.993,2906775449,63993,2,-0.02026,-0.45996,-0.82275,0.489,1.603,-0.344
2026-06-09 16:40:35.193,2906774649,64193,1,0.01465,-0.97144,0.12378,0.351,2.252,0.496
2026-06-09 16:40:35.193,2906774649,64193,2,-0.01416,-0.45874,-0.81714,0.58,1.634,-0.443
2026-06-09 16:40:35.393,2906774849,64393,1,0.01245,-0.97534,0.11328,0.656,2.45,0.618
2026-06-09 16:40:35.393,2906774849,64393,2,-0.02026,-0.46143,-0.81592,0.794,1.603,-0.382
2026-06-09 16:40:36.593,2906776049,64593,1,0.01392,-0.97437,0.12305,0.534,2.206,0.374
2026-06-09 16:40:36.593,2906776049,64593,2,-0.01782,-0.45801,-0.81543,0.618,1.603,-0.489
2026-06-09 16:40:36.793,2906776249,64793,1,0.01099,-0.97681,0.11987,0.527,2.336,0.473
2026-06-09 16:40:36.793,2906776249,64793,2,-0.01611,-0.46362,-0.81787,0.641,1.611,-0.519
2026-06-09 16:40:36.993,2906776449,64993,1,0.01221,-0.97583,0.12305,0.481,2.519,0.473
2026-06-09 16:40:36.993,2906776449,64993,2,-0.01392,-0.45996,-0.81982,0.618,1.481,-0.382
2026-06-09 16:40:36.193,2906775649,65193,1,0.01709,-0.97876,0.1189,0.573,2.374,0.55
2026-06-09 16:40:36.193,2906775649,65193,2,-0.01978,-0.45898,-0.81592,0.527,1.641,-0.389
2026-06-09 16:40:36.393,2906775849,65393,1,0.01514,-0.97754,0.11841,0.634,2.298,0.603
2026-06-09 16:40:36.393,2906775849,65393,2,-0.01782,-0.45923,-0.81592,0.855,1.656,-0.611
2026-06-09 16:40:37.593,2906777049,65593,1,0.01294,-0.97729,0.12183,0.519,2.397,0.756
2026-06-09 16:40:37.593,2906777049,65593,2,-0.01685,-0.46265,-0.81201,0.641,1.504,-0.496
2026-06-09 16:40:37.793,2906777249,65793,1,0.01343,-0.98193,0.11694,0.511,2.198,0.435
2026-06-09 16:40:37.793,2906777249,65793,2,-0.01563,-0.46387,-0.81372,0.595,1.496,-0.366
2026-06-09 16:40:37.993,2906777449,65993,1,0.01001,-0.97949,0.12329,0.42,2.374,0.351
2026-06-09 16:40:37.993,2906777449,65993,2,-0.0105,-0.46362,-0.81787,0.779,1.565,-0.504
2026-06-09 16:40:37.193,2906776649,66193,1,0.01245,-0.97412,0.12158,0.588,2.366,0.481
2026-06-09 16:40:37.193,2906776649,66193,2,-0.0166,-0.46094,-0.81836,0.55,1.557,-0.397
2026-06-09 16:40:37.393,2906776849,66393,1,0.01196,-0.97876,0.12329,0.794,2.305,0.771
2026-06-09 16:40:37.393,2906776849,66393,2,-0.02148,-0.46704,-0.80908,0.588,1.641,-0.382
2026-06-09 16:40:38.593,2906778049,66593,1,0.01538,-0.97949,0.12598,0.534,2.267,0.412
2026-06-09 16:40:38.593,2906778049,66593,2,-0.0127,-0.46045,-0.81152,0.603,1.611,-0.298
2026-06-09 16:40:38.844,2906778300,66844,1,0.01758,-0.98071,0.11792,0.687,2.458,0.55
2026-06-09 16:40:38.844,2906778300,66844,2,-0.01953,-0.46753,-0.82495,0.679,1.382,-0.397
2026-06-09 16:40:38.099,2906777555,67099,1,0.01514,-0.97705,0.11597,0.618,2.405,0.328
2026-06-09 16:40:38.099,2906777555,67099,2,-0.01489,-0.46484,-0.81177,0.733,1.473,-0.473
2026-06-09 16:40:38.299,2906777755,67299,1,0.0127,-0.97607,0.12378,0.611,2.244,0.481
2026-06-09 16:40:38.299,2906777755,67299,2,-0.01733,-0.4624,-0.81836,0.672,1.641,-0.496
2026-06-09 16:40:39.499,2906778955,67499,1,0.01733,-0.97681,0.12012,0.504,2.275,0.443
2026-06-09 16:40:39.499,2906778955,67499,2,-0.01514,-0.45703,-0.81348,0.481,1.634,-0.405
2026-06-09 16:40:39.699,2906779155,67699,1,0.0105,-0.97632,0.12085,0.634,2.214,0.344
2026-06-09 16:40:39.699,2906779155,67699,2,-0.01123,-0.46387,-0.81128,0.573,1.542,-0.359
2026-06-09 16:40:39.910,2906779366,67910,1,0.00928,-0.97827,0.12183,0.588,2.481,0.557
2026-06-09 16:40:39.910,2906779366,67910,2,-0.01831,-0.46118,-0.80737,0.756,1.565,-0.466
2026-06-09 16:40:39.110,2906778566,68110,1,0.00854,-0.97461,0.13086,0.74,2.29,0.55
2026-06-09 16:40:39.110,2906778566,68110,2,-0.01221,-0.45752,-0.81982,0.695,1.443,-0.435
2026-06-09 16:40:39.358,2906778814,68358,1,0.01611,-0.97559,0.12329,0.504,2.275,0.55
2026-06-09 16:40:39.358,2906778814,68358,2,-0.01733,-0.46143,-0.81519,0.595,1.542,-0.321
2026-06-09 16:40:40.558,2906780014,68558,1,0.00977,-0.98071,0.12793,0.527,2.137,0.611
2026-06-09 16:40:40.558,2906780014,68558,2,-0.01538,-0.46606,-0.81348,0.534,1.641,-0.405
2026-06-09 16:40:40.774,2906780230,68774,1,0.01611,-0.97925,0.12671,0.557,2.099,0.527
2026-06-09 16:40:40.774,2906780230,68774,2,-0.01855,-0.45703,-0.81323,0.695,1.565,-0.443
2026-06-09 16:40:40.974,2906780430,68974,1,0.0188,-0.97632,0.12354,0.702,2.473,0.473
2026-06-09 16:40:40.974,2906780430,68974,2,-0.01221,-0.46191,-0.82324,0.573,1.695,-0.45
2026-06-09 16:40:40.174,2906779630,69174,1,0.0105,-0.97656,0.12036,0.42,2.344,0.519
2026-06-09 16:40:40.174,2906779630,69174,2,-0.01733,-0.46338,-0.82056,0.687,1.519,-0.405
2026-06-09 16:40:40.374,2906779830,69374,1,0.01782,-0.98047,0.12549,0.55,2.344,0.481
2026-06-09 16:40:40.374,2906779830,69374,2,-0.01416,-0.45972,-0.82202,0.565,1.611,-0.443
2026-06-09 16:40:41.574,2906781030,69574,1,0.01074,-0.97827,0.12622,0.412,2.519,0.427
2026-06-09 16:40:41.574,2906781030,69574,2,-0.0188,-0.4646,-0.81982,0.794,1.634,-0.443
2026-06-09 16:40:41.811,2906781267,69811,1,0.0166,-0.97925,0.11719,0.55,2.351,0.458
2026-06-09 16:40:41.811,2906781267,69811,2,-0.01465,-0.46167,-0.81934,0.618,1.664,-0.435
2026-06-09 16:40:41.177,2906780633,70177,1,0.00781,-0.98145,0.12573,0.687,2.42,0.626
2026-06-09 16:40:41.177,2906780633,70177,2,-0.01709,-0.4646,-0.81763,0.45,1.489,-0.466
2026-06-09 16:40:41.380,2906780836,70380,1,0.01343,-0.97681,0.1311,0.748,2.298,0.573
2026-06-09 16:40:41.380,2906780836,70380,2,-0.0166,-0.46313,-0.81592,0.656,1.504,-0.443
2026-06-09 16:40:42.580,2906782036,70580,1,0.00732,-0.97534,0.11523,0.55,2.359,0.618
2026-06-09 16:40:42.580,2906782036,70580,2,-0.01733,-0.46289,-0.8252,0.557,1.634,-0.29
2026-06-09 16:40:42.864,2906782320,70864,1,0.01855,-0.97852,0.11499,0.679,2.344,0.649
2026-06-09 16:40:42.864,2906782320,70864,2,-0.01147,-0.46484,-0.81592,0.672,1.443,-0.427
2026-06-09 16:40:42.064,2906781520,71064,1,0.01221,-0.96924,0.12354,0.649,2.26,0.405
2026-06-09 16:40:42.064,2906781520,71064,2,-0.01587,-0.46387,-0.82617,0.58,1.626,-0.374
2026-06-09 16:40:42.264,2906781720,71264,1,0.00879,-0.97754,0.12158,0.656,2.099,0.573
2026-06-09 16:40:42.264,2906781720,71264,2,-0.01807,-0.46045,-0.8186,0.573,1.557,-0.45
2026-06-09 16:40:43.464,2906782920,71464,1,0.0105,-0.97217,0.13281,0.679,2.466,0.55
2026-06-09 16:40:43.464,2906782920,71464,2,-0.02026,-0.46387,-0.81348,0.618,1.695,-0.374
2026-06-09 16:40:43.664,2906783120,71664,1,0.01416,-0.97144,0.13379,0.557,2.26,0.427
2026-06-09 16:40:43.664,2906783120,71664,2,-0.01367,-0.45557,-0.83228,0.74,1.489,-0.496
2026-06-09 16:40:43.052,2906782508,72051,1,0.01147,-0.97998,0.12695,0.748,2.405,0.443
2026-06-09 16:40:43.052,2906782508,72051,2,-0.02319,-0.4646,-0.80884,0.542,1.809,-0.344
2026-06-09 16:40:43.284,2906782740,72284,1,0.00977,-0.97949,0.12036,0.695,2.198,0.534
2026-06-09 16:40:43.284,2906782740,72284,2,-0.01514,-0.46387,-0.82666,0.588,1.511,-0.344
2026-06-09 16:40:44.484,2906783940,72484,1,0.01392,-0.9812,0.12622,0.656,2.435,0.496
2026-06-09 16:40:44.484,2906783940,72484,2,-0.01978,-0.46313,-0.81641,0.473,1.71,-0.305
2026-06-09 16:40:44.684,2906784140,72684,1,0.0105,-0.97656,0.12207,0.412,2.229,0.359
2026-06-09 16:40:44.684,2906784140,72684,2,-0.02075,-0.46362,-0.81958,0.511,1.595,-0.58
2026-06-09 16:40:44.049,2906783505,73049,1,0.01392,-0.97925,0.12646,0.504,2.13,0.695
2026-06-09 16:40:44.049,2906783505,73049,2,-0.01636,-0.46558,-0.82227,0.565,1.344,-0.412
2026-06-09 16:40:44.260,2906783716,73260,1,0.01538,-0.97827,0.13477,0.641,2.435,0.481
2026-06-09 16:40:44.260,2906783716,73260,2,-0.01636,-0.46802,-0.81738,0.695,1.504,-0.511
2026-06-09 16:40:45.672,2906785128,73672,1,0.01538,-0.97168,0.11987,0.519,2.321,0.588
2026-06-09 16:40:45.672,2906785128,73672,2,-0.01758,-0.46021,-0.82202,0.519,1.374,-0.45
2026-06-09 16:40:45.967,2906785423,73966,1,0.01318,-0.98071,0.11938,0.672,2.366,0.756
2026-06-09 16:40:45.967,2906785423,73966,2,-0.01978,-0.4646,-0.81006,0.672,1.565,-0.397
2026-06-09 16:40:45.166,2906784622,74166,1,0.00854,-0.97705,0.11646,0.557,2.351,0.443
2026-06-09 16:40:45.166,2906784622,74166,2,-0.01514,-0.4646,-0.81152,0.603,1.649,-0.42
2026-06-09 16:40:45.366,2906784822,74366,1,0.0127,-0.97583,0.11792,0.603,2.473,0.634
2026-06-09 16:40:45.366,2906784822,74366,2,-0.021,-0.46338,-0.8186,0.634,1.634,-0.489
2026-06-09 16:40:46.566,2906786022,74566,1,0.01196,-0.97754,0.12793,0.45,2.275,0.626
2026-06-09 16:40:46.566,2906786022,74566,2,-0.01953,-0.45972,-0.8125,0.74,1.55,-0.443
2026-06-09 16:40:46.807,2906786263,74807,1,0.01343,-0.97754,0.12158,0.511,2.336,0.588
2026-06-09 16:40:46.807,2906786263,74807,2,-0.021,-0.45825,-0.82373,0.847,1.382,-0.412
2026-06-09 16:40:46.007,2906785463,75007,1,0.01221,-0.98218,0.12695,0.664,2.344,0.496
2026-06-09 16:40:46.007,2906785463,75007,2,-0.02075,-0.4624,-0.82031,0.763,1.672,-0.267
2026-06-09 16:40:46.207,2906785663,75207,1,0.01392,-0.97632,0.12158,0.573,2.427,0.542
2026-06-09 16:40:46.207,2906785663,75207,2,-0.01147,-0.4585,-0.81543,0.45,1.687,-0.466
2026-06-09 16:40:46.407,2906785863,75407,1,0.01514,-0.98462,0.12305,0.496,2.267,0.626
2026-06-09 16:40:46.407,2906785863,75407,2,-0.01514,-0.46533,-0.82349,0.588,1.374,-0.366
2026-06-09 16:40:47.607,2906787063,75607,1,0.01416,-0.97754,0.11841,0.511,2.183,0.519
2026-06-09 16:40:47.607,2906787063,75607,2,-0.01563,-0.46265,-0.81494,0.641,1.656,-0.252
2026-06-09 16:40:47.876,2906787332,75876,1,0.00977,-0.97852,0.12061,0.443,2.328,0.466
2026-06-09 16:40:47.876,2906787332,75876,2,-0.01587,-0.46191,-0.82422,0.573,1.466,-0.412
2026-06-09 16:40:47.125,2906786581,76125,1,0.01392,-0.97388,0.12695,0.489,2.336,0.481
2026-06-09 16:40:47.125,2906786581,76125,2,-0.01758,-0.46094,-0.81592,0.511,1.702,-0.366
2026-06-09 16:40:48.909,2906788365,76909,1,0.01318,-0.97754,0.13013,0.626,2.374,0.405
2026-06-09 16:40:48.909,2906788365,76909,2,-0.01489,-0.45728,-0.82422,0.595,1.679,-0.611
2026-06-09 16:40:48.279,2906787735,77279,1,0.01367,-0.97656,0.11938,0.611,2.466,0.496
2026-06-09 16:40:48.279,2906787735,77279,2,-0.01416,-0.46338,-0.8208,0.519,1.489,-0.435
2026-06-09 16:40:49.604,2906789060,77604,1,0.00757,-0.97461,0.12476,0.55,2.473,0.641
2026-06-09 16:40:49.604,2906789060,77604,2,-0.01392,-0.46362,-0.82275,0.588,1.611,-0.389
2026-06-09 16:40:49.007,2906788463,78007,1,0.01001,-0.98022,0.11987,0.519,2.313,0.534
2026-06-09 16:40:49.007,2906788463,78007,2,-0.02124,-0.45825,-0.8147,0.679,1.649,-0.328
2026-06-09 16:40:49.207,2906788663,78207,1,0.0144,-0.97778,0.11841,0.496,2.252,0.351
2026-06-09 16:40:49.207,2906788663,78207,2,-0.01489,-0.45898,-0.81763,0.679,1.588,-0.519
2026-06-09 16:40:52.203,2906791659,81202,1,0.00708,-0.97144,0.1123,0.573,2.183,0.626
2026-06-09 16:40:52.203,2906791659,81202,2,-0.02051,-0.45581,-0.82324,0.542,1.664,-0.481
2026-06-09 16:40:52.404,2906791860,81404,1,0.01611,-0.97705,0.12622,0.443,2.282,0.687
2026-06-09 16:40:52.404,2906791860,81404,2,-0.01758,-0.46631,-0.81348,0.565,1.603,-0.313
2026-06-09 16:40:53.083,2906792539,82082,1,0.01587,-0.97754,0.12402,0.504,2.366,0.519
2026-06-09 16:40:53.083,2906792539,82082,2,-0.01538,-0.46509,-0.82739,0.626,1.458,-0.344
2026-06-09 16:40:53.368,2906792824,82368,1,0.01245,-0.97363,0.125,0.534,2.206,0.389
2026-06-09 16:40:53.368,2906792824,82368,2,-0.01318,-0.46753,-0.82324,0.756,1.359,-0.466
2026-06-09 16:40:54.568,2906794024,82568,1,0.01733,-0.97729,0.1228,0.634,2.359,0.389
2026-06-09 16:40:54.568,2906794024,82568,2,-0.02148,-0.46558,-0.8252,0.664,1.588,-0.382
2026-06-09 16:40:54.808,2906794264,82808,1,0.01318,-0.97534,0.12378,0.718,2.466,0.443
2026-06-09 16:40:54.808,2906794264,82808,2,-0.01758,-0.46948,-0.82495,0.55,1.519,-0.45
2026-06-09 16:40:54.098,2906793554,83098,1,0.01343,-0.97754,0.12524,0.573,2.237,0.542
2026-06-09 16:40:54.098,2906793554,83098,2,-0.01514,-0.45874,-0.81738,0.809,1.595,-0.466
2026-06-09 16:40:54.298,2906793754,83298,1,0.01733,-0.97974,0.12036,0.427,2.466,0.519
2026-06-09 16:40:54.298,2906793754,83298,2,-0.02173,-0.46313,-0.82275,0.656,1.702,-0.466
2026-06-09 16:40:55.498,2906794954,83498,1,0.01318,-0.97925,0.12256,0.794,2.397,0.565
2026-06-09 16:40:55.498,2906794954,83498,2,-0.02173,-0.46313,-0.81641,0.595,1.542,-0.336
2026-06-09 16:40:55.698,2906795154,83698,1,0.00977,-0.97412,0.12524,0.534,2.29,0.275
2026-06-09 16:40:55.698,2906795154,83698,2,-0.02173,-0.46118,-0.81958,0.565,1.542,-0.473
2026-06-09 16:40:55.898,2906795354,83898,1,0.01074,-0.97925,0.12158,0.504,2.29,0.611
2026-06-09 16:40:55.898,2906795354,83898,2,-0.02124,-0.4668,-0.82446,0.443,1.519,-0.504
2026-06-09 16:40:55.098,2906794554,84098,1,0.0061,-0.97266,0.12476,0.626,2.374,0.336
2026-06-09 16:40:55.098,2906794554,84098,2,-0.01123,-0.4668,-0.81274,0.496,1.626,-0.366
2026-06-09 16:40:55.298,2906794754,84298,1,0.01465,-0.97754,0.12305,0.779,2.328,0.366
2026-06-09 16:40:55.298,2906794754,84298,2,-0.01538,-0.47021,-0.81445,0.397,1.58,-0.466
2026-06-09 16:40:56.498,2906795954,84498,1,0.01343,-0.97656,0.12817,0.664,2.366,0.328
2026-06-09 16:40:56.498,2906795954,84498,2,-0.01831,-0.46484,-0.81592,0.794,1.725,-0.466
2026-06-09 16:40:56.698,2906796154,84698,1,0.00977,-0.97632,0.13135,0.702,2.214,0.351
2026-06-09 16:40:56.698,2906796154,84698,2,-0.01318,-0.46655,-0.82471,0.733,1.626,-0.519
2026-06-09 16:40:56.898,2906796354,84898,1,0.00952,-0.97974,0.11597,0.725,2.412,0.626
2026-06-09 16:40:56.898,2906796354,84898,2,-0.02246,-0.45923,-0.81494,0.634,1.649,-0.55
2026-06-09 16:40:56.098,2906795554,85098,1,0.0188,-0.97314,0.1272,0.489,2.443,0.473
2026-06-09 16:40:56.098,2906795554,85098,2,-0.01831,-0.4646,-0.82544,0.664,1.733,-0.542
2026-06-09 16:40:56.298,2906795754,85298,1,0.00977,-0.98291,0.12549,0.45,2.29,0.573
2026-06-09 16:40:56.298,2906795754,85298,2,-0.01221,-0.45532,-0.81543,0.542,1.412,-0.473
2026-06-09 16:40:57.498,2906796954,85498,1,0.01172,-0.97876,0.12598,0.695,2.26,0.389
2026-06-09 16:40:57.498,2906796954,85498,2,-0.01587,-0.46045,-0.81787,0.748,1.412,-0.244
2026-06-09 16:40:57.698,2906797154,85698,1,0.01123,-0.97607,0.11719,0.672,2.252,0.435
2026-06-09 16:40:57.698,2906797154,85698,2,-0.01807,-0.46338,-0.81665,0.519,1.359,-0.389
2026-06-09 16:40:57.898,2906797354,85898,1,0.00684,-0.98145,0.11597,0.74,2.328,0.328
2026-06-09 16:40:57.898,2906797354,85898,2,-0.01587,-0.45508,-0.82324,0.565,1.595,-0.389
2026-06-09 16:40:57.098,2906796554,86098,1,0.01758,-0.97363,0.12305,0.679,2.26,0.58
2026-06-09 16:40:57.098,2906796554,86098,2,-0.01563,-0.46411,-0.81128,0.786,1.573,-0.45
2026-06-09 16:40:57.298,2906796754,86298,1,0.01611,-0.97852,0.12183,0.405,2.275,0.519
2026-06-09 16:40:57.298,2906796754,86298,2,-0.01636,-0.45654,-0.82031,0.595,1.55,-0.412
2026-06-09 16:40:58.498,2906797954,86498,1,0.01514,-0.98291,0.12061,0.595,2.282,0.382
2026-06-09 16:40:58.498,2906797954,86498,2,-0.01782,-0.46338,-0.81689,0.473,1.664,-0.473
2026-06-09 16:40:58.698,2906798154,86698,1,0.01758,-0.9751,0.12964,0.534,2.527,0.496
2026-06-09 16:40:58.698,2906798154,86698,2,-0.01465,-0.46313,-0.82129,0.649,1.603,-0.183
2026-06-09 16:40:58.898,2906798354,86898,1,0.00903,-0.97485,0.12598,0.611,2.382,0.427
2026-06-09 16:40:58.898,2906798354,86898,2,-0.01367,-0.45923,-0.82471,0.611,1.504,-0.351
2026-06-09 16:40:58.098,2906797554,87098,1,0.01245,-0.9834,0.11963,0.626,2.45,0.458
2026-06-09 16:40:58.098,2906797554,87098,2,-0.01978,-0.46411,-0.81348,0.687,1.74,-0.336
2026-06-09 16:40:58.298,2906797754,87298,1,0.0105,-0.98096,0.12036,0.443,2.405,0.565
2026-06-09 16:40:58.298,2906797754,87298,2,-0.0188,-0.45483,-0.81421,0.519,1.557,-0.366
2026-06-09 16:40:59.498,2906798954,87498,1,0.01196,-0.98047,0.12061,0.489,2.206,0.26
2026-06-09 16:40:59.498,2906798954,87498,2,-0.0127,-0.45557,-0.81567,0.786,1.611,-0.534
2026-06-09 16:40:59.698,2906799154,87698,1,0.01514,-0.98218,0.12158,0.664,2.115,0.427
2026-06-09 16:40:59.698,2906799154,87698,2,-0.01733,-0.46094,-0.81665,0.733,1.58,-0.427
2026-06-09 16:40:59.698,2906799154,87698,2,-0.01733,-0.46094,-0.81665,0.733,1.58,-0.427
2026-06-09 16:41:07.905,2906807361,95905,1,0.01245,-0.9751,0.12158,0.649,2.466,0.588
2026-06-09 16:41:07.905,2906807361,95905,2,-0.01636,-0.46558,-0.81494,0.649,1.641,-0.397
2026-06-09 16:41:07.105,2906806561,96105,1,0.01465,-0.97485,0.12744,0.626,2.389,0.611
2026-06-09 16:41:07.105,2906806561,96105,2,-0.00903,-0.46313,-0.82178,0.656,1.603,-0.359
2026-06-09 16:41:07.305,2906806761,96305,1,0.00781,-0.97754,0.11255,0.527,2.275,0.389
2026-06-09 16:41:07.305,2906806761,96305,2,-0.01709,-0.46851,-0.81323,0.618,1.534,-0.565
2026-06-09 16:41:08.505,2906807961,96505,1,0.01099,-0.97485,0.12134,0.611,2.237,0.496
2026-06-09 16:41:08.505,2906807961,96505,2,-0.01709,-0.46045,-0.82056,0.511,1.542,-0.374
2026-06-09 16:41:08.705,2906808161,96705,1,0.00317,-0.97925,0.125,0.626,2.198,0.504
2026-06-09 16:41:08.705,2906808161,96705,2,-0.02051,-0.46167,-0.81812,0.748,1.634,-0.527
2026-06-09 16:41:08.905,2906808361,96905,1,0.01709,-0.98096,0.12866,0.534,2.359,0.534
2026-06-09 16:41:08.905,2906808361,96905,2,-0.01074,-0.46582,-0.81592,0.534,1.649,-0.382
2026-06-09 16:41:08.105,2906807561,97105,1,0.01196,-0.9707,0.12305,0.466,2.214,0.359
2026-06-09 16:41:08.105,2906807561,97105,2,-0.00928,-0.47144,-0.82031,0.519,1.672,-0.382
2026-06-09 16:41:08.305,2906807761,97305,1,0.00952,-0.97534,0.12085,0.695,2.374,0.435
2026-06-09 16:41:08.305,2906807761,97305,2,-0.01709,-0.46533,-0.81836,0.679,1.534,-0.298
2026-06-09 16:41:09.505,2906808961,97505,1,0.01196,-0.97729,0.12817,0.473,2.214,0.565
2026-06-09 16:41:09.505,2906808961,97505,2,-0.02075,-0.46558,-0.82251,0.672,1.687,-0.405
2026-06-09 16:41:09.705,2906809161,97705,1,0.01685,-0.97656,0.12329,0.786,2.206,0.489
2026-06-09 16:41:09.705,2906809161,97705,2,-0.01929,-0.46411,-0.82495,0.565,1.695,-0.313
2026-06-09 16:41:09.926,2906809382,97926,1,0.01074,-0.98071,0.12988,0.672,2.282,0.542
2026-06-09 16:41:09.926,2906809382,97926,1,0.01074,-0.98071,0.12988,0.672,2.282,0.542
2026-06-09 16:41:09.926,2906809382,97926,2,-0.02002,-0.46118,-0.80908,0.565,1.634,-0.366
2026-06-09 16:41:14.124,2906813580,103124,1,0.00903,-0.97949,0.12036,0.504,2.16,0.466
2026-06-09 16:41:14.124,2906813580,103124,2,-0.02222,-0.45801,-0.81396,0.71,1.649,-0.282
2026-06-09 16:41:14.324,2906813780,103324,1,0.01001,-0.9707,0.11938,0.29,2.573,0.634
2026-06-09 16:41:14.324,2906813780,103324,2,-0.01636,-0.45581,-0.81177,0.336,1.389,-0.58
2026-06-09 16:41:15.524,2906814980,103524,1,0.01343,-0.97949,0.12207,0.504,2.191,0.435
2026-06-09 16:41:15.524,2906814980,103524,2,-0.01685,-0.46362,-0.82251,0.695,1.794,-0.382
2026-06-09 16:41:15.724,2906815180,103724,1,0.01172,-0.97192,0.10889,0.733,2.229,0.458
2026-06-09 16:41:15.724,2906815180,103724,2,-0.01636,-0.46265,-0.82446,0.405,1.519,-0.443
2026-06-09 16:41:15.930,2906815386,103929,1,0.00879,-0.97534,0.12695,0.412,2.206,0.588
2026-06-09 16:41:15.930,2906815386,103929,2,-0.02173,-0.46021,-0.82227,0.718,1.573,-0.489
2026-06-09 16:41:15.129,2906814585,104129,1,0.00806,-0.97656,0.12354,0.626,2.458,0.611
2026-06-09 16:41:15.129,2906814585,104129,2,-0.01245,-0.46118,-0.81543,0.771,1.786,-0.466
2026-06-09 16:41:15.329,2906814785,104329,1,0.01172,-0.97827,0.12378,0.511,2.16,0.527
2026-06-09 16:41:15.329,2906814785,104329,2,-0.02026,-0.46606,-0.81592,0.626,1.595,-0.527
2026-06-09 16:41:15.329,2906814785,104329,2,-0.02026,-0.46606,-0.81592,0.626,1.595,-0.527
2026-06-09 16:41:21.515,2906820971,109515,1,0.00806,-0.979,0.12378,0.458,2.344,0.496
2026-06-09 16:41:21.515,2906820971,109515,2,-0.01563,-0.45728,-0.82544,0.733,1.672,-0.458
2026-06-09 16:41:21.515,2906820971,109515,2,-0.01563,-0.45728,-0.82544,0.733,1.672,-0.458
2026-06-09 16:41:26.821,2906826277,114821,1,0.01904,-0.94897,0.1123,0.534,2.779,0.603
2026-06-09 16:41:26.821,2906826277,114821,2,-0.02051,-0.46313,-0.81689,0.634,1.557,-0.519
2026-06-09 16:41:29.664,2906829120,117664,1,0.0144,-0.97363,0.12207,0.595,2.244,0.557
2026-06-09 16:41:29.664,2906829120,117664,2,-0.02026,-0.46558,-0.82422,0.634,1.595,-0.397
2026-06-09 16:41:29.864,2906829320,117864,1,0.01929,-0.97412,0.11133,0.672,2.382,0.618
2026-06-09 16:41:29.864,2906829320,117864,2,-0.02295,-0.46704,-0.83057,0.573,1.656,-0.313
2026-06-09 16:41:29.064,2906828520,118064,1,0.0127,-0.97534,0.11719,0.618,2.267,0.542
2026-06-09 16:41:29.064,2906828520,118064,2,-0.01074,-0.46484,-0.80859,0.718,1.504,-0.374
2026-06-09 16:41:29.264,2906828720,118264,1,0.01489,-0.97754,0.13257,0.649,2.359,0.481
2026-06-09 16:41:29.264,2906828720,118264,2,-0.01001,-0.46436,-0.82471,0.427,1.45,-0.344
2026-06-09 16:41:30.496,2906829952,118496,1,0.01929,-0.97461,0.1311,0.519,2.244,0.527
2026-06-09 16:41:30.496,2906829952,118496,2,-0.02124,-0.46558,-0.81152,0.634,1.58,-0.397
2026-06-09 16:41:32.337,2906831793,121337,1,0.01807,-0.98022,0.12817,0.672,2.275,0.389
2026-06-09 16:41:32.337,2906831793,121337,2,-0.0188,-0.47046,-0.81836,0.626,1.656,-0.519
2026-06-09 16:41:33.537,2906832993,121537,1,0.01392,-0.97583,0.12134,0.504,2.534,0.618
2026-06-09 16:41:33.537,2906832993,121537,2,-0.01782,-0.46362,-0.81348,0.611,1.42,-0.481
2026-06-09 16:41:33.737,2906833193,121737,1,0.00781,-0.97485,0.12427,0.641,2.45,0.679
2026-06-09 16:41:33.737,2906833193,121737,2,-0.01929,-0.46338,-0.81274,0.679,1.458,-0.466
2026-06-09 16:41:33.937,2906833393,121937,1,0.01294,-0.979,0.11572,0.466,2.183,0.45
2026-06-09 16:41:33.937,2906833393,121937,2,-0.01904,-0.46143,-0.81958,0.504,1.71,-0.481
2026-06-09 16:41:33.137,2906832593,122137,1,0.01025,-0.97681,0.11792,0.702,2.252,0.511
2026-06-09 16:41:33.137,2906832593,122137,2,-0.0166,-0.46704,-0.81494,0.603,1.557,-0.298
2026-06-09 16:41:33.337,2906832793,122337,1,0.0083,-0.98267,0.11865,0.618,2.427,0.435
2026-06-09 16:41:33.337,2906832793,122337,2,-0.01855,-0.45972,-0.82129,0.573,1.656,-0.382
2026-06-09 16:41:34.537,2906833993,122537,1,0.01367,-0.97754,0.12329,0.557,2.389,0.336
2026-06-09 16:41:34.537,2906833993,122537,2,-0.01587,-0.45947,-0.82251,0.626,1.519,-0.359
2026-06-09 16:41:34.737,2906834193,122737,1,0.01172,-0.97583,0.12305,0.55,2.084,0.389
2026-06-09 16:41:34.737,2906834193,122737,2,-0.01904,-0.46777,-0.81372,0.534,1.611,-0.237
2026-06-09 16:41:34.937,2906834393,122937,1,0.01172,-0.97974,0.12964,0.679,2.29,0.336
2026-06-09 16:41:34.937,2906834393,122937,2,-0.01318,-0.46167,-0.81885,0.542,1.466,-0.443
2026-06-09 16:41:34.137,2906833593,123137,1,0.00635,-0.98022,0.12085,0.786,2.458,0.542
2026-06-09 16:41:34.137,2906833593,123137,2,-0.01392,-0.45776,-0.823,0.824,1.565,-0.397
2026-06-09 16:41:34.337,2906833793,123337,1,0.01074,-0.979,0.12476,0.611,2.366,0.42
2026-06-09 16:41:34.337,2906833793,123337,2,-0.02368,-0.45679,-0.81641,0.664,1.634,-0.466
2026-06-09 16:41:35.537,2906834993,123537,1,0.01245,-0.97778,0.12134,0.42,2.229,0.595
2026-06-09 16:41:35.537,2906834993,123537,2,-0.02173,-0.46411,-0.82227,0.611,1.511,-0.405
2026-06-09 16:41:35.737,2906835193,123737,1,0.01465,-0.9834,0.12427,0.603,2.305,0.634
2026-06-09 16:41:35.737,2906835193,123737,2,-0.0188,-0.46582,-0.81396,0.542,1.641,-0.412
2026-06-09 16:41:35.937,2906835393,123937,1,0.01294,-0.97876,0.12378,0.618,2.237,0.519
2026-06-09 16:41:35.937,2906835393,123937,2,-0.01221,-0.46191,-0.81543,0.786,1.771,-0.511
2026-06-09 16:41:35.137,2906834593,124137,1,0.01172,-0.97632,0.11865,0.527,2.26,0.427
2026-06-09 16:41:35.137,2906834593,124137,2,-0.01953,-0.46118,-0.81201,0.679,1.718,-0.511
2026-06-09 16:41:35.337,2906834793,124337,1,0.0144,-0.97925,0.1189,0.664,2.336,0.565
2026-06-09 16:41:35.337,2906834793,124337,2,-0.01929,-0.46167,-0.81543,0.573,1.534,-0.672
2026-06-09 16:41:36.537,2906835993,124537,1,0.01807,-0.97363,0.11719,0.557,2.374,0.489
2026-06-09 16:41:36.537,2906835993,124537,2,-0.02173,-0.45728,-0.8313,0.679,1.55,-0.519
2026-06-09 16:41:36.737,2906836193,124737,1,0.0166,-0.98267,0.12451,0.573,2.458,0.557
2026-06-09 16:41:36.737,2906836193,124737,2,-0.0188,-0.46021,-0.82617,0.511,1.649,-0.359
2026-06-09 16:41:36.937,2906836393,124937,1,0.01221,-0.97632,0.12817,0.489,2.198,0.672
2026-06-09 16:41:36.937,2906836393,124937,2,-0.02124,-0.46289,-0.81958,0.473,1.573,-0.481
2026-06-09 16:41:36.137,2906835593,125137,1,0.01025,-0.97827,0.12305,0.504,2.29,0.534
2026-06-09 16:41:36.137,2906835593,125137,2,-0.01978,-0.46362,-0.81836,0.45,1.641,-0.359
2026-06-09 16:41:36.337,2906835793,125337,1,0.01392,-0.97925,0.12378,0.565,2.053,0.634
2026-06-09 16:41:36.337,2906835793,125337,2,-0.021,-0.46362,-0.8103,0.618,1.649,-0.435
2026-06-09 16:41:37.537,2906836993,125537,1,0.01172,-0.96777,0.12085,0.42,2.305,0.344
2026-06-09 16:41:37.537,2906836993,125537,2,-0.02637,-0.46655,-0.81592,0.527,1.595,-0.405
2026-06-09 16:41:37.737,2906837193,125737,1,0.00708,-0.97583,0.11499,0.489,2.489,0.656
2026-06-09 16:41:37.737,2906837193,125737,2,-0.02051,-0.46436,-0.81177,0.55,1.489,-0.382
2026-06-09 16:41:37.937,2906837393,125937,1,0.0105,-0.97998,0.11353,0.588,2.26,0.344
2026-06-09 16:41:37.937,2906837393,125937,2,-0.01709,-0.46729,-0.81738,0.779,1.672,-0.275
2026-06-09 16:41:37.137,2906836593,126137,1,0.01196,-0.97681,0.11499,0.588,2.382,0.397
2026-06-09 16:41:37.137,2906836593,126137,2,-0.01733,-0.46265,-0.81177,0.74,1.672,-0.527
2026-06-09 16:41:37.337,2906836793,126337,1,0.00854,-0.98047,0.12695,0.603,2.405,0.443
2026-06-09 16:41:37.337,2906836793,126337,2,-0.0166,-0.46118,-0.82324,0.496,1.496,-0.573
2026-06-09 16:41:38.537,2906837993,126537,1,0.00854,-0.98071,0.12036,0.588,2.344,0.45
2026-06-09 16:41:38.537,2906837993,126537,2,-0.01172,-0.4585,-0.81763,0.542,1.641,-0.305
2026-06-09 16:41:38.737,2906838193,126737,1,0.01587,-0.97656,0.11621,0.473,2.26,0.489
2026-06-09 16:41:38.737,2906838193,126737,2,-0.02002,-0.46069,-0.81763,0.702,1.695,-0.42
2026-06-09 16:41:38.937,2906838393,126937,1,0.01489,-0.979,0.1311,0.588,2.16,0.679
2026-06-09 16:41:38.937,2906838393,126937,2,-0.01587,-0.4668,-0.82227,0.687,1.443,-0.313
2026-06-09 16:41:38.137,2906837593,127137,1,0.00903,-0.97803,0.12427,0.542,2.198,0.305
2026-06-09 16:41:38.137,2906837593,127137,2,-0.02344,-0.46338,-0.82788,0.634,1.489,-0.443
2026-06-09 16:41:38.337,2906837793,127337,1,0.01733,-0.97925,0.11548,0.542,2.29,0.603
2026-06-09 16:41:38.337,2906837793,127337,2,-0.01196,-0.46313,-0.82373,0.511,1.641,-0.313
2026-06-09 16:41:39.537,2906838993,127537,1,0.00977,-0.9729,0.12354,0.618,2.214,0.534
2026-06-09 16:41:39.537,2906838993,127537,2,-0.0188,-0.45923,-0.823,0.779,1.817,-0.344
2026-06-09 16:41:39.737,2906839193,127737,1,0.01489,-0.98047,0.1189,0.527,2.29,0.466
2026-06-09 16:41:39.737,2906839193,127737,2,-0.0188,-0.4668,-0.82007,0.489,1.595,-0.313
2026-06-09 16:41:39.937,2906839393,127937,1,0.01196,-0.97412,0.12744,0.748,2.252,0.473
2026-06-09 16:41:39.937,2906839393,127937,2,-0.01367,-0.46606,-0.81421,0.71,1.58,-0.389
2026-06-09 16:41:39.137,2906838593,128137,1,0.01245,-0.97168,0.12695,0.557,2.359,0.573
2026-06-09 16:41:39.137,2906838593,128137,2,-0.01709,-0.46729,-0.80542,0.565,1.519,-0.412
2026-06-09 16:41:39.337,2906838793,128337,1,0.01611,-0.97559,0.12573,0.649,2.244,0.519
2026-06-09 16:41:39.337,2906838793,128337,2,-0.0127,-0.46387,-0.81543,0.573,1.603,-0.374
2026-06-09 16:41:40.537,2906839993,128537,1,0.01563,-0.97388,0.11816,0.389,2.435,0.496
2026-06-09 16:41:40.537,2906839993,128537,1,0.01563,-0.97388,0.11816,0.389,2.435,0.496
2026-06-09 16:41:40.537,2906839993,128537,2,-0.02319,-0.46265,-0.8186,0.527,1.527,-0.527
2026-06-09 16:41:45.144,2906844600,134144,1,0.01025,-0.97681,0.12549,0.702,2.298,0.656
2026-06-09 16:41:45.144,2906844600,134144,2,-0.01685,-0.4624,-0.8147,0.458,1.779,-0.382
2026-06-09 16:41:45.344,2906844800,134344,1,0.0105,-0.979,0.11401,0.656,2.305,0.71
2026-06-09 16:41:45.344,2906844800,134344,2,-0.01245,-0.45947,-0.82129,0.511,1.565,-0.374
2026-06-09 16:41:46.544,2906846000,134544,1,0.00952,-0.98633,0.12109,0.42,2.389,0.458
2026-06-09 16:41:46.544,2906846000,134544,2,-0.01489,-0.46558,-0.81738,0.489,1.55,-0.405
2026-06-09 16:41:46.744,2906846200,134744,1,0.0127,-0.97681,0.11768,0.618,2.557,0.527
2026-06-09 16:41:46.744,2906846200,134744,2,-0.01782,-0.46216,-0.8208,0.58,1.443,-0.504
2026-06-09 16:41:46.944,2906846400,134944,1,0.01367,-0.97485,0.12622,0.534,2.573,0.588
2026-06-09 16:41:46.944,2906846400,134944,2,-0.0188,-0.46411,-0.81396,0.427,1.618,-0.489
2026-06-09 16:41:46.144,2906845600,135144,1,0.01294,-0.98193,0.11792,0.634,2.374,0.496
2026-06-09 16:41:46.144,2906845600,135144,2,-0.01782,-0.46411,-0.82495,0.511,1.534,-0.344
2026-06-09 16:41:46.344,2906845800,135344,1,0.01245,-0.9751,0.12427,0.679,2.366,0.405
2026-06-09 16:41:46.344,2906845800,135344,2,-0.01563,-0.46143,-0.82104,0.511,1.672,-0.443
2026-06-09 16:41:47.544,2906847000,135544,1,0.00952,-0.97974,0.12549,0.649,2.336,0.473
2026-06-09 16:41:47.544,2906847000,135544,2,-0.01709,-0.45996,-0.81738,0.55,1.489,-0.321
2026-06-09 16:41:47.744,2906847200,135744,1,0.01318,-0.97729,0.12256,0.672,2.374,0.527
2026-06-09 16:41:47.744,2906847200,135744,2,-0.02271,-0.45972,-0.81812,0.534,1.687,-0.527
2026-06-09 16:41:47.944,2906847400,135944,1,0.0127,-0.97095,0.11182,0.557,2.198,0.405
2026-06-09 16:41:47.944,2906847400,135944,2,-0.01904,-0.46509,-0.82349,0.74,1.664,-0.305
2026-06-09 16:41:47.144,2906846600,136144,1,0.01025,-0.98022,0.11328,0.626,2.42,0.542
2026-06-09 16:41:47.144,2906846600,136144,2,-0.01343,-0.46167,-0.82739,0.542,1.55,-0.282
2026-06-09 16:41:47.344,2906846800,136344,1,0.01367,-0.97144,0.12476,0.496,2.252,0.511
2026-06-09 16:41:47.344,2906846800,136344,2,-0.01465,-0.46875,-0.81543,0.42,1.618,-0.496
2026-06-09 16:41:48.544,2906848000,136544,1,0.0105,-0.97559,0.12061,0.496,2.221,0.542
2026-06-09 16:41:48.544,2906848000,136544,2,-0.01855,-0.46094,-0.81934,0.557,1.611,-0.473
2026-06-09 16:41:48.744,2906848200,136744,1,0.00586,-0.97705,0.11206,0.679,2.298,0.595
2026-06-09 16:41:48.744,2906848200,136744,2,-0.01685,-0.45996,-0.81714,0.519,1.687,-0.481
2026-06-09 16:41:48.744,2906848200,136744,2,-0.01685,-0.45996,-0.81714,0.519,1.687,-0.481
2026-06-09 16:41:53.911,2906853367,141911,1,0.0127,-0.97559,0.11572,0.29,2.443,0.527
2026-06-09 16:41:53.911,2906853367,141911,2,-0.01318,-0.46094,-0.81396,0.809,1.55,-0.359
2026-06-09 16:41:53.111,2906852567,142111,1,0.01489,-0.98193,0.11938,0.656,2.275,0.534
2026-06-09 16:41:53.111,2906852567,142111,2,-0.01489,-0.46289,-0.81421,0.656,1.542,-0.481
2026-06-09 16:41:53.311,2906852767,142311,1,0.01367,-0.97632,0.11719,0.42,2.267,0.504
2026-06-09 16:41:53.311,2906852767,142311,2,-0.01831,-0.45752,-0.81152,0.542,1.542,-0.435
2026-06-09 16:41:54.511,2906853967,142511,1,0.01025,-0.97632,0.11914,0.695,2.351,0.397
2026-06-09 16:41:54.511,2906853967,142511,2,-0.01953,-0.46094,-0.81689,0.588,1.382,-0.534
2026-06-09 16:41:54.511,2906853967,142511,2,-0.01953,-0.46094,-0.81689,0.588,1.382,-0.534
2026-06-09 16:42:04.663,2906864119,152663,1,0.01563,-0.979,0.11572,0.641,2.389,0.595
2026-06-09 16:42:04.663,2906864119,152663,2,-0.02319,-0.46191,-0.81226,0.718,1.626,-0.458
2026-06-09 16:42:04.663,2906864119,152663,2,-0.02319,-0.46191,-0.81226,0.718,1.626,-0.458
2026-06-09 16:42:09.984,2906869440,157984,1,0.01147,-0.97559,0.11914,0.634,2.198,0.649
2026-06-09 16:42:09.984,2906869440,157984,2,-0.01929,-0.46313,-0.82007,0.489,1.588,-0.427
2026-06-09 16:42:09.184,2906868640,158184,1,0.00952,-0.98145,0.12305,0.405,2.313,0.557
2026-06-09 16:42:09.184,2906868640,158184,2,-0.01489,-0.46045,-0.80762,0.565,1.573,-0.427
2026-06-09 16:42:09.384,2906868840,158384,1,0.01318,-0.97949,0.12012,0.534,2.389,0.55
2026-06-09 16:42:09.384,2906868840,158384,2,-0.01831,-0.46167,-0.81909,0.71,1.733,-0.374
2026-06-09 16:42:10.584,2906870040,158584,1,0.01489,-0.97559,0.12158,0.527,2.191,0.679
2026-06-09 16:42:10.584,2906870040,158584,2,-0.01831,-0.46143,-0.8186,0.664,1.687,-0.397
2026-06-09 16:42:10.784,2906870240,158784,1,0.0127,-0.97998,0.12061,0.542,2.405,0.519
2026-06-09 16:42:10.784,2906870240,158784,2,-0.01636,-0.4646,-0.82471,0.588,1.542,-0.397
2026-06-09 16:42:10.984,2906870440,158984,1,0.0127,-0.97949,0.1167,0.656,2.466,0.679
2026-06-09 16:42:10.984,2906870440,158984,2,-0.0188,-0.46753,-0.81763,0.618,1.71,-0.298
2026-06-09 16:42:10.184,2906869640,159184,1,0.01367,-0.97388,0.12476,0.634,2.382,0.603
2026-06-09 16:42:10.184,2906869640,159184,2,-0.01978,-0.46509,-0.82593,0.611,1.74,-0.466
2026-06-09 16:42:10.384,2906869840,159384,1,0.01416,-0.97412,0.12109,0.771,2.328,0.45
2026-06-09 16:42:10.384,2906869840,159384,2,-0.0127,-0.46973,-0.81763,0.45,1.58,-0.466
2026-06-09 16:42:11.584,2906871040,159584,1,0.01416,-0.97705,0.11816,0.351,2.275,0.466
2026-06-09 16:42:11.584,2906871040,159584,2,-0.01904,-0.46338,-0.81226,0.58,1.718,-0.443
2026-06-09 16:42:11.784,2906871240,159784,1,0.00977,-0.97925,0.12427,0.649,2.16,0.405
2026-06-09 16:42:11.784,2906871240,159784,2,-0.01367,-0.46191,-0.81396,0.733,1.634,-0.344
2026-06-09 16:42:11.984,2906871440,159984,1,0.01318,-0.97461,0.11792,0.695,2.382,0.435
2026-06-09 16:42:11.984,2906871440,159984,2,-0.01978,-0.46289,-0.80444,0.679,1.565,-0.389
2026-06-09 16:42:11.184,2906870640,160184,1,0.01685,-0.97363,0.12451,0.305,2.183,0.389
2026-06-09 16:42:11.184,2906870640,160184,2,-0.0188,-0.46875,-0.82227,0.542,1.695,-0.336
2026-06-09 16:42:11.384,2906870840,160384,1,0.01318,-0.97998,0.1106,0.817,2.374,0.473
2026-06-09 16:42:11.384,2906870840,160384,2,-0.01685,-0.4668,-0.81299,0.573,1.504,-0.45
2026-06-09 16:42:12.584,2906872040,160584,1,0.01123,-0.97998,0.12231,0.473,2.282,0.351
2026-06-09 16:42:12.584,2906872040,160584,2,-0.01392,-0.46729,-0.82178,0.786,1.641,-0.435
2026-06-09 16:42:12.784,2906872240,160784,1,0.01245,-0.97925,0.11719,0.595,2.168,0.466
2026-06-09 16:42:12.784,2906872240,160784,2,-0.01855,-0.46094,-0.82568,0.435,1.603,-0.412
2026-06-09 16:42:12.984,2906872440,160984,1,0.01392,-0.97559,0.11646,0.588,2.351,0.565
2026-06-09 16:42:12.984,2906872440,160984,2,-0.01563,-0.46484,-0.81055,0.695,1.382,-0.237
2026-06-09 16:42:12.184,2906871640,161184,1,0.01172,-0.9812,0.12671,0.565,2.031,0.626
2026-06-09 16:42:12.184,2906871640,161184,2,-0.01465,-0.46851,-0.823,0.443,1.618,-0.481
2026-06-09 16:42:12.384,2906871840,161384,1,0.01636,-0.98511,0.12646,0.679,2.115,0.496
2026-06-09 16:42:12.384,2906871840,161384,2,-0.01904,-0.45898,-0.82349,0.496,1.534,-0.374
2026-06-09 16:42:13.584,2906873040,161584,1,0.01733,-0.97949,0.12549,0.603,2.336,0.573
2026-06-09 16:42:13.584,2906873040,161584,2,-0.01221,-0.46021,-0.82056,0.481,1.466,-0.359
2026-06-09 16:42:13.784,2906873240,161784,1,0.00757,-0.98071,0.12329,0.672,2.374,0.557
2026-06-09 16:42:13.784,2906873240,161784,2,-0.02026,-0.46655,-0.81909,0.473,1.71,-0.382
2026-06-09 16:42:13.984,2906873440,161984,1,0.01074,-0.97803,0.12231,0.359,2.237,0.626
2026-06-09 16:42:13.984,2906873440,161984,2,-0.02197,-0.46265,-0.82056,0.557,1.534,-0.405
2026-06-09 16:42:13.184,2906872640,162184,1,0.01147,-0.97266,0.12866,0.939,2.427,0.511
2026-06-09 16:42:13.184,2906872640,162184,2,-0.01929,-0.46436,-0.82227,0.618,1.611,-0.282
2026-06-09 16:42:13.384,2906872840,162384,1,0.01587,-0.97949,0.12256,0.443,2.16,0.527
2026-06-09 16:42:13.384,2906872840,162384,2,-0.01416,-0.46606,-0.80542,0.748,1.649,-0.466
2026-06-09 16:42:14.584,2906874040,162584,1,0.01489,-0.98267,0.12402,0.466,2.443,0.466
2026-06-09 16:42:14.584,2906874040,162584,2,-0.01855,-0.46509,-0.81836,0.557,1.427,-0.481
2026-06-09 16:42:14.784,2906874240,162784,1,0.01392,-0.97705,0.12622,0.855,2.313,0.527
2026-06-09 16:42:14.784,2906874240,162784,2,-0.01953,-0.4668,-0.81616,0.466,1.489,-0.366
2026-06-09 16:42:14.984,2906874440,162984,1,0.01123,-0.98413,0.12207,0.557,2.313,0.359
2026-06-09 16:42:14.984,2906874440,162984,2,-0.01733,-0.46631,-0.81787,0.55,1.595,-0.473
2026-06-09 16:42:14.184,2906873640,163184,1,0.01611,-0.97778,0.10938,0.603,2.267,0.603
2026-06-09 16:42:14.184,2906873640,163184,2,-0.02051,-0.45679,-0.81421,0.55,1.466,-0.374
2026-06-09 16:42:14.384,2906873840,163384,1,0.01489,-0.97583,0.12524,0.649,2.145,0.534
2026-06-09 16:42:14.384,2906873840,163384,1,0.01489,-0.97583,0.12524,0.649,2.145,0.534
2026-06-09 16:42:14.384,2906873840,163384,2,-0.01929,-0.46509,-0.81519,0.84,1.855,-0.634
2026-06-09 16:42:20.513,2906879969,168512,1,0.02197,-0.979,0.1145,0.45,2.305,0.672
2026-06-09 16:42:20.513,2906879969,168512,2,-0.01929,-0.46021,-0.81738,0.55,1.473,-0.374
2026-06-09 16:42:20.712,2906880168,168712,1,0.01392,-0.97583,0.10205,0.817,2.573,0.466
2026-06-09 16:42:20.712,2906880168,168712,2,-0.01636,-0.4668,-0.81641,0.511,1.733,-0.435
2026-06-09 16:42:20.912,2906880368,168912,1,0.01636,-0.98047,0.11108,0.534,2.313,0.458
2026-06-09 16:42:20.912,2906880368,168912,2,-0.02002,-0.46655,-0.82178,0.405,1.504,-0.435
2026-06-09 16:42:20.112,2906879568,169112,1,0.02148,-0.98071,0.10498,0.702,2.191,0.473
2026-06-09 16:42:20.112,2906879568,169112,2,-0.01978,-0.46851,-0.823,0.45,1.534,-0.58
2026-06-09 16:42:20.312,2906879768,169312,1,0.01367,-0.98022,0.11475,0.664,2.115,0.534
2026-06-09 16:42:20.312,2906879768,169312,2,-0.0166,-0.46655,-0.81738,0.527,1.603,-0.328
2026-06-09 16:42:21.512,2906880968,169512,1,0.0083,-0.9856,0.10913,0.435,2.267,0.496
2026-06-09 16:42:21.512,2906880968,169512,2,-0.01514,-0.46509,-0.82715,0.718,1.679,-0.26
2026-06-09 16:42:21.712,2906881168,169712,1,0.02051,-0.98755,0.10522,0.802,2.397,0.496
2026-06-09 16:42:21.712,2906881168,169712,2,-0.02271,-0.4668,-0.81934,0.565,1.519,-0.435
2026-06-09 16:42:21.912,2906881368,169912,1,0.01318,-0.98242,0.10913,0.435,2.328,0.519
2026-06-09 16:42:21.912,2906881368,169912,2,-0.01978,-0.46045,-0.8186,0.511,1.58,-0.473
2026-06-09 16:42:21.112,2906880568,170112,1,0.01123,-0.98071,0.11743,0.656,2.206,0.481
2026-06-09 16:42:21.112,2906880568,170112,2,-0.02319,-0.45825,-0.82593,0.565,1.618,-0.466
2026-06-09 16:42:21.312,2906880768,170312,1,0.01221,-0.97119,0.1189,0.389,2.305,0.55
2026-06-09 16:42:21.312,2906880768,170312,2,-0.01636,-0.46021,-0.81519,0.466,1.603,-0.374
2026-06-09 16:42:22.512,2906881968,170512,1,0.01782,-0.97656,0.11206,0.702,2.198,0.58
2026-06-09 16:42:22.512,2906881968,170512,2,-0.01611,-0.46533,-0.81299,0.55,1.718,-0.534
2026-06-09 16:42:22.712,2906882168,170712,1,0.01807,-0.97437,0.11401,0.603,2.282,0.443
2026-06-09 16:42:22.712,2906882168,170712,2,-0.02368,-0.4668,-0.82178,0.435,1.649,-0.328
2026-06-09 16:42:22.912,2906882368,170912,1,0.0166,-0.97607,0.11157,0.534,2.405,0.489
2026-06-09 16:42:22.912,2906882368,170912,2,-0.03369,-0.48315,-0.81787,2.038,-1.015,1.084
2026-06-09 16:42:22.112,2906881568,171112,1,-0.24146,-1.06763,0.04492,1.427,12.16,-0.504
2026-06-09 16:42:22.112,2906881568,171112,2,-0.01904,-0.46899,-0.82813,0.031,1.328,-0.679
2026-06-09 16:42:22.112,2906881568,171112,2,-0.01904,-0.46899,-0.82813,0.031,1.328,-0.679
2026-06-09 16:42:27.230,2906886686,176230,1,0.01416,-0.979,0.11792,0.489,2.443,0.496
2026-06-09 16:42:27.230,2906886686,176230,2,-0.02271,-0.4624,-0.81128,0.687,1.695,-0.321
2026-06-09 16:42:28.430,2906887886,176430,1,0.01245,-0.97876,0.10449,0.527,2.313,0.519
2026-06-09 16:42:28.430,2906887886,176430,2,-0.0105,-0.46851,-0.82129,0.687,1.534,-0.611
2026-06-09 16:42:28.630,2906888086,176630,1,0.01733,-0.97437,0.11279,0.618,2.29,0.443
2026-06-09 16:42:28.630,2906888086,176630,2,-0.02124,-0.46826,-0.81274,0.511,1.374,-0.351
2026-06-09 16:42:28.830,2906888286,176830,1,0.01978,-0.979,0.10864,0.557,2.328,0.595
2026-06-09 16:42:28.830,2906888286,176830,2,-0.01367,-0.46655,-0.81714,0.725,1.565,-0.412
2026-06-09 16:42:28.030,2906887486,177030,1,0.01587,-0.97388,0.11401,0.656,2.145,0.565
2026-06-09 16:42:28.030,2906887486,177030,2,-0.0127,-0.46191,-0.8186,0.511,1.473,-0.496
2026-06-09 16:42:28.230,2906887686,177230,1,0.01831,-0.97925,0.11011,0.672,2.115,0.611
2026-06-09 16:42:28.230,2906887686,177230,2,-0.02661,-0.46606,-0.82642,0.779,1.45,-0.427
2026-06-09 16:42:29.430,2906888886,177430,1,0.01538,-0.98315,0.11108,0.656,2.282,0.595
2026-06-09 16:42:29.430,2906888886,177430,2,-0.02148,-0.46533,-0.82227,0.489,1.656,-0.542
2026-06-09 16:42:29.630,2906889086,177630,1,0.01733,-0.97729,0.11865,0.649,2.458,0.489
2026-06-09 16:42:29.630,2906889086,177630,2,-0.01953,-0.46216,-0.81299,0.519,1.664,-0.382
2026-06-09 16:42:29.830,2906889286,177830,1,0.01587,-0.98047,0.11401,0.679,2.221,0.481
2026-06-09 16:42:29.830,2906889286,177830,2,-0.01782,-0.46484,-0.81006,0.649,1.618,-0.344
2026-06-09 16:42:29.030,2906888486,178030,1,0.02002,-0.97852,0.11865,0.481,2.42,0.519
2026-06-09 16:42:29.030,2906888486,178030,2,-0.01538,-0.4646,-0.81445,0.687,1.557,-0.603
2026-06-09 16:42:29.230,2906888686,178230,1,0.0144,-0.98022,0.10986,0.58,2.412,0.641
2026-06-09 16:42:29.230,2906888686,178230,2,-0.01563,-0.46777,-0.81885,0.588,1.672,-0.466
2026-06-09 16:42:30.430,2906889886,178430,1,0.01245,-0.97876,0.10571,0.519,2.176,0.748
2026-06-09 16:42:30.430,2906889886,178430,2,-0.02563,-0.46777,-0.81348,0.481,1.618,-0.305
2026-06-09 16:42:30.630,2906890086,178630,1,0.01416,-0.98267,0.12036,0.695,2.397,0.481
2026-06-09 16:42:30.630,2906890086,178630,2,-0.02026,-0.4585,-0.81787,0.618,1.603,-0.496
2026-06-09 16:42:30.830,2906890286,178830,1,0.02051,-0.97461,0.10767,0.656,2.244,0.466
2026-06-09 16:42:30.830,2906890286,178830,2,-0.01904,-0.46948,-0.81909,0.802,1.595,-0.481
2026-06-09 16:42:30.030,2906889486,179030,1,0.01367,-0.9834,0.11768,0.618,2.435,0.519
2026-06-09 16:42:30.030,2906889486,179030,2,-0.02124,-0.46533,-0.81494,0.588,1.565,-0.504
2026-06-09 16:42:30.230,2906889686,179230,1,0.0127,-0.97974,0.12305,0.748,2.427,0.489
2026-06-09 16:42:30.230,2906889686,179230,2,-0.01367,-0.46875,-0.81787,0.603,1.511,-0.443
2026-06-09 16:42:31.430,2906890886,179430,1,0.01782,-0.97827,0.11865,0.573,2.29,0.573
2026-06-09 16:42:31.430,2906890886,179430,2,-0.0188,-0.46265,-0.81641,0.298,1.481,-0.641
2026-06-09 16:42:31.630,2906891086,179630,1,0.01758,-0.97461,0.1123,0.649,2.229,0.458
2026-06-09 16:42:31.630,2906891086,179630,2,-0.02271,-0.4646,-0.83032,0.496,1.427,-0.489
2026-06-09 16:42:31.830,2906891286,179830,1,0.01099,-0.97803,0.11499,0.534,2.435,0.588
2026-06-09 16:42:31.830,2906891286,179830,2,-0.01611,-0.46753,-0.82251,0.672,1.557,-0.374
2026-06-09 16:42:31.030,2906890486,180030,1,0.02051,-0.97681,0.11328,0.618,2.313,0.481
2026-06-09 16:42:31.030,2906890486,180030,2,-0.02417,-0.46973,-0.81348,0.725,1.603,-0.435
2026-06-09 16:42:31.230,2906890686,180230,1,0.01733,-0.97388,0.11157,0.542,2.496,0.534
2026-06-09 16:42:31.230,2906890686,180230,2,-0.01807,-0.46313,-0.82275,0.702,1.595,-0.405
2026-06-09 16:42:32.430,2906891886,180430,1,0.01782,-0.97559,0.10352,0.71,2.305,0.412
2026-06-09 16:42:32.430,2906891886,180430,2,-0.01636,-0.4646,-0.81934,0.656,1.542,-0.527
2026-06-09 16:42:32.630,2906892086,180630,1,0.02173,-0.97705,0.1189,0.664,2.389,0.443
2026-06-09 16:42:32.630,2906892086,180630,2,-0.01636,-0.46851,-0.8186,0.771,1.603,-0.42
2026-06-09 16:42:36.379,2906895835,185378,1,0.01758,-0.98169,0.10986,0.466,2.16,0.634
2026-06-09 16:42:36.379,2906895835,185378,2,-0.02026,-0.46875,-0.81641,0.664,1.641,-0.557
2026-06-09 16:42:37.578,2906897034,185578,1,0.0188,-0.98364,0.1145,0.519,2.328,0.527
2026-06-09 16:42:37.578,2906897034,185578,2,-0.02222,-0.46777,-0.823,0.504,1.481,-0.435
2026-06-09 16:42:37.778,2906897234,185778,1,0.02148,-0.97803,0.10571,0.847,2.351,0.511
2026-06-09 16:42:37.778,2906897234,185778,2,-0.01636,-0.46362,-0.81543,0.542,1.565,-0.397
2026-06-09 16:42:37.978,2906897434,185978,1,0.01758,-0.97705,0.10986,0.519,2.237,0.366
2026-06-09 16:42:37.978,2906897434,185978,2,-0.01343,-0.46191,-0.81763,0.565,1.626,-0.496
2026-06-09 16:42:37.178,2906896634,186178,1,0.01196,-0.98047,0.10498,0.489,2.298,0.427
2026-06-09 16:42:37.178,2906896634,186178,2,-0.01465,-0.46631,-0.81274,0.588,1.672,-0.504
2026-06-09 16:42:37.378,2906896834,186378,1,0.01758,-0.9856,0.11987,0.626,2.344,0.588
2026-06-09 16:42:37.378,2906896834,186378,2,-0.02979,-0.46338,-0.81079,0.641,1.626,-0.366
2026-06-09 16:42:38.578,2906898034,186578,1,0.01807,-0.97876,0.1106,0.55,2.305,0.435
2026-06-09 16:42:38.578,2906898034,186578,2,-0.02173,-0.4563,-0.81689,0.557,1.626,-0.374
2026-06-09 16:42:38.778,2906898234,186778,1,0.02246,-0.97729,0.11548,0.611,2.45,0.695
2026-06-09 16:42:38.778,2906898234,186778,2,-0.02441,-0.46216,-0.81519,0.405,1.588,-0.389
2026-06-09 16:42:38.978,2906898434,186978,1,0.01929,-0.97095,0.10889,0.641,2.321,0.504
2026-06-09 16:42:38.978,2906898434,186978,2,-0.01367,-0.46533,-0.82349,0.672,1.557,-0.519
2026-06-09 16:42:38.178,2906897634,187178,1,0.01587,-0.97021,0.11084,0.733,2.405,0.328
2026-06-09 16:42:38.178,2906897634,187178,2,-0.01855,-0.46338,-0.82813,0.656,1.588,-0.504
2026-06-09 16:42:38.378,2906897834,187378,1,0.01978,-0.98022,0.11377,0.649,2.412,0.626
2026-06-09 16:42:38.378,2906897834,187378,2,-0.01563,-0.4668,-0.81714,0.595,1.733,-0.359
2026-06-09 16:42:39.578,2906899034,187578,1,0.01758,-0.97388,0.11157,0.718,2.351,0.511
2026-06-09 16:42:39.578,2906899034,187578,2,-0.01025,-0.46045,-0.82129,0.603,1.534,-0.405
2026-06-09 16:42:39.778,2906899234,187778,1,0.01855,-0.98413,0.11035,0.695,2.382,0.557
2026-06-09 16:42:39.778,2906899234,187778,2,-0.01709,-0.4646,-0.82178,0.588,1.542,-0.313
2026-06-09 16:42:39.978,2906899434,187978,1,0.01392,-0.97388,0.11035,0.557,2.298,0.603
2026-06-09 16:42:39.978,2906899434,187978,2,-0.02051,-0.46948,-0.8252,0.542,1.695,-0.366
2026-06-09 16:42:39.178,2906898634,188178,1,0.0144,-0.98169,0.10449,0.603,2.29,0.42
2026-06-09 16:42:39.178,2906898634,188178,2,-0.01489,-0.46509,-0.82275,0.771,1.405,-0.397
2026-06-09 16:42:39.378,2906898834,188378,1,0.01929,-0.97607,0.10938,0.557,2.443,0.427
2026-06-09 16:42:39.378,2906898834,188378,2,-0.01563,-0.45898,-0.80957,0.359,1.656,-0.374
2026-06-09 16:42:40.578,2906900034,188578,1,0.01514,-0.9812,0.11621,0.542,2.511,0.519
2026-06-09 16:42:40.578,2906900034,188578,2,-0.0188,-0.47705,-0.81738,0.733,1.672,-0.351
2026-06-09 16:42:40.778,2906900234,188778,1,0.01514,-0.98242,0.11816,0.595,2.221,0.466
2026-06-09 16:42:40.778,2906900234,188778,2,-0.01611,-0.46436,-0.81592,0.656,1.557,-0.511
2026-06-09 16:42:40.978,2906900434,188978,1,0.01563,-0.98071,0.12012,0.481,2.359,0.374
2026-06-09 16:42:40.978,2906900434,188978,2,-0.02295,-0.46387,-0.81885,0.542,1.588,-0.511
2026-06-09 16:42:40.178,2906899634,189178,1,0.01636,-0.97827,0.11963,0.603,2.389,0.649
2026-06-09 16:42:40.178,2906899634,189178,2,-0.0166,-0.46436,-0.81958,0.573,1.702,-0.443
2026-06-09 16:42:40.378,2906899834,189378,1,0.01074,-0.97852,0.11133,0.687,2.221,0.45
2026-06-09 16:42:40.378,2906899834,189378,2,-0.01831,-0.4563,-0.82446,0.664,1.679,-0.42
2026-06-09 16:42:41.578,2906901034,189578,1,0.01563,-0.97876,0.11279,0.779,2.359,0.412
2026-06-09 16:42:41.578,2906901034,189578,2,-0.02075,-0.46924,-0.81567,0.542,1.611,-0.405
2026-06-09 16:42:41.778,2906901234,189778,1,0.01904,-0.98022,0.10669,0.618,2.237,0.573
2026-06-09 16:42:41.778,2906901234,189778,2,-0.02075,-0.46387,-0.80786,0.786,1.45,-0.687
2026-06-09 16:42:41.978,2906901434,189978,1,0.01733,-0.97876,0.1084,0.618,2.153,0.374
2026-06-09 16:42:41.978,2906901434,189978,2,-0.01636,-0.46582,-0.82031,0.664,1.641,-0.412
2026-06-09 16:42:41.264,2906900720,190264,1,0.01978,-0.97949,0.10693,0.656,2.344,0.542
2026-06-09 16:42:41.264,2906900720,190264,2,-0.01831,-0.45679,-0.81714,0.611,1.557,-0.412
2026-06-09 16:42:42.464,2906901920,190464,1,0.01709,-0.979,0.11206,0.542,2.359,0.359
2026-06-09 16:42:42.464,2906901920,190464,2,-0.02344,-0.4624,-0.81909,0.466,1.687,-0.435
2026-06-09 16:42:42.664,2906902120,190664,1,0.01489,-0.98242,0.1167,0.519,2.435,0.412
2026-06-09 16:42:42.664,2906902120,190664,2,-0.01978,-0.46729,-0.81128,0.656,1.618,-0.336
2026-06-09 16:42:42.864,2906902320,190864,1,0.01538,-0.97681,0.11523,0.527,2.305,0.527
2026-06-09 16:42:42.864,2906902320,190864,2,-0.01953,-0.46289,-0.8208,0.71,1.527,-0.336
2026-06-09 16:42:42.064,2906901520,191064,1,0.01831,-0.97998,0.10718,0.641,2.344,0.427
2026-06-09 16:42:42.064,2906901520,191064,2,-0.01978,-0.46313,-0.8291,0.733,1.511,-0.366
2026-06-09 16:42:42.264,2906901720,191264,1,0.01538,-0.97949,0.10962,0.511,2.267,0.443
2026-06-09 16:42:42.264,2906901720,191264,2,-0.01318,-0.46411,-0.823,0.786,1.58,-0.359
2026-06-09 16:42:43.464,2906902920,191464,1,0.01855,-0.97607,0.11499,0.519,2.237,0.511
2026-06-09 16:42:43.464,2906902920,191464,2,-0.02222,-0.46484,-0.81812,0.595,1.611,-0.481
2026-06-09 16:42:43.664,2906903120,191664,1,0.01392,-0.97827,0.10107,0.771,2.351,0.573
2026-06-09 16:42:43.664,2906903120,191664,2,-0.01709,-0.46631,-0.81274,0.557,1.443,-0.389
2026-06-09 16:42:43.864,2906903320,191864,1,0.01489,-0.98462,0.10864,0.573,2.45,0.557
2026-06-09 16:42:43.864,2906903320,191864,2,-0.01392,-0.46021,-0.82031,0.527,1.427,-0.519
2026-06-09 16:42:43.064,2906902520,192064,1,0.0127,-0.97852,0.11304,0.565,2.084,0.435
2026-06-09 16:42:43.064,2906902520,192064,2,-0.0249,-0.46436,-0.81836,0.58,1.695,-0.496
2026-06-09 16:42:43.264,2906902720,192264,1,0.01929,-0.97583,0.1084,0.641,2.45,0.405
2026-06-09 16:42:43.264,2906902720,192264,2,-0.01416,-0.46313,-0.82861,0.504,1.603,-0.382
2026-06-09 16:42:44.464,2906903920,192464,1,0.01685,-0.97607,0.10913,0.664,2.115,0.382
2026-06-09 16:42:44.464,2906903920,192464,2,-0.01294,-0.46069,-0.8208,0.771,1.511,-0.588
2026-06-09 16:42:44.664,2906904120,192664,1,0.01733,-0.98511,0.11865,0.534,2.267,0.725
2026-06-09 16:42:44.664,2906904120,192664,2,-0.02271,-0.46582,-0.82886,0.695,1.664,-0.176
2026-06-09 16:42:44.864,2906904320,192864,1,0.01538,-0.97729,0.11206,0.557,2.298,0.527
2026-06-09 16:42:44.864,2906904320,192864,2,-0.01709,-0.46729,-0.81787,0.58,1.504,-0.397
2026-06-09 16:42:44.064,2906903520,193064,1,0.01611,-0.97778,0.10791,0.71,2.328,0.641
2026-06-09 16:42:44.064,2906903520,193064,2,-0.01563,-0.45483,-0.82031,0.565,1.565,-0.435
2026-06-09 16:42:44.264,2906903720,193264,1,0.02246,-0.98047,0.11646,0.573,2.45,0.626
2026-06-09 16:42:44.264,2906903720,193264,2,-0.01929,-0.46069,-0.81006,0.504,1.672,-0.519
2026-06-09 16:42:45.464,2906904920,193464,1,0.01099,-0.9812,0.10669,0.58,2.466,0.58
2026-06-09 16:42:45.464,2906904920,193464,2,-0.01343,-0.46533,-0.82446,0.763,1.802,-0.504
2026-06-09 16:42:45.664,2906905120,193664,1,0.01489,-0.97974,0.11157,0.618,2.275,0.435
2026-06-09 16:42:45.664,2906905120,193664,2,-0.01831,-0.46558,-0.81104,0.664,1.481,-0.443
2026-06-09 16:42:45.864,2906905320,193864,1,0.02246,-0.97754,0.11719,0.489,2.397,0.481
2026-06-09 16:42:45.864,2906905320,193864,2,-0.01855,-0.46216,-0.80933,0.695,1.634,-0.588
2026-06-09 16:42:45.064,2906904520,194064,1,0.01001,-0.97925,0.12378,0.611,2.382,0.42
2026-06-09 16:42:45.064,2906904520,194064,2,-0.01465,-0.46191,-0.8186,0.588,1.626,-0.435
2026-06-09 16:42:45.264,2906904720,194264,1,0.01147,-0.98096,0.11841,0.687,2.176,0.565
2026-06-09 16:42:45.264,2906904720,194264,2,-0.01904,-0.46411,-0.80957,0.382,1.626,-0.42
2026-06-09 16:42:46.464,2906905920,194464,1,0.01904,-0.97852,0.11206,0.458,2.313,0.542
2026-06-09 16:42:46.464,2906905920,194464,2,-0.02002,-0.46704,-0.81958,0.672,1.611,-0.359
2026-06-09 16:42:46.664,2906906120,194664,1,0.01538,-0.97461,0.11353,0.611,2.473,0.672
2026-06-09 16:42:46.664,2906906120,194664,2,-0.02271,-0.46533,-0.81714,0.496,1.458,-0.588
2026-06-09 16:42:46.864,2906906320,194864,1,0.01904,-0.97559,0.1106,0.679,2.275,0.58
2026-06-09 16:42:46.864,2906906320,194864,2,-0.02002,-0.46558,-0.81641,0.527,1.534,-0.389
2026-06-09 16:42:46.064,2906905520,195064,1,0.01831,-0.98218,0.11499,0.611,2.45,0.542
2026-06-09 16:42:46.064,2906905520,195064,2,-0.01978,-0.46509,-0.81958,0.573,1.573,-0.466
2026-06-09 16:42:46.264,2906905720,195264,1,0.01538,-0.97437,0.11523,0.71,2.29,0.466
2026-06-09 16:42:46.264,2906905720,195264,2,-0.01758,-0.46484,-0.81836,0.672,1.511,-0.534
2026-06-09 16:42:47.464,2906906920,195464,1,0.01636,-0.97656,0.11816,0.649,2.359,0.405
2026-06-09 16:42:47.464,2906906920,195464,2,-0.02368,-0.4668,-0.81836,0.649,1.519,-0.511
2026-06-09 16:42:47.664,2906907120,195664,1,0.01587,-0.97534,0.10376,0.542,2.443,0.649
2026-06-09 16:42:47.664,2906907120,195664,2,-0.01831,-0.46143,-0.81421,0.756,1.672,-0.45
2026-06-09 16:42:47.864,2906907320,195864,1,0.01563,-0.97412,0.11377,0.603,2.534,0.595
2026-06-09 16:42:47.864,2906907320,195864,2,-0.0166,-0.46387,-0.82153,0.611,1.557,-0.405
2026-06-09 16:42:47.064,2906906520,196064,1,0.01563,-0.97681,0.11206,0.672,2.214,0.45
2026-06-09 16:42:47.064,2906906520,196064,2,-0.0166,-0.46069,-0.81616,0.58,1.656,-0.305
2026-06-09 16:42:47.264,2906906720,196264,1,0.01978,-0.96924,0.10889,0.595,2.473,0.389
2026-06-09 16:42:47.264,2906906720,196264,2,-0.02051,-0.46558,-0.81567,0.595,1.58,-0.366
2026-06-09 16:42:48.464,2906907920,196464,1,0.01465,-0.97632,0.11401,0.481,2.168,0.511
2026-06-09 16:42:48.464,2906907920,196464,2,-0.02075,-0.46753,-0.81396,0.481,1.496,-0.267
2026-06-09 16:42:48.664,2906908120,196664,1,0.01807,-0.97559,0.11597,0.733,2.351,0.573
2026-06-09 16:42:48.664,2906908120,196664,2,-0.01685,-0.46704,-0.8186,0.481,1.656,-0.466
2026-06-09 16:42:48.950,2906908406,196950,1,0.01807,-0.98096,0.11548,0.664,2.458,0.504
2026-06-09 16:42:48.950,2906908406,196950,2,-0.01929,-0.46704,-0.82104,0.702,1.641,-0.298
2026-06-09 16:42:48.150,2906907606,197150,1,0.00879,-0.98193,0.12012,0.641,2.397,0.481
2026-06-09 16:42:48.150,2906907606,197150,2,-0.01978,-0.4585,-0.82129,0.557,1.626,-0.664
2026-06-09 16:42:48.350,2906907806,197350,1,0.01782,-0.97583,0.11792,0.473,2.206,0.58
2026-06-09 16:42:48.350,2906907806,197350,2,-0.02026,-0.46533,-0.82373,0.443,1.58,-0.382
2026-06-09 16:42:49.550,2906909006,197550,1,0.01733,-0.97827,0.11499,0.588,2.328,0.489
2026-06-09 16:42:49.550,2906909006,197550,2,-0.01807,-0.46338,-0.82715,0.504,1.656,-0.45
2026-06-09 16:42:49.750,2906909206,197750,1,0.01538,-0.979,0.11133,0.504,2.336,0.244
2026-06-09 16:42:49.750,2906909206,197750,2,-0.0249,-0.46118,-0.80713,0.618,1.634,-0.267
2026-06-09 16:42:49.950,2906909406,197950,1,0.02295,-0.98145,0.11792,0.672,2.412,0.511
2026-06-09 16:42:49.950,2906909406,197950,2,-0.01294,-0.46948,-0.81445,0.672,1.656,-0.458
2026-06-09 16:42:49.150,2906908606,198150,1,0.01855,-0.97803,0.11597,0.771,2.328,0.427
2026-06-09 16:42:49.150,2906908606,198150,2,-0.0188,-0.46411,-0.82446,0.611,1.756,-0.351
2026-06-09 16:42:49.350,2906908806,198350,1,0.01416,-0.97534,0.12476,0.603,2.26,0.511
2026-06-09 16:42:49.350,2906908806,198350,2,-0.01367,-0.46362,-0.82373,0.527,1.702,-0.351
2026-06-09 16:42:50.550,2906910006,198550,1,0.01611,-0.9834,0.10864,0.565,2.511,0.466
2026-06-09 16:42:50.550,2906910006,198550,2,-0.02075,-0.45996,-0.81958,0.626,1.679,-0.382
2026-06-09 16:42:50.750,2906910206,198750,1,0.01758,-0.97607,0.10986,0.687,2.366,0.473
2026-06-09 16:42:50.750,2906910206,198750,2,-0.021,-0.46777,-0.81274,0.649,1.687,-0.534
2026-06-09 16:42:50.950,2906910406,198950,1,0.01758,-0.98022,0.10425,0.565,2.153,0.771
2026-06-09 16:42:50.950,2906910406,198950,2,-0.01929,-0.46069,-0.81738,0.336,1.664,-0.282
2026-06-09 16:42:50.150,2906909606,199150,1,0.00854,-0.98267,0.10864,0.672,2.344,0.42
2026-06-09 16:42:50.150,2906909606,199150,2,-0.02124,-0.46973,-0.81396,0.656,1.603,-0.527
2026-06-09 16:42:50.350,2906909806,199350,1,0.0166,-0.97729,0.11499,0.603,2.237,0.359
2026-06-09 16:42:50.350,2906909806,199350,2,-0.01611,-0.46338,-0.81836,0.618,1.511,-0.427
2026-06-09 16:42:51.550,2906911006,199550,1,0.01807,-0.97583,0.09839,0.427,2.221,0.55
2026-06-09 16:42:51.550,2906911006,199550,2,-0.02002,-0.46143,-0.81812,0.489,1.58,-0.435
2026-06-09 16:42:51.750,2906911206,199750,1,0.01563,-0.97363,0.11743,0.687,2.275,0.359
2026-06-09 16:42:51.750,2906911206,199750,2,-0.01904,-0.4624,-0.80981,0.71,1.519,-0.42
2026-06-09 16:42:51.950,2906911406,199950,1,0.01636,-0.979,0.10645,0.588,2.351,0.557
2026-06-09 16:42:51.950,2906911406,199950,2,-0.01709,-0.46387,-0.83496,0.763,1.466,-0.374
2026-06-09 16:42:51.150,2906910606,200150,1,0.01733,-0.98462,0.11768,0.534,2.374,0.351
2026-06-09 16:42:51.150,2906910606,200150,2,-0.01563,-0.46509,-0.82202,0.466,1.382,-0.282
2026-06-09 16:42:51.350,2906910806,200350,1,0.01636,-0.97998,0.1106,0.595,2.366,0.481
2026-06-09 16:42:51.350,2906910806,200350,2,-0.02271,-0.46533,-0.81787,0.695,1.595,-0.382
2026-06-09 16:42:52.550,2906912006,200550,1,0.01904,-0.98071,0.10742,0.641,2.252,0.481
2026-06-09 16:42:52.550,2906912006,200550,2,-0.02051,-0.46533,-0.81201,0.595,1.519,-0.511
2026-06-09 16:42:52.750,2906912206,200750,1,0.01709,-0.97925,0.11328,0.557,2.305,0.618
2026-06-09 16:42:52.750,2906912206,200750,2,-0.02148,-0.46191,-0.82251,0.489,1.565,-0.489
2026-06-09 16:42:52.950,2906912406,200950,1,0.01636,-0.97339,0.11279,0.565,2.405,0.519
2026-06-09 16:42:52.950,2906912406,200950,2,-0.01489,-0.46899,-0.81201,0.855,1.649,-0.389
2026-06-09 16:42:52.150,2906911606,201150,1,0.01782,-0.98242,0.104,0.45,2.344,0.496
2026-06-09 16:42:52.150,2906911606,201150,2,-0.02075,-0.46436,-0.81958,0.534,1.565,-0.458
2026-06-09 16:42:52.350,2906911806,201350,1,0.0249,-0.97754,0.10254,0.534,2.298,0.504
2026-06-09 16:42:52.350,2906911806,201350,2,-0.02173,-0.46606,-0.81128,0.656,1.511,-0.511
2026-06-09 16:42:53.550,2906913006,201550,1,0.01294,-0.97876,0.11157,0.611,2.351,0.534
2026-06-09 16:42:53.550,2906913006,201550,2,-0.02026,-0.46802,-0.81958,0.626,1.702,-0.389
2026-06-09 16:42:53.750,2906913206,201750,1,0.01611,-0.97632,0.1145,0.595,2.366,0.351
2026-06-09 16:42:53.750,2906913206,201750,2,-0.01709,-0.46411,-0.82056,0.771,1.58,-0.336
2026-06-09 16:42:53.950,2906913406,201950,1,0.01587,-0.97852,0.1167,0.511,2.221,0.611
2026-06-09 16:42:53.950,2906913406,201950,2,-0.02026,-0.45898,-0.82031,0.702,1.573,-0.534
2026-06-09 16:42:53.150,2906912606,202150,1,0.02417,-0.97607,0.11499,0.603,2.344,0.58
2026-06-09 16:42:53.150,2906912606,202150,2,-0.02148,-0.4668,-0.81055,0.466,1.504,-0.489
2026-06-09 16:42:53.350,2906912806,202350,1,0.01782,-0.97998,0.10889,0.702,2.198,0.626
2026-06-09 16:42:53.350,2906912806,202350,2,-0.02563,-0.46753,-0.82446,0.489,1.481,-0.382
2026-06-09 16:42:54.550,2906914006,202550,1,0.02075,-0.97583,0.11182,0.626,2.282,0.374
2026-06-09 16:42:54.550,2906914006,202550,2,-0.01978,-0.46313,-0.82837,0.573,1.641,-0.45
2026-06-09 16:42:54.750,2906914206,202750,1,0.01416,-0.97925,0.10278,0.511,2.191,0.664
2026-06-09 16:42:54.750,2906914206,202750,2,-0.021,-0.46094,-0.81323,0.527,1.527,-0.534
2026-06-09 16:42:54.950,2906914406,202950,1,0.01367,-0.97998,0.1145,0.695,2.435,0.336
2026-06-09 16:42:54.950,2906914406,202950,2,-0.01636,-0.46875,-0.81763,0.603,1.634,-0.481
2026-06-09 16:42:54.150,2906913606,203150,1,0.01489,-0.97534,0.10352,0.542,2.26,0.458
2026-06-09 16:42:54.150,2906913606,203150,2,-0.01636,-0.4646,-0.82007,0.641,1.527,-0.511
2026-06-09 16:42:54.350,2906913806,203350,1,0.0144,-0.9834,0.11426,0.519,2.115,0.473
2026-06-09 16:42:54.350,2906913806,203350,2,-0.01831,-0.46997,-0.81787,0.71,1.656,-0.435
2026-06-09 16:42:55.550,2906915006,203550,1,0.01782,-0.98364,0.10278,0.603,2.389,0.427
2026-06-09 16:42:55.550,2906915006,203550,2,-0.01196,-0.46289,-0.81641,0.687,1.527,-0.382
2026-06-09 16:42:55.750,2906915206,203750,1,0.01978,-0.9812,0.10645,0.595,2.206,0.55
2026-06-09 16:42:55.750,2906915206,203750,2,-0.01294,-0.46753,-0.82056,0.573,1.687,-0.229
2026-06-09 16:42:55.950,2906915406,203950,1,0.01953,-0.97363,0.11646,0.573,2.427,0.466
2026-06-09 16:42:55.950,2906915406,203950,2,-0.01563,-0.46899,-0.81445,0.45,1.58,-0.504
2026-06-09 16:42:55.150,2906914606,204150,1,0.00781,-0.97876,0.10938,0.389,2.092,0.534
2026-06-09 16:42:55.150,2906914606,204150,2,-0.01807,-0.46484,-0.82813,0.351,1.695,-0.473
2026-06-09 16:42:55.350,2906914806,204350,1,0.0166,-0.97437,0.1145,0.588,2.374,0.588
2026-06-09 16:42:55.350,2906914806,204350,2,-0.02319,-0.46387,-0.81982,0.641,1.634,-0.397
2026-06-09 16:42:56.550,2906916006,204550,1,0.01855,-0.97266,0.11548,0.626,2.176,0.405
2026-06-09 16:42:56.550,2906916006,204550,2,-0.02588,-0.46265,-0.81934,0.542,1.618,-0.366
2026-06-09 16:42:56.750,2906916206,204750,1,0.01831,-0.98267,0.11572,0.58,2.298,0.55
2026-06-09 16:42:56.750,2906916206,204750,2,-0.01758,-0.46362,-0.81519,0.481,1.687,-0.405
2026-06-09 16:42:56.950,2906916406,204950,1,0.0166,-0.97632,0.12036,0.641,2.481,0.565
2026-06-09 16:42:56.950,2906916406,204950,2,-0.02197,-0.46655,-0.81958,0.603,1.634,-0.611
2026-06-09 16:42:56.150,2906915606,205150,1,0.01489,-0.97729,0.10645,0.71,2.221,0.45
2026-06-09 16:42:56.150,2906915606,205150,2,-0.0188,-0.46631,-0.81519,0.588,1.618,-0.397
2026-06-09 16:42:56.350,2906915806,205350,1,0.01587,-0.97754,0.10913,0.725,2.466,0.321
2026-06-09 16:42:56.350,2906915806,205350,2,-0.02051,-0.4668,-0.81909,0.603,1.603,-0.435
2026-06-09 16:42:57.550,2906917006,205550,1,0.01245,-0.97144,0.11304,0.672,2.29,0.695
2026-06-09 16:42:57.550,2906917006,205550,2,-0.0105,-0.46216,-0.82251,0.718,1.489,-0.359
2026-06-09 16:42:57.750,2906917206,205750,1,0.01392,-0.97363,0.11865,0.55,2.382,0.473
2026-06-09 16:42:57.750,2906917206,205750,2,-0.02124,-0.46265,-0.81738,0.328,1.511,-0.374
2026-06-09 16:42:57.950,2906917406,205950,1,0.01538,-0.98218,0.11255,0.656,2.321,0.45
2026-06-09 16:42:57.950,2906917406,205950,2,-0.01538,-0.46826,-0.82642,0.679,1.626,-0.328
2026-06-09 16:42:57.150,2906916606,206150,1,0.01831,-0.98047,0.11475,0.588,2.573,0.511
2026-06-09 16:42:57.150,2906916606,206150,2,-0.01953,-0.46021,-0.81006,0.695,1.58,-0.511
2026-06-09 16:42:57.350,2906916806,206350,1,0.01099,-0.97754,0.10742,0.641,2.183,0.573
2026-06-09 16:42:57.350,2906916806,206350,2,-0.01367,-0.45898,-0.82446,0.565,1.519,-0.443
2026-06-09 16:42:58.550,2906918006,206550,1,0.01587,-0.98486,0.11499,0.55,2.305,0.565
2026-06-09 16:42:58.550,2906918006,206550,2,-0.01514,-0.4668,-0.81934,0.382,1.55,-0.305
2026-06-09 16:42:58.750,2906918206,206750,1,0.01318,-0.98169,0.10352,0.534,2.359,0.252
2026-06-09 16:42:58.750,2906918206,206750,2,-0.02173,-0.47217,-0.81323,0.603,1.58,-0.344
2026-06-09 16:42:58.950,2906918406,206950,1,0.01001,-0.98096,0.09961,0.702,2.221,0.55
2026-06-09 16:42:58.950,2906918406,206950,2,-0.02075,-0.46484,-0.8252,0.634,1.527,-0.374
2026-06-09 16:42:58.150,2906917606,207150,1,0.02173,-0.98413,0.12085,0.733,2.237,0.435
2026-06-09 16:42:58.150,2906917606,207150,2,-0.01611,-0.46167,-0.82202,0.687,1.435,-0.427
2026-06-09 16:42:59.478,2906918934,207478,1,0.01685,-0.97974,0.11426,0.588,2.282,0.45
2026-06-09 16:42:59.478,2906918934,207478,2,-0.02197,-0.4646,-0.80957,0.695,1.496,-0.412
2026-06-09 16:42:59.678,2906919134,207678,1,0.01685,-0.97974,0.11084,0.664,2.191,0.427
2026-06-09 16:42:59.678,2906919134,207678,2,-0.01929,-0.46533,-0.81763,0.45,1.466,-0.519
2026-06-09 16:42:59.878,2906919334,207878,1,0.02148,-0.97827,0.1084,0.679,2.427,0.458
2026-06-09 16:42:59.878,2906919334,207878,2,-0.02075,-0.46997,-0.81592,0.565,1.481,-0.595
2026-06-09 16:42:59.078,2906918534,208078,1,0.01489,-0.97656,0.11548,0.756,2.458,0.382
2026-06-09 16:42:59.078,2906918534,208078,2,-0.02124,-0.4646,-0.8208,0.626,1.756,-0.435
2026-06-09 16:42:59.278,2906918734,208278,1,0.01343,-0.97778,0.10938,0.649,2.496,0.504
2026-06-09 16:42:59.278,2906918734,208278,2,-0.01465,-0.46729,-0.81787,0.748,1.588,-0.29
2026-06-09 16:43:02.305,2906921761,211305,1,0.01929,-0.98096,0.10693,0.588,2.298,0.641
2026-06-09 16:43:02.305,2906921761,211305,2,-0.01758,-0.46606,-0.8252,0.649,1.527,-0.473
2026-06-09 16:43:03.545,2906923001,211545,1,0.01074,-0.98096,0.11182,0.618,2.275,0.405
2026-06-09 16:43:03.545,2906923001,211545,2,-0.01758,-0.46509,-0.82568,0.573,1.557,-0.321
2026-06-09 16:43:03.745,2906923201,211745,1,0.02124,-0.97681,0.11182,0.588,2.382,0.427
2026-06-09 16:43:03.745,2906923201,211745,2,-0.02222,-0.46826,-0.81299,0.504,1.634,-0.588
2026-06-09 16:43:03.945,2906923401,211945,1,0.02222,-0.97729,0.10791,0.588,2.45,0.542
2026-06-09 16:43:03.945,2906923401,211945,2,-0.01709,-0.46411,-0.81372,0.695,1.763,-0.359
2026-06-09 16:43:03.145,2906922601,212145,1,0.01367,-0.97754,0.11255,0.511,2.321,0.496
2026-06-09 16:43:03.145,2906922601,212145,2,-0.01465,-0.46558,-0.82422,0.58,1.588,-0.527
2026-06-09 16:43:03.345,2906922801,212345,1,0.01538,-0.97339,0.11499,0.618,2.344,0.58
2026-06-09 16:43:03.345,2906922801,212345,2,-0.0188,-0.46045,-0.82202,0.519,1.504,-0.427
2026-06-09 16:43:04.545,2906924001,212545,1,0.01367,-0.979,0.11255,0.695,2.366,0.443
2026-06-09 16:43:04.545,2906924001,212545,2,-0.02197,-0.46191,-0.81934,0.733,1.595,-0.565
2026-06-09 16:43:04.745,2906924201,212745,1,0.0127,-0.97974,0.10449,0.397,2.198,0.489
2026-06-09 16:43:04.745,2906924201,212745,2,-0.01978,-0.46289,-0.81787,0.702,1.473,-0.435
2026-06-09 16:43:04.945,2906924401,212945,1,0.02148,-0.97705,0.10034,0.802,2.275,0.504
2026-06-09 16:43:04.945,2906924401,212945,2,-0.02417,-0.46362,-0.81714,0.74,1.771,-0.473
2026-06-09 16:43:06.734,2906926190,214733,1,0.01465,-0.98022,0.10962,0.588,2.282,0.573
2026-06-09 16:43:06.734,2906926190,214733,2,-0.02075,-0.4668,-0.80762,0.618,1.573,-0.412
2026-06-09 16:43:06.933,2906926389,214933,1,0.01587,-0.97656,0.10889,0.58,2.55,0.595
2026-06-09 16:43:06.933,2906926389,214933,2,-0.01758,-0.46729,-0.82007,0.595,1.573,-0.351
2026-06-09 16:43:06.133,2906925589,215133,1,0.0188,-0.97705,0.11841,0.748,2.183,0.725
2026-06-09 16:43:06.133,2906925589,215133,2,-0.02051,-0.46387,-0.80786,0.771,1.672,-0.435
2026-06-09 16:43:06.333,2906925789,215333,1,0.01978,-0.97827,0.11084,0.42,2.366,0.466
2026-06-09 16:43:06.333,2906925789,215333,2,-0.01294,-0.46313,-0.81592,0.626,1.565,-0.374
2026-06-09 16:43:07.533,2906926989,215533,1,0.02051,-0.97632,0.11768,0.504,2.252,0.481
2026-06-09 16:43:07.533,2906926989,215533,2,-0.02466,-0.4646,-0.81665,0.504,1.542,-0.382
2026-06-09 16:43:07.733,2906927189,215733,1,0.01221,-0.97583,0.11377,0.611,2.321,0.565
2026-06-09 16:43:07.733,2906927189,215733,2,-0.01782,-0.46631,-0.81982,0.42,1.626,-0.405
2026-06-09 16:43:07.933,2906927389,215933,1,0.01709,-0.97974,0.11768,0.534,2.13,0.618
2026-06-09 16:43:07.933,2906927389,215933,2,-0.02075,-0.46582,-0.81836,0.595,1.634,-0.427
2026-06-09 16:43:07.133,2906926589,216133,1,0.01611,-0.97485,0.11523,0.557,2.275,0.405
2026-06-09 16:43:07.133,2906926589,216133,2,-0.01514,-0.46948,-0.8186,0.672,1.71,-0.458
2026-06-09 16:43:07.333,2906926789,216333,1,0.01416,-0.97998,0.11157,0.656,2.168,0.481
2026-06-09 16:43:07.333,2906926789,216333,2,-0.01733,-0.46851,-0.81641,0.573,1.542,-0.405
2026-06-09 16:43:08.533,2906927989,216533,1,0.01733,-0.97803,0.11963,0.489,2.344,0.634
2026-06-09 16:43:08.533,2906927989,216533,2,-0.02368,-0.46558,-0.80981,0.435,1.641,-0.405
2026-06-09 16:43:08.733,2906928189,216733,1,0.01953,-0.97534,0.10767,0.656,2.336,0.405
2026-06-09 16:43:08.733,2906928189,216733,2,-0.01514,-0.46704,-0.81787,0.58,1.664,-0.405
2026-06-09 16:43:08.933,2906928389,216933,1,0.01904,-0.97852,0.10938,0.649,2.252,0.527
2026-06-09 16:43:08.933,2906928389,216933,2,-0.02441,-0.46411,-0.81665,0.58,1.466,-0.534
2026-06-09 16:43:08.133,2906927589,217133,1,0.01514,-0.97852,0.10791,0.634,2.252,0.45
2026-06-09 16:43:08.133,2906927589,217133,2,-0.01831,-0.46436,-0.82764,0.802,1.656,-0.427
2026-06-09 16:43:08.333,2906927789,217333,1,0.01465,-0.97925,0.11401,0.588,2.328,0.397
2026-06-09 16:43:08.333,2906927789,217333,2,-0.02612,-0.46436,-0.82129,0.542,1.733,-0.466
2026-06-09 16:43:09.533,2906928989,217533,1,0.0188,-0.98193,0.11426,0.656,2.405,0.565
2026-06-09 16:43:09.533,2906928989,217533,2,-0.01855,-0.46802,-0.80713,0.588,1.481,-0.45
2026-06-09 16:43:09.733,2906929189,217733,1,0.01929,-0.97852,0.10791,0.55,2.321,0.405
2026-06-09 16:43:09.733,2906929189,217733,2,-0.01953,-0.46387,-0.81567,0.656,1.55,-0.427
2026-06-09 16:43:09.934,2906929390,217933,1,0.01392,-0.98389,0.10547,0.527,2.282,0.534
2026-06-09 16:43:09.934,2906929390,217933,2,-0.01807,-0.45972,-0.80981,0.481,1.565,-0.427
2026-06-09 16:43:09.133,2906928589,218133,1,0.01978,-0.97388,0.1106,0.702,2.435,0.519
2026-06-09 16:43:09.133,2906928589,218133,2,-0.01807,-0.46118,-0.82031,0.656,1.649,-0.489
2026-06-09 16:43:09.333,2906928789,218333,1,0.01831,-0.97534,0.10913,0.573,2.275,0.527
2026-06-09 16:43:09.333,2906928789,218333,2,-0.01465,-0.46655,-0.8147,0.519,1.573,-0.588
2026-06-09 16:43:10.533,2906929989,218533,1,0.01343,-0.98364,0.1167,0.74,2.191,0.534
2026-06-09 16:43:10.533,2906929989,218533,2,-0.01978,-0.46216,-0.82715,0.496,1.588,-0.351
2026-06-09 16:43:10.733,2906930189,218733,1,0.01318,-0.97681,0.10498,0.634,2.557,0.55
2026-06-09 16:43:10.733,2906930189,218733,2,-0.01587,-0.46265,-0.81689,0.58,1.534,-0.443
2026-06-09 16:43:10.933,2906930389,218933,1,0.01392,-0.97607,0.11157,0.542,2.344,0.527
2026-06-09 16:43:10.933,2906930389,218933,2,-0.01318,-0.46924,-0.80713,0.687,1.603,-0.481
2026-06-09 16:43:10.133,2906929589,219133,1,0.0188,-0.97705,0.10742,0.641,2.305,0.427
2026-06-09 16:43:10.133,2906929589,219133,2,-0.01831,-0.46094,-0.81958,0.496,1.779,-0.489
2026-06-09 16:43:10.333,2906929789,219333,1,0.01733,-0.97559,0.11108,0.695,2.336,0.542
2026-06-09 16:43:10.333,2906929789,219333,2,-0.01904,-0.46753,-0.82617,0.664,1.527,-0.481
2026-06-09 16:43:11.533,2906930989,219533,1,0.01709,-0.97974,0.12183,0.679,2.366,0.527
2026-06-09 16:43:11.533,2906930989,219533,2,-0.01318,-0.46606,-0.81738,0.534,1.565,-0.45
2026-06-09 16:43:11.733,2906931189,219733,1,0.01147,-0.97583,0.10815,0.763,2.45,0.511
2026-06-09 16:43:11.733,2906931189,219733,2,-0.0166,-0.46362,-0.81494,0.55,1.565,-0.534
2026-06-09 16:43:11.933,2906931389,219933,1,0.01025,-0.97583,0.09277,0.504,2.191,0.481
2026-06-09 16:43:11.933,2906931389,219933,2,-0.01685,-0.4646,-0.823,0.634,1.481,-0.359
2026-06-09 16:43:11.133,2906930589,220133,1,0.01685,-0.9751,0.11304,0.641,2.336,0.618
2026-06-09 16:43:11.133,2906930589,220133,2,-0.01929,-0.47021,-0.81519,0.557,1.634,-0.527
2026-06-09 16:43:11.333,2906930789,220333,1,0.01904,-0.97559,0.11914,0.603,2.443,0.71
2026-06-09 16:43:11.333,2906930789,220333,2,-0.01953,-0.46655,-0.81494,0.672,1.573,-0.397
2026-06-09 16:43:12.533,2906931989,220533,1,0.01147,-0.979,0.10791,0.565,2.282,0.473
2026-06-09 16:43:12.533,2906931989,220533,2,-0.02002,-0.46265,-0.82617,0.42,1.618,-0.298
2026-06-09 16:43:12.733,2906932189,220733,1,0.02002,-0.97852,0.11548,0.359,2.435,0.275
2026-06-09 16:43:12.733,2906932189,220733,2,-0.02075,-0.4668,-0.81665,0.527,1.611,-0.344
2026-06-09 16:43:12.933,2906932389,220933,1,0.0166,-0.97852,0.10693,0.489,2.359,0.473
2026-06-09 16:43:12.933,2906932389,220933,2,-0.021,-0.4668,-0.81128,0.618,1.389,-0.481
2026-06-09 16:43:12.133,2906931589,221133,1,0.01807,-0.97852,0.12378,0.565,2.168,0.71
2026-06-09 16:43:12.133,2906931589,221133,2,-0.01782,-0.47021,-0.81934,0.626,1.611,-0.534
2026-06-09 16:43:12.333,2906931789,221333,1,0.01416,-0.97388,0.11206,0.733,2.374,0.534
2026-06-09 16:43:12.333,2906931789,221333,2,-0.02222,-0.46533,-0.81738,0.504,1.534,-0.412
2026-06-09 16:43:13.533,2906932989,221533,1,0.01514,-0.97314,0.11816,0.458,2.252,0.435
2026-06-09 16:43:13.533,2906932989,221533,2,-0.01563,-0.46436,-0.81982,0.595,1.603,-0.511
2026-06-09 16:43:13.733,2906933189,221733,1,0.01001,-0.98071,0.10889,0.412,2.397,0.443
2026-06-09 16:43:13.733,2906933189,221733,2,-0.01831,-0.46313,-0.8103,0.55,1.611,-0.344
2026-06-09 16:43:13.933,2906933389,221933,1,0.02002,-0.98242,0.10718,0.565,2.137,0.565
2026-06-09 16:43:13.933,2906933389,221933,2,-0.01709,-0.46045,-0.8186,0.725,1.626,-0.351
2026-06-09 16:43:13.133,2906932589,222133,1,0.01758,-0.97803,0.11621,0.611,2.397,0.504
2026-06-09 16:43:13.133,2906932589,222133,2,-0.0188,-0.46875,-0.81763,0.542,1.595,-0.214
2026-06-09 16:43:13.333,2906932789,222333,1,0.02124,-0.97925,0.11255,0.435,2.42,0.519
2026-06-09 16:43:13.333,2906932789,222333,2,-0.02075,-0.46509,-0.823,0.656,1.832,-0.397
2026-06-09 16:43:14.651,2906934107,222651,1,0.01489,-0.98169,0.11255,0.664,2.214,0.557
2026-06-09 16:43:14.651,2906934107,222651,2,-0.01514,-0.46411,-0.81299,0.695,1.641,-0.58
2026-06-09 16:43:14.851,2906934307,222851,1,0.01685,-0.98169,0.10645,0.534,2.351,0.595
2026-06-09 16:43:14.851,2906934307,222851,2,-0.01147,-0.46509,-0.81714,0.42,1.656,-0.466
2026-06-09 16:43:14.051,2906933507,223051,1,0.0127,-0.97827,0.09741,0.634,2.42,0.458
2026-06-09 16:43:14.051,2906933507,223051,2,-0.01807,-0.46387,-0.82373,0.634,1.603,-0.466
2026-06-09 16:43:14.251,2906933707,223251,1,0.02222,-0.98169,0.10669,0.725,2.267,0.588
2026-06-09 16:43:14.251,2906933707,223251,2,-0.02002,-0.4668,-0.81128,0.527,1.58,-0.374
2026-06-09 16:43:15.451,2906934907,223451,1,0.01514,-0.98535,0.11646,0.405,2.092,0.374
2026-06-09 16:43:15.451,2906934907,223451,2,-0.01782,-0.46948,-0.81592,0.588,1.557,-0.412
2026-06-09 16:43:15.651,2906935107,223651,1,0.01514,-0.97217,0.1167,0.626,2.267,0.382
2026-06-09 16:43:15.651,2906935107,223651,2,-0.01929,-0.46899,-0.81958,0.626,1.496,-0.473
2026-06-09 16:43:15.851,2906935307,223851,1,0.01318,-0.979,0.10986,0.733,2.214,0.42
2026-06-09 16:43:15.851,2906935307,223851,2,-0.01733,-0.46265,-0.8147,0.466,1.664,-0.42
2026-06-09 16:43:15.051,2906934507,224051,1,0.01563,-0.97925,0.11328,0.634,2.45,0.481
2026-06-09 16:43:15.051,2906934507,224051,2,-0.01709,-0.46729,-0.82324,0.565,1.519,-0.397
2026-06-09 16:43:15.251,2906934707,224251,1,0.01758,-0.97949,0.11108,0.649,2.374,0.603
2026-06-09 16:43:15.251,2906934707,224251,2,-0.02441,-0.46631,-0.80615,0.45,1.588,-0.435
2026-06-09 16:43:16.451,2906935907,224451,1,0.01978,-0.98022,0.10571,0.557,2.305,0.649
2026-06-09 16:43:16.451,2906935907,224451,2,-0.01514,-0.46875,-0.82495,0.565,1.542,-0.466
2026-06-09 16:43:16.651,2906936107,224651,1,0.00928,-0.97632,0.10742,0.672,2.237,0.611
2026-06-09 16:43:16.651,2906936107,224651,2,-0.02222,-0.47021,-0.81714,0.588,1.58,-0.427
2026-06-09 16:43:16.851,2906936307,224851,1,0.01489,-0.97754,0.11646,0.466,2.206,0.534
2026-06-09 16:43:16.851,2906936307,224851,2,-0.01831,-0.47046,-0.81885,0.649,1.504,-0.542
2026-06-09 16:43:16.051,2906935507,225051,1,0.0144,-0.97827,0.11279,0.458,2.351,0.366
2026-06-09 16:43:16.051,2906935507,225051,2,-0.01196,-0.46265,-0.82495,0.42,1.496,-0.427
2026-06-09 16:43:16.251,2906935707,225251,1,0.0127,-0.98291,0.10791,0.603,2.252,0.534
2026-06-09 16:43:16.251,2906935707,225251,2,-0.01563,-0.45898,-0.81152,0.504,1.519,-0.328
2026-06-09 16:43:17.451,2906936907,225451,1,0.01392,-0.98096,0.11646,0.702,2.313,0.611
2026-06-09 16:43:17.451,2906936907,225451,2,-0.01611,-0.46655,-0.81567,0.679,1.672,-0.405
2026-06-09 16:43:17.651,2906937107,225651,1,0.02051,-0.98193,0.11304,0.634,2.573,0.489
2026-06-09 16:43:17.651,2906937107,225651,2,-0.02002,-0.46631,-0.80493,0.489,1.687,-0.458
2026-06-09 16:43:17.851,2906937307,225851,1,0.0127,-0.97754,0.10791,0.794,2.427,0.496
2026-06-09 16:43:17.851,2906937307,225851,2,-0.01611,-0.46411,-0.82788,0.534,1.481,-0.45
2026-06-09 16:43:17.051,2906936507,226051,1,0.01953,-0.98291,0.11499,0.595,2.29,0.382
2026-06-09 16:43:17.051,2906936507,226051,2,-0.01587,-0.46436,-0.81958,0.443,1.725,-0.366
2026-06-09 16:43:17.251,2906936707,226251,1,0.01636,-0.98047,0.11792,0.672,2.313,0.527
2026-06-09 16:43:17.251,2906936707,226251,2,-0.0188,-0.46558,-0.81616,0.542,1.618,-0.573
2026-06-09 16:43:18.451,2906937907,226451,1,0.01782,-0.98218,0.10889,0.618,2.534,0.656
2026-06-09 16:43:18.451,2906937907,226451,2,-0.01733,-0.46191,-0.81836,0.763,1.58,-0.481
2026-06-09 16:43:18.651,2906938107,226651,1,0.02075,-0.97119,0.11694,0.328,2.29,0.557
2026-06-09 16:43:18.651,2906938107,226651,2,-0.02466,-0.4646,-0.81152,0.656,1.466,-0.634
2026-06-09 16:43:18.851,2906938307,226851,1,0.0127,-0.97144,0.10425,0.748,2.412,0.389
2026-06-09 16:43:18.851,2906938307,226851,2,-0.02002,-0.46802,-0.81201,0.71,1.557,-0.359
2026-06-09 16:43:18.051,2906937507,227051,1,0.02124,-0.98022,0.10034,0.611,2.389,0.336
2026-06-09 16:43:18.051,2906937507,227051,2,-0.01978,-0.46729,-0.80713,0.71,1.45,-0.321
2026-06-09 16:43:18.251,2906937707,227251,1,0.01929,-0.97974,0.11279,0.527,2.405,0.618
2026-06-09 16:43:18.251,2906937707,227251,2,-0.02051,-0.46851,-0.82324,0.725,1.626,-0.466
2026-06-09 16:43:19.451,2906938907,227451,1,0.01587,-0.97852,0.10962,0.695,2.359,0.45
2026-06-09 16:43:19.451,2906938907,227451,2,-0.02075,-0.4646,-0.82031,0.595,1.527,-0.42
2026-06-09 16:43:19.651,2906939107,227651,1,0.01709,-0.97485,0.11328,0.565,2.26,0.473
2026-06-09 16:43:19.651,2906939107,227651,2,-0.02222,-0.46167,-0.8147,0.611,1.511,-0.389
2026-06-09 16:43:19.851,2906939307,227851,1,0.01465,-0.97583,0.10645,0.481,2.237,0.527
2026-06-09 16:43:19.851,2906939307,227851,2,-0.01733,-0.46362,-0.81055,0.527,1.565,-0.534
2026-06-09 16:43:19.053,2906938509,228053,1,0.01294,-0.98071,0.11011,0.71,2.237,0.473
2026-06-09 16:43:19.053,2906938509,228053,2,-0.021,-0.46509,-0.81494,0.496,1.656,-0.275
2026-06-09 16:43:19.263,2906938719,228263,1,0.01611,-0.97876,0.11108,0.74,2.366,0.389
2026-06-09 16:43:19.263,2906938719,228263,2,-0.01978,-0.47046,-0.82129,0.664,1.504,-0.45
2026-06-09 16:43:20.692,2906940148,228692,1,0.01685,-0.97803,0.10962,0.611,2.282,0.695
2026-06-09 16:43:20.692,2906940148,228692,2,-0.01489,-0.46655,-0.81592,0.725,1.756,-0.344
2026-06-09 16:43:20.088,2906939544,229088,1,0.01831,-0.97778,0.11475,0.71,2.42,0.519
2026-06-09 16:43:20.088,2906939544,229088,2,-0.02197,-0.46436,-0.82422,0.626,1.458,-0.481
2026-06-09 16:43:20.288,2906939744,229288,1,0.01978,-0.97656,0.10352,0.695,2.336,0.519
2026-06-09 16:43:20.288,2906939744,229288,2,-0.0166,-0.46216,-0.81616,0.443,1.55,-0.427
2026-06-09 16:43:21.508,2906940964,229508,1,0.01416,-0.97949,0.10815,0.603,2.359,0.58
2026-06-09 16:43:21.508,2906940964,229508,2,-0.02124,-0.4668,-0.81958,0.588,1.687,-0.443
2026-06-09 16:43:21.708,2906941164,229708,1,0.02002,-0.97754,0.11353,0.786,2.351,0.58
2026-06-09 16:43:21.708,2906941164,229708,2,-0.01758,-0.46851,-0.81543,0.725,1.58,-0.336
2026-06-09 16:43:21.908,2906941364,229908,1,0.01294,-0.97876,0.10913,0.496,2.29,0.496
2026-06-09 16:43:21.908,2906941364,229908,2,-0.0144,-0.46777,-0.81812,0.756,1.672,-0.321
2026-06-09 16:43:21.908,2906941364,229908,2,-0.0144,-0.46777,-0.81812,0.756,1.672,-0.321
2026-06-09 16:43:26.078,2906945534,235078,1,0.0105,-0.97705,0.11499,0.55,2.382,0.603
2026-06-09 16:43:26.078,2906945534,235078,2,-0.01929,-0.46899,-0.81494,0.641,1.565,-0.42
2026-06-09 16:43:26.278,2906945734,235278,1,0.01343,-0.97241,0.11377,0.603,2.282,0.496
2026-06-09 16:43:26.278,2906945734,235278,2,-0.01245,-0.46729,-0.81372,0.611,1.664,-0.527
2026-06-09 16:43:27.478,2906946934,235478,1,0.01782,-0.97485,0.10376,0.679,2.29,0.458
2026-06-09 16:43:27.478,2906946934,235478,2,-0.01514,-0.46313,-0.81567,0.573,1.718,-0.321
2026-06-09 16:43:27.678,2906947134,235678,1,0.01709,-0.979,0.10645,0.473,2.313,0.718
2026-06-09 16:43:27.678,2906947134,235678,2,-0.01758,-0.46533,-0.81665,0.672,1.542,-0.382
