datetime,epoch_ms,ts_millis,mpu_id,ax,ay,az,gx,gy,gz
2026-06-01T15:32:54.410262,,,,,,,,,
2026-06-01 15:32:54.233,2211513689,9233,1,0.95728,0.12109,0.4895,16.832,7.534,-0.298
2026-06-01 15:32:54.233,2211513689,9233,2,0.99219,0.03931,-0.39966,14.038,0.13,-2.496
2026-06-01 15:32:54.433,2211513889,9433,1,0.97119,0.13892,0.50024,3.947,2.771,-2.344
2026-06-01 15:32:54.433,2211513889,9433,2,0.97314,0.00342,-0.38794,-5.038,-0.427,1.405
2026-06-01 15:32:54.633,2211514089,9633,1,0.96777,0.14136,0.50293,-15.351,-0.458,-3.443
2026-06-01 15:32:54.633,2211514089,9633,2,0.98389,-0.0083,-0.38159,-5.122,2.641,3.359
2026-06-01 15:32:54.833,2211514289,9833,1,0.94873,0.11865,0.53711,-6.0,0.985,-2.427
2026-06-01 15:32:54.833,2211514289,9833,2,1.00415,-0.05566,-0.36816,2.366,-1.618,4.481
2026-06-01 15:32:54.033,2211513489,10033,1,0.95947,0.13086,0.50757,1.664,3.603,0.962
2026-06-01 15:32:54.033,2211513489,10033,2,0.92651,0.03223,-0.3645,-1.137,-3.74,-4.641
2026-06-01 15:32:55.233,2211514689,10233,1,0.96777,0.01978,0.52075,-5.328,-1.756,-1.511
2026-06-01 15:32:55.233,2211514689,10233,2,0.9729,-0.02905,-0.40552,-13.298,4.702,-2.718
2026-06-01 15:32:55.433,2211514889,10433,1,1.00781,0.04321,0.48242,17.382,5.191,8.809
2026-06-01 15:32:55.433,2211514889,10433,2,0.99536,-0.01074,-0.40308,32.122,22.962,-10.107
2026-06-01 15:32:55.633,2211515089,10633,1,0.98193,0.10107,0.48608,48.244,18.863,16.412
2026-06-01 15:32:55.633,2211515089,10633,2,1.02222,0.00098,-0.22559,57.779,42.824,-6.206
2026-06-01 15:32:55.833,2211515289,10833,1,0.93579,0.10229,0.56274,34.718,29.87,15.427
2026-06-01 15:32:55.833,2211515289,10833,2,1.06177,0.00317,-0.15186,54.214,32.344,3.237
2026-06-01 15:32:55.033,2211514489,11033,1,0.87036,0.23804,0.66138,61.321,31.496,29.702
2026-06-01 15:32:55.033,2211514489,11033,2,1.01685,0.15356,-0.02661,73.198,29.832,-2.557
2026-06-01 15:32:56.233,2211515689,11233,1,0.83765,0.22852,0.67529,36.16,12.252,30.511
2026-06-01 15:32:56.233,2211515689,11233,2,0.99609,0.14941,0.06445,36.847,-8.58,2.344
2026-06-01 15:32:56.433,2211515889,11433,1,0.87061,0.18872,0.65063,23.092,0.924,26.58
2026-06-01 15:32:56.433,2211515889,11433,2,1.02222,0.05713,-0.02954,16.992,-22.206,6.176
2026-06-01 15:32:56.633,2211516089,11633,1,0.88599,0.10498,0.62451,21.55,-9.977,29.061
2026-06-01 15:32:56.633,2211516089,11633,2,1.00366,0.052,-0.09106,25.679,-26.191,-1.626
2026-06-01 15:32:56.833,2211516289,11833,1,0.91602,0.01855,0.57129,28.687,-16.038,23.282
2026-06-01 15:32:56.833,2211516289,11833,2,1.01514,0.03784,-0.13232,50.397,-11.672,-14.229
2026-06-01 15:32:56.033,2211515489,12033,1,1.06885,-0.05322,0.54224,48.901,-7.397,18.718
2026-06-01 15:32:56.033,2211515489,12033,2,1.04053,-0.01123,-0.24512,70.176,4.565,-10.931
2026-06-01 15:32:57.233,2211516689,12233,1,0.99634,-0.01318,0.52002,54.565,6.519,20.252
2026-06-01 15:32:57.233,2211516689,12233,2,0.98218,0.02539,-0.25708,64.076,0.046,-9.313
2026-06-01 15:32:57.433,2211516889,12433,1,1.00806,0.03418,0.54712,72.809,16.282,21.641
2026-06-01 15:32:57.433,2211516889,12433,2,0.97412,0.04321,-0.29932,114.656,27.679,-21.885
2026-06-01 15:32:57.633,2211517089,12633,1,0.93408,0.11108,0.51709,58.099,20.0,18.947
2026-06-01 15:32:57.633,2211517089,12633,2,1.01563,0.0415,-0.17285,88.931,27.092,-4.145
2026-06-01 15:32:57.833,2211517289,12833,1,0.92407,0.13965,0.53735,59.496,16.519,21.679
2026-06-01 15:32:57.833,2211517289,12833,2,0.9917,0.06738,-0.15332,69.931,21.023,-5.244
2026-06-01 15:32:57.033,2211516489,13033,1,0.95264,0.22559,0.53589,32.321,-0.092,16.176
2026-06-01 15:32:57.033,2211516489,13033,2,1.07666,0.15942,-0.13867,16.489,0.748,3.977
2026-06-01 15:32:58.233,2211517689,13233,1,0.95239,0.15576,0.52905,-2.412,-3.366,3.985
2026-06-01 15:32:58.233,2211517689,13233,2,0.99072,0.04907,-0.11865,0.634,-10.115,-2.634
2026-06-01 15:32:58.433,2211517889,13433,1,0.99268,0.18701,0.53125,10.87,-1.901,0.198
2026-06-01 15:32:58.433,2211517889,13433,2,1.0564,0.10107,-0.1958,-0.756,-18.244,-0.496
2026-06-01 15:32:58.633,2211518089,13633,1,0.91138,0.20679,0.49902,-3.267,3.336,-1.473
2026-06-01 15:32:58.633,2211518089,13633,2,1.00269,0.00708,-0.1582,4.519,-4.504,14.214
2026-06-01 15:32:58.833,2211518289,13833,1,0.94116,0.09961,0.53052,-0.71,7.534,10.954
2026-06-01 15:32:58.833,2211518289,13833,2,1.03345,0.00146,-0.24414,1.824,3.076,2.733
2026-06-01 15:32:58.033,2211517489,14033,1,0.92603,0.12427,0.56201,8.061,5.176,9.603
2026-06-01 15:32:58.033,2211517489,14033,2,1.01147,0.01172,-0.20972,-7.473,-9.664,4.542
2026-06-01 15:32:59.233,2211518689,14233,1,0.94067,0.11719,0.54297,-13.412,-2.893,6.611
2026-06-01 15:32:59.233,2211518689,14233,2,1.01025,0.02979,-0.2229,-35.855,-4.901,5.053
2026-06-01 15:32:59.433,2211518889,14433,1,0.9668,0.03369,0.51318,-40.405,-10.145,-13.718
2026-06-01 15:32:59.433,2211518889,14433,2,1.0293,-0.02295,-0.2981,-56.939,-17.42,6.718
2026-06-01 15:32:59.633,2211519089,14633,1,1.00317,0.01099,0.48999,-38.626,-5.023,-18.664
2026-06-01 15:32:59.633,2211519089,14633,2,1.00146,-0.04321,-0.32129,-28.16,-8.214,11.267
2026-06-01 15:32:59.833,2211519289,14833,1,0.97559,0.03247,0.49536,-18.053,3.702,-9.695
2026-06-01 15:32:59.833,2211519289,14833,2,1.00342,0.01831,-0.3291,-20.015,3.748,4.832
2026-06-01 15:32:59.033,2211518489,15033,1,0.98022,0.04077,0.51147,-14.809,2.168,-9.672
2026-06-01 15:32:59.033,2211518489,15033,2,1.0,-0.01221,-0.29712,-9.992,5.031,1.786
2026-06-01 15:33:00.233,2211519689,15233,1,0.96533,0.02588,0.53833,6.313,4.885,-6.58
2026-06-01 15:33:00.233,2211519689,15233,2,1.0105,0.00342,-0.28369,5.893,6.71,-8.847
2026-06-01 15:33:00.433,2211519889,15433,1,0.94458,0.10645,0.5437,-1.534,2.481,-6.305
2026-06-01 15:33:00.433,2211519889,15433,2,0.99634,0.01172,-0.27563,-0.13,-7.527,-0.198
2026-06-01 15:33:00.633,2211520089,15633,1,0.95435,0.08984,0.53076,2.366,1.0,2.359
2026-06-01 15:33:00.633,2211520089,15633,2,1.00781,-0.00781,-0.25757,9.069,2.061,1.023
2026-06-01 15:33:00.833,2211520289,15833,1,0.96216,0.09839,0.52319,6.771,3.443,2.443
2026-06-01 15:33:00.833,2211520289,15833,2,1.01953,0.00684,-0.2644,12.954,5.733,0.122
2026-06-01 15:33:00.033,2211519489,16033,1,0.96265,0.12402,0.52881,3.786,2.58,3.084
2026-06-01 15:33:00.033,2211519489,16033,2,1.00488,0.00708,-0.25757,4.519,0.015,2.588
2026-06-01 15:33:01.233,2211520689,16233,1,0.96387,0.08032,0.53979,5.908,2.794,4.87
2026-06-01 15:33:01.233,2211520689,16233,2,1.01636,-0.03638,-0.25586,8.405,2.695,0.504
2026-06-01 15:33:01.433,2211520889,16433,1,0.97974,0.04614,0.51831,12.87,5.595,9.779
2026-06-01 15:33:01.433,2211520889,16433,2,1.0271,-0.03735,-0.21216,40.71,19.702,-0.687
2026-06-01 15:33:01.633,2211521089,16633,1,0.95361,0.06104,0.56299,21.076,10.718,9.809
2026-06-01 15:33:01.633,2211521089,16633,2,1.0166,-0.00488,-0.16675,18.679,11.328,-2.305
2026-06-01 15:33:01.833,2211521289,16833,1,0.92432,0.08179,0.57544,4.473,7.244,4.84
2026-06-01 15:33:01.833,2211521289,16833,2,1.01392,-0.04004,-0.13916,9.42,6.504,4.389
2026-06-01 15:33:01.033,2211520489,17033,1,0.93433,0.04004,0.59741,-2.74,1.046,0.725
2026-06-01 15:33:01.033,2211520489,17033,2,1.02856,-0.03638,-0.11475,-2.038,2.786,-0.733
2026-06-01 15:33:02.233,2211521689,17233,1,0.93237,0.04761,0.58838,0.931,-1.038,-1.328
2026-06-01 15:33:02.233,2211521689,17233,2,1.02319,0.02075,-0.11304,-24.168,-4.87,-8.153
2026-06-01 15:33:02.433,2211521889,17433,1,0.95532,0.04858,0.5415,0.893,0.908,-9.893
2026-06-01 15:33:02.433,2211521889,17433,2,1.03564,-0.00024,-0.09644,-3.977,0.42,-2.504
2026-06-01 15:33:02.633,2211522089,17633,1,0.94653,0.11035,0.56079,2.458,3.626,-8.794
2026-06-01 15:33:02.633,2211522089,17633,2,1.01343,-0.00122,-0.11279,-11.687,-2.916,-1.718
2026-06-01 15:33:02.833,2211522289,17833,1,0.9314,0.10132,0.57251,-2.168,1.977,-2.55
2026-06-01 15:33:02.833,2211522289,17833,2,1.03467,-0.01123,-0.14209,-3.672,-1.618,-0.573
2026-06-01 15:33:02.033,2211521489,18033,1,0.9436,0.11914,0.55908,4.748,1.931,0.55
2026-06-01 15:33:02.033,2211521489,18033,2,1.02905,-0.00293,-0.14258,-0.252,-2.573,0.603
2026-06-01 15:33:03.233,2211522689,18233,1,0.92505,0.11377,0.56055,15.84,6.031,4.969
2026-06-01 15:33:03.233,2211522689,18233,2,1.02441,-0.03613,-0.17822,19.038,0.954,-0.443
2026-06-01 15:33:03.433,2211522889,18433,1,0.92822,0.09692,0.57349,23.069,5.84,11.076
2026-06-01 15:33:03.433,2211522889,18433,2,1.02417,0.03931,-0.12891,22.809,7.382,-2.702
2026-06-01 15:33:03.633,2211523089,18633,1,0.93555,0.13647,0.56299,9.366,5.466,7.656
2026-06-01 15:33:03.633,2211523089,18633,2,1.02905,0.01782,-0.10693,-4.504,6.092,5.237
2026-06-01 15:33:03.833,2211523289,18833,1,0.94409,0.125,0.5896,2.58,8.244,2.061
2026-06-01 15:33:03.833,2211523289,18833,2,1.01514,-0.00513,-0.11987,-17.229,10.802,4.168
2026-06-01 15:33:03.033,2211522489,19033,1,0.91772,0.08667,0.61548,-15.183,6.443,-1.565
2026-06-01 15:33:03.033,2211522489,19033,2,1.0144,-0.02222,-0.07886,-9.267,-0.336,-3.901
2026-06-01 15:33:04.233,2211523689,19233,1,0.96094,0.05029,0.59131,2.725,-1.008,12.046
2026-06-01 15:33:04.233,2211523689,19233,2,1.02246,0.02954,0.02246,26.328,29.023,7.634
2026-06-01 15:33:04.433,2211523889,19433,1,0.93726,0.07129,0.58179,12.55,10.183,7.611
2026-06-01 15:33:04.433,2211523889,19433,2,1.04663,-0.04102,-0.06177,58.511,12.527,4.473
2026-06-01 15:33:04.633,2211524089,19633,1,0.92432,0.08838,0.62817,13.053,12.435,8.58
2026-06-01 15:33:04.633,2211524089,19633,2,1.02246,0.00293,-0.05005,20.229,0.74,0.061
2026-06-01 15:33:04.833,2211524289,19833,1,0.84326,0.08374,0.6709,6.076,-1.771,8.626
2026-06-01 15:33:04.833,2211524289,19833,2,1.0188,0.06958,-0.00928,8.176,-22.145,1.511
2026-06-01 15:33:04.033,2211523489,20033,1,0.86694,-0.01001,0.64673,-12.763,-9.443,0.786
2026-06-01 15:33:04.033,2211523489,20033,2,0.97192,-0.10376,-0.07227,-5.42,-1.427,1.656
2026-06-01 15:33:05.233,2211524689,20233,1,0.93335,-0.04248,0.55737,-6.809,-7.412,3.969
2026-06-01 15:33:05.233,2211524689,20233,2,1.0354,0.01416,-0.10059,4.87,-4.603,2.008
2026-06-01 15:33:05.451,2211524907,20451,1,0.94238,-0.03638,0.53784,2.702,6.527,-0.443
2026-06-01 15:33:05.451,2211524907,20451,2,1.00586,-0.0144,-0.21045,25.687,-25.122,-16.313
2026-06-01 15:33:05.843,2211525299,20843,1,0.96338,0.04419,0.51196,18.573,-0.962,-5.84
2026-06-01 15:33:05.843,2211525299,20843,2,1.22827,0.05957,0.13257,-71.802,13.809,-3.756
2026-06-01 15:33:05.043,2211524499,21043,1,0.85327,0.15869,0.62109,12.076,5.16,-7.435
2026-06-01 15:33:05.043,2211524499,21043,2,1.13867,0.19604,-0.04907,65.206,19.359,-0.458
2026-06-01 15:33:06.243,2211525699,21243,1,0.87549,0.15259,0.56299,8.969,7.122,-3.809
2026-06-01 15:33:06.243,2211525699,21243,2,0.99292,0.1626,0.01611,-20.282,4.931,-1.802
2026-06-01 15:33:06.443,2211525899,21443,1,0.91284,0.17383,0.59106,-10.748,2.45,-4.366
2026-06-01 15:33:06.443,2211525899,21443,2,0.99048,0.21704,-0.04272,-54.0,-7.237,-8.206
2026-06-01 15:33:06.643,2211526099,21643,1,0.90942,0.22681,0.52563,-45.504,-8.557,-17.313
2026-06-01 15:33:06.643,2211526099,21643,2,1.00928,0.16992,-0.07495,-51.13,-32.504,6.519
2026-06-01 15:33:06.843,2211526299,21843,1,0.89966,0.04102,0.59058,-27.954,12.885,0.382
2026-06-01 15:33:06.843,2211526299,21843,2,1.00366,0.12842,-0.1084,-48.939,0.954,0.176
2026-06-01 15:33:06.043,2211525499,22043,1,0.94434,0.03345,0.53296,-48.893,-15.389,-6.115
2026-06-01 15:33:06.043,2211525499,22043,2,1.04858,0.01367,-0.21631,-52.511,-21.244,15.298
2026-06-01 15:33:07.243,2211526699,22243,1,1.00562,-0.03882,0.47632,-56.107,-1.328,-19.321
2026-06-01 15:33:07.243,2211526699,22243,2,1.00854,-0.06543,-0.35278,-50.511,-8.458,25.214
2026-06-01 15:33:07.443,2211526899,22443,1,0.99463,-0.16577,0.4939,-49.954,0.221,-19.481
2026-06-01 15:33:07.443,2211526899,22443,2,0.99438,-0.09717,-0.34375,-39.824,-7.718,20.58
2026-06-01 15:33:07.643,2211527099,22643,1,0.97925,-0.11401,0.47583,-40.649,11.618,-22.985
2026-06-01 15:33:07.643,2211527099,22643,2,0.93823,-0.0603,-0.4021,-48.313,-9.336,3.252
2026-06-01 15:33:07.843,2211527299,22843,1,1.02344,-0.04468,0.46558,-17.382,-4.275,-14.29
2026-06-01 15:33:07.843,2211527299,22843,2,1.0144,-0.0437,-0.29907,-7.84,6.305,4.328
2026-06-01 15:33:07.043,2211526499,23043,1,0.98706,-0.04028,0.50073,-2.26,3.275,-4.87
2026-06-01 15:33:07.043,2211526499,23043,2,0.979,-0.01074,-0.33057,-5.55,-0.038,2.878
2026-06-01 15:33:08.243,2211527699,23243,1,0.98022,-0.02295,0.50195,6.214,3.466,4.359
2026-06-01 15:33:08.243,2211527699,23243,2,0.9707,-0.01563,-0.33691,5.115,-1.237,-1.542
2026-06-01 15:33:08.443,2211527899,23443,1,0.96631,-0.02173,0.52026,9.847,6.496,3.053
2026-06-01 15:33:08.443,2211527899,23443,2,0.9751,-0.04224,-0.34863,5.542,6.84,-2.641
2026-06-01 15:33:08.643,2211528099,23643,1,0.97852,-0.0127,0.51343,7.573,1.229,0.176
2026-06-01 15:33:08.643,2211528099,23643,2,0.98877,-0.00513,-0.34814,1.321,1.405,-2.702
2026-06-01 15:33:08.843,2211528299,23843,1,0.96533,0.0127,0.50439,4.076,2.908,-3.687
2026-06-01 15:33:08.843,2211528299,23843,2,1.00024,-0.00024,-0.34619,-3.962,-0.466,-1.443
2026-06-01T15:33:09.361804,,,,,,,,,
2026-06-01 15:33:08.043,2211527499,24043,1,0.96875,0.02563,0.51514,-2.206,1.809,-3.313
2026-06-01 15:33:08.043,2211527499,24043,2,0.98389,-0.0083,-0.35571,0.191,0.832,0.221
2026-06-01 15:33:09.243,2211528699,24243,1,0.9668,0.02222,0.5166,0.076,3.977,-4.45
2026-06-01 15:33:09.243,2211528699,24243,2,0.98975,0.00366,-0.33447,-10.084,2.756,1.466
2026-06-01 15:33:09.443,2211528899,24443,1,0.97485,0.01978,0.53271,-5.267,3.023,-6.145
2026-06-01 15:33:09.443,2211528899,24443,2,0.99243,-0.02759,-0.34399,0.672,3.504,0.771
2026-06-01 15:33:09.643,2211529099,24643,1,0.9541,0.04541,0.5564,1.824,3.901,-1.092
2026-06-01 15:33:09.643,2211529099,24643,2,0.98242,0.00708,-0.32373,0.153,3.099,-2.595
2026-06-01 15:33:09.843,2211529299,24843,1,0.94678,0.01172,0.57739,2.817,2.542,-5.214
2026-06-01 15:33:09.843,2211529299,24843,2,1.00757,0.01733,-0.3623,11.458,7.015,-1.481
2026-06-01 15:33:09.053,2211528509,25053,1,0.93701,0.04248,0.54541,-8.725,0.992,-3.16
2026-06-01 15:33:09.053,2211528509,25053,2,0.99731,0.01978,-0.30542,4.038,2.641,-0.092
2026-06-01 15:33:10.253,2211529709,25253,1,0.93359,0.04272,0.54297,3.496,-0.672,0.244
2026-06-01 15:33:10.253,2211529709,25253,2,0.99634,-0.00073,-0.34058,-1.237,-5.84,-1.924
2026-06-01 15:33:10.453,2211529909,25453,1,0.99878,0.06274,0.51758,0.038,-0.733,-2.405
2026-06-01 15:33:10.453,2211529909,25453,2,1.00439,0.00806,-0.36475,-6.733,-4.252,2.527
2026-06-01 15:33:10.653,2211530109,25653,1,0.95239,0.02417,0.52466,-2.366,-0.725,0.038
2026-06-01 15:33:10.653,2211530109,25653,2,0.97241,0.03638,-0.35425,2.26,0.756,2.672
2026-06-01 15:33:10.853,2211530309,25853,1,0.96143,0.03418,0.53589,-7.473,2.015,-2.55
2026-06-01 15:33:10.853,2211530309,25853,2,0.979,-0.00317,-0.38525,-3.542,-0.672,4.267
2026-06-01 15:33:10.073,2211529529,26072,1,0.9668,0.02148,0.53223,-0.359,1.595,-1.893
2026-06-01 15:33:10.073,2211529529,26072,2,0.97217,0.00244,-0.38232,-2.45,-3.443,-0.092
2026-06-01 15:33:11.272,2211530728,26272,1,0.95313,0.04419,0.53613,-3.473,-0.595,-2.565
2026-06-01 15:33:11.272,2211530728,26272,2,0.9856,0.02173,-0.39746,-3.366,2.947,-0.649
2026-06-01 15:33:11.472,2211530928,26472,1,0.95313,0.05005,0.56201,6.0,3.908,1.382
2026-06-01 15:33:11.472,2211530928,26472,2,0.96997,-0.00488,-0.37744,0.847,-2.29,-1.115
2026-06-01 15:33:11.672,2211531128,26672,1,0.96777,0.03271,0.52222,6.214,3.71,2.504
2026-06-01 15:33:11.672,2211531128,26672,2,0.97803,0.02808,-0.37061,-1.092,1.061,0.611
2026-06-01 15:33:11.872,2211531328,26872,1,0.96021,0.03271,0.53052,0.031,1.634,-1.878
2026-06-01 15:33:11.872,2211531328,26872,2,0.98364,0.01392,-0.39624,0.115,2.626,0.13
2026-06-01 15:33:11.177,2211530633,27177,1,0.97827,0.02881,0.50586,-10.031,0.084,-1.511
2026-06-01 15:33:11.177,2211530633,27177,2,0.98877,0.01245,-0.38013,1.0,4.58,-0.855
2026-06-01 15:33:12.576,2211532032,27576,1,0.97192,0.03174,0.49829,-0.87,3.947,-2.359
2026-06-01 15:33:12.576,2211532032,27576,2,1.01978,0.04028,-0.35742,1.534,2.626,2.733
2026-06-01 15:33:12.776,2211532232,27776,1,0.93433,0.04785,0.59131,-1.145,2.947,-1.771
2026-06-01 15:33:12.776,2211532232,27776,2,0.99805,-0.03247,-0.27588,-4.229,3.046,0.176
2026-06-01 15:33:12.976,2211532432,27976,1,0.94507,0.00464,0.58203,-2.71,-1.244,1.275
2026-06-01 15:33:12.976,2211532432,27976,2,0.98901,-0.01294,-0.33276,7.618,0.26,-5.878
2026-06-01 15:33:12.176,2211531632,28176,1,0.9729,0.00708,0.5105,9.137,-2.221,6.191
2026-06-01 15:33:12.176,2211531632,28176,2,0.9939,0.00317,-0.35205,9.847,-1.183,-6.023
2026-06-01 15:33:13.376,2211532832,28376,1,0.99048,0.01367,0.48096,10.26,1.527,7.802
2026-06-01 15:33:13.376,2211532832,28376,2,0.99976,0.01953,-0.34033,0.519,1.275,0.969
2026-06-01 15:33:13.576,2211533032,28576,1,0.98218,0.00659,0.50586,-4.382,2.84,2.206
2026-06-01 15:33:13.576,2211533032,28576,2,1.00708,0.02954,-0.33667,-6.313,3.267,7.947
2026-06-01 15:33:13.776,2211533232,28776,1,0.95532,-0.01489,0.53662,-7.748,4.58,-3.313
2026-06-01 15:33:13.776,2211533232,28776,2,0.99463,-0.03296,-0.32153,-5.863,-0.115,4.794
2026-06-01 15:33:13.976,2211533432,28976,1,0.93848,-0.01685,0.57324,-0.786,1.954,-3.076
2026-06-01 15:33:13.976,2211533432,28976,2,0.9917,-0.04346,-0.31982,-3.809,-2.29,-1.931
2026-06-01 15:33:13.176,2211532632,29176,1,0.95654,-0.0127,0.54639,5.229,-2.237,-1.382
2026-06-01 15:33:13.176,2211532632,29176,2,0.98608,0.00659,-0.31787,5.847,-3.282,-5.832
2026-06-01 15:33:14.376,2211533832,29376,1,0.97778,-0.00757,0.51953,7.336,-1.137,-0.618
2026-06-01 15:33:14.376,2211533832,29376,2,1.01147,-0.02051,-0.34814,2.42,-5.023,-7.305
2026-06-01 15:33:14.576,2211534032,29576,1,1.00195,0.02856,0.48242,26.092,6.794,8.55
2026-06-01 15:33:14.576,2211534032,29576,2,1.00366,0.00562,-0.35767,30.779,15.771,-5.275
2026-06-01 15:33:14.776,2211534232,29776,1,0.95947,0.07104,0.52441,17.305,10.321,12.183
2026-06-01 15:33:14.776,2211534232,29776,2,1.02148,0.02734,-0.25024,16.847,8.527,6.519
2026-06-01 15:33:14.976,2211534432,29976,1,0.94165,0.0166,0.5769,-10.145,8.252,1.969
2026-06-01 15:33:14.976,2211534432,29976,2,0.99731,-0.04565,-0.26538,-12.168,2.038,9.046
2026-06-01 15:33:14.176,2211533632,30176,1,0.93701,-0.07593,0.57104,-21.145,1.855,-1.321
2026-06-01 15:33:14.176,2211533632,30176,2,0.9917,-0.05786,-0.26123,-20.534,-1.588,3.664
2026-06-01 15:33:15.376,2211534832,30376,1,0.94507,-0.04419,0.55127,-4.435,-4.786,-9.786
2026-06-01 15:33:15.376,2211534832,30376,2,0.97778,-0.04688,-0.34082,-19.038,-13.504,-0.466
2026-06-01 15:33:15.576,2211535032,30576,1,0.95605,-0.0376,0.52539,-13.336,-4.389,-7.214
2026-06-01 15:33:15.576,2211535032,30576,2,1.01514,-0.04248,-0.33301,-22.206,-22.573,5.42
2026-06-01 15:33:15.776,2211535232,30776,1,0.98657,-0.0415,0.51294,-17.962,-3.618,-12.305
2026-06-01 15:33:15.776,2211535232,30776,2,0.97485,-0.04736,-0.38672,-21.053,0.389,6.145
2026-06-01 15:33:15.976,2211535432,30976,1,0.97217,-0.0437,0.5249,-11.977,-0.267,-7.832
2026-06-01 15:33:15.976,2211535432,30976,2,0.98755,-0.06616,-0.42407,-9.374,-6.29,3.565
2026-06-01 15:33:15.176,2211534632,31176,1,0.97852,-0.05273,0.5144,2.099,1.435,1.145
2026-06-01 15:33:15.176,2211534632,31176,2,0.96411,-0.07007,-0.4231,5.687,-2.29,-2.115
2026-06-01 15:33:16.376,2211535832,31376,1,0.98096,-0.0105,0.50415,9.344,4.214,4.153
2026-06-01 15:33:16.376,2211535832,31376,2,0.97363,-0.03149,-0.40723,8.626,4.672,-3.16
2026-06-01 15:33:16.576,2211536032,31576,1,0.95923,-0.01538,0.5144,5.763,2.626,0.229
2026-06-01 15:33:16.576,2211536032,31576,2,0.97095,-0.04053,-0.4126,3.344,-3.908,-1.084
2026-06-01 15:33:16.776,2211536232,31776,1,0.97827,-0.01123,0.51025,-4.855,1.015,-0.435
2026-06-01 15:33:16.776,2211536232,31776,2,0.96704,-0.01611,-0.40845,-8.802,5.244,9.26
2026-06-01 15:33:16.976,2211536432,31976,1,0.97778,-0.03784,0.50171,-9.321,2.977,-4.229
2026-06-01 15:33:16.976,2211536432,31976,2,0.9519,-0.0647,-0.4187,-7.809,0.588,4.366
2026-06-01 15:33:16.176,2211535632,32176,1,0.97168,-0.04224,0.53223,-2.046,1.046,-3.695
2026-06-01 15:33:16.176,2211535632,32176,2,0.96436,-0.06763,-0.41162,-0.702,0.168,0.336
2026-06-01 15:33:17.376,2211536832,32376,1,0.98169,-0.02881,0.51929,-0.053,0.481,-1.893
2026-06-01 15:33:17.376,2211536832,32376,2,0.96948,-0.05298,-0.43506,-0.702,2.718,-0.336
2026-06-01 15:33:17.576,2211537032,32576,1,0.96973,-0.02295,0.50708,6.504,3.679,1.611
2026-06-01 15:33:17.576,2211537032,32576,2,0.96338,-0.04639,-0.42554,3.344,1.107,-0.191
2026-06-01 15:33:17.776,2211537232,32776,1,0.97876,-0.02173,0.51147,3.786,2.115,-0.198
2026-06-01 15:33:17.776,2211537232,32776,2,0.97461,-0.04736,-0.41919,0.015,-0.023,-1.733
2026-06-01 15:33:17.976,2211537432,32976,1,0.99902,-0.03174,0.49463,-1.931,1.206,1.008
2026-06-01 15:33:17.976,2211537432,32976,2,0.95923,-0.00146,-0.43921,6.947,1.626,0.099
2026-06-01 15:33:17.176,2211536632,33176,1,0.96753,-0.01318,0.50854,2.74,1.908,-2.122
2026-06-01 15:33:17.176,2211536632,33176,2,0.97388,-0.03516,-0.40601,-8.298,-0.427,3.13
2026-06-01 15:33:18.380,2211537836,33380,1,0.97974,-0.01929,0.50244,-0.672,3.794,-2.107
2026-06-01 15:33:18.380,2211537836,33380,2,0.96851,-0.04883,-0.41846,-3.282,8.191,2.267
2026-06-01 15:33:18.580,2211538036,33580,1,0.98242,-0.06104,0.5415,-4.053,2.603,-0.954
2026-06-01 15:33:18.580,2211538036,33580,2,0.9624,-0.04712,-0.40674,-8.122,7.473,0.45
2026-06-01 15:33:18.780,2211538236,33780,1,0.96777,-0.00439,0.51147,3.153,3.656,-0.298
2026-06-01 15:33:18.780,2211538236,33780,2,0.97241,-0.04224,-0.38623,2.489,4.504,-1.359
2026-06-01 15:33:18.980,2211538436,33980,1,0.94312,0.0127,0.52856,1.496,3.939,2.962
2026-06-01 15:33:18.980,2211538436,33980,2,0.98291,0.00415,-0.3772,-5.84,5.115,2.908
2026-06-01 15:33:18.180,2211537636,34180,1,0.95996,-0.03125,0.55664,19.145,3.664,8.42
2026-06-01 15:33:18.180,2211537636,34180,2,0.97632,-0.0542,-0.3562,23.802,4.244,-7.282
2026-06-01 15:33:19.380,2211538836,34380,1,0.96094,-0.03125,0.55151,26.153,1.901,13.29
2026-06-01 15:33:19.380,2211538836,34380,2,0.99414,-0.01343,-0.31689,24.351,2.504,-7.947
2026-06-01 15:33:19.580,2211539036,34580,1,0.95874,-0.01392,0.52734,14.74,0.038,5.466
2026-06-01 15:33:19.580,2211539036,34580,2,0.99048,-0.00732,-0.32935,12.817,-0.466,-6.802
2026-06-01 15:33:19.780,2211539236,34780,1,0.98975,-0.02588,0.51221,-0.511,-1.405,-3.351
2026-06-01 15:33:19.780,2211539236,34780,2,0.99683,-0.00269,-0.35693,-7.481,-3.786,-0.359
2026-06-01 15:33:19.980,2211539436,34980,1,0.97217,0.00171,0.52368,-2.809,3.16,-5.344
2026-06-01 15:33:19.980,2211539436,34980,2,0.99341,-0.01001,-0.34985,-4.985,-0.115,1.137
2026-06-01 15:33:19.180,2211538636,35180,1,0.96191,-0.00586,0.53125,2.595,4.252,-0.023
2026-06-01 15:33:19.180,2211538636,35180,2,1.00024,-0.02466,-0.34302,5.397,3.496,-2.0
2026-06-01 15:33:20.380,2211539836,35380,1,0.95459,0.00146,0.55078,6.626,3.153,0.603
2026-06-01 15:33:20.380,2211539836,35380,2,0.9917,-0.00684,-0.31006,1.969,2.55,-0.947
2026-06-01 15:33:20.580,2211540036,35580,1,0.9729,0.02954,0.52808,1.244,0.763,1.55
2026-06-01 15:33:20.580,2211540036,35580,2,0.99365,0.01221,-0.30273,-2.71,1.557,3.374
2026-06-01 15:33:20.780,2211540236,35780,1,0.96924,0.01172,0.53369,-5.695,1.328,-0.351
2026-06-01 15:33:20.780,2211540236,35780,2,1.0061,-0.01123,-0.30591,-3.42,3.763,5.351
2026-06-01 15:33:20.980,2211540436,35980,1,0.95264,-0.01147,0.5459,-7.603,2.351,-2.534
2026-06-01 15:33:20.980,2211540436,35980,2,1.0022,-0.03369,-0.30566,-8.244,1.13,6.092
2026-06-01 15:33:20.180,2211539636,36180,1,0.96802,-0.03687,0.56055,-9.641,-0.565,-4.267
2026-06-01 15:33:20.180,2211539636,36180,2,0.99902,-0.04077,-0.3335,-12.29,-4.855,1.481
2026-06-01 15:33:21.380,2211540836,36380,1,0.97021,-0.04053,0.5271,-1.771,0.939,-3.137
2026-06-01 15:33:21.380,2211540836,36380,2,1.00195,-0.0542,-0.34009,-3.458,0.756,1.382
2026-06-01 15:33:21.580,2211541036,36580,1,0.97656,-0.05518,0.52808,6.137,1.824,-6.55
2026-06-01 15:33:21.580,2211541036,36580,2,0.99121,-0.05005,-0.37671,7.13,5.481,-5.443
2026-06-01 15:33:21.780,2211541236,36780,1,0.979,-0.01563,0.51807,23.84,4.321,6.985
2026-06-01 15:33:21.780,2211541236,36780,2,1.01636,-0.01172,-0.29492,31.878,8.092,-7.565
2026-06-01 15:33:21.066,2211540522,37066,1,0.96631,-0.00415,0.53662,35.168,13.221,10.191
2026-06-01 15:33:21.066,2211540522,37066,2,1.00977,-0.04468,-0.2644,45.611,18.412,-9.618
2026-06-01 15:33:22.266,2211541722,37266,1,0.94482,0.11719,0.59741,50.366,16.015,14.947
2026-06-01 15:33:22.266,2211541722,37266,2,1.05225,0.09985,-0.146,58.618,29.443,-13.29
2026-06-01 15:33:22.466,2211541922,37466,1,0.89282,0.17944,0.61548,23.511,10.603,-3.252
2026-06-01 15:33:22.466,2211541922,37466,2,1.01514,0.08765,-0.08008,15.053,14.519,-9.656
2026-06-01 15:33:22.666,2211542122,37666,1,0.90454,0.1897,0.6123,8.336,2.794,-2.344
2026-06-01 15:33:22.666,2211542122,37666,2,1.01587,0.07568,-0.06396,-4.13,-1.275,1.962
2026-06-01 15:33:22.866,2211542322,37866,1,0.89355,0.24365,0.62085,-12.55,-1.656,1.115
2026-06-01 15:33:22.866,2211542322,37866,2,1.04199,0.09619,-0.09595,-28.092,-16.328,9.069
2026-06-01 15:33:22.066,2211541522,38066,1,0.90796,0.19727,0.62085,-33.45,-12.069,-1.924
2026-06-01 15:33:22.066,2211541522,38066,2,1.04272,-0.01855,-0.16382,-37.221,-32.397,14.443
2026-06-01 15:33:23.266,2211542722,38266,1,0.94019,-0.00513,0.57788,-41.374,-5.107,8.55
2026-06-01 15:33:23.266,2211542722,38266,2,1.01904,-0.06128,-0.24097,-60.366,-24.298,23.344
2026-06-01 15:33:23.466,2211542922,38466,1,0.93994,-0.11597,0.57422,-37.008,0.252,-6.405
2026-06-01 15:33:23.466,2211542922,38466,2,0.99097,-0.07764,-0.31689,-40.237,-6.924,12.695
2026-06-01 15:33:23.666,2211543122,38666,1,0.95898,-0.13159,0.56836,-16.198,-1.733,-8.458
2026-06-01 15:33:23.666,2211543122,38666,2,0.98706,-0.10229,-0.34082,-2.473,1.573,4.511
2026-06-01 15:33:23.866,2211543322,38866,1,0.94727,-0.12842,0.55664,-8.458,3.023,-2.168
2026-06-01 15:33:23.866,2211543322,38866,2,0.98877,-0.12891,-0.37964,-11.939,3.023,6.336
2026-06-01 15:33:23.066,2211542522,39066,1,0.92993,-0.08398,0.59692,-2.366,-3.275,7.939
2026-06-01 15:33:23.066,2211542522,39066,2,1.00391,-0.14038,-0.27344,-17.985,-16.947,9.046
2026-06-01 15:33:24.266,2211543722,39266,1,0.95044,-0.19336,0.53271,-13.084,2.191,-2.252
2026-06-01 15:33:24.266,2211543722,39266,2,0.97241,-0.12915,-0.36279,-20.931,-2.168,5.168
2026-06-01 15:33:24.466,2211543922,39466,1,0.95093,-0.19019,0.53784,-1.076,-0.771,1.878
2026-06-01 15:33:24.466,2211543922,39466,2,0.96631,-0.19312,-0.38428,-6.519,6.336,-4.786
2026-06-01 15:33:24.666,2211544122,39666,1,0.95728,-0.1709,0.50879,6.908,1.885,-0.481
2026-06-01 15:33:24.666,2211544122,39666,2,0.97827,-0.15356,-0.37939,12.649,1.153,-4.473
2026-06-01 15:33:24.866,2211544322,39866,1,0.97998,-0.20557,0.50415,18.374,2.496,3.84
2026-06-01 15:33:24.866,2211544322,39866,2,0.98804,-0.16479,-0.38062,20.473,1.992,-7.519
2026-06-01 15:33:24.066,2211543522,40066,1,0.9668,-0.2207,0.50928,45.344,9.641,9.802
2026-06-01 15:33:24.066,2211543522,40066,2,0.99731,-0.13916,-0.3374,40.817,12.748,-18.481
2026-06-01 15:33:25.266,2211544722,40266,1,0.979,-0.17285,0.56738,54.634,3.588,4.42
2026-06-01 15:33:25.266,2211544722,40266,2,1.09814,-0.04712,-0.17139,51.534,15.237,-24.435
2026-06-01 15:33:25.466,2211544922,40466,1,0.91406,0.10254,0.56641,33.328,29.931,-11.313
2026-06-01 15:33:25.466,2211544922,40466,2,1.00659,0.00342,-0.15894,56.0,34.878,-1.389
2026-06-01 15:33:25.666,2211545122,40666,1,0.80884,0.25928,0.7312,37.443,20.046,5.748
2026-06-01 15:33:25.666,2211545122,40666,2,1.01953,0.09106,-0.02856,21.405,15.733,-3.863
2026-06-01 15:33:25.945,2211545401,40945,1,0.83911,0.22168,0.67456,-9.74,-4.0,-2.947
2026-06-01 15:33:25.945,2211545401,40945,2,1.00952,0.0918,0.00024,-33.237,-20.756,1.901
2026-06-01 15:33:25.145,2211544601,41145,1,0.86914,0.18066,0.68628,-23.832,-12.962,-10.641
2026-06-01 15:33:25.145,2211544601,41145,2,1.07007,-0.06665,-0.08911,-26.626,-6.061,5.282
2026-06-01 15:33:26.345,2211545801,41345,1,0.93726,0.06567,0.59937,-13.573,2.954,-7.099
2026-06-01 15:33:26.345,2211545801,41345,2,1.04541,-0.06543,-0.09399,-11.053,13.282,5.321
2026-06-01 15:33:26.545,2211546001,41545,1,0.88867,0.07837,0.61279,-6.099,37.389,-0.015
2026-06-01 15:33:26.545,2211546001,41545,2,1.05151,-0.16602,0.0896,-1.931,70.145,31.344
2026-06-01 15:33:26.745,2211546201,41745,1,0.60205,0.05762,0.65381,-8.458,87.366,16.198
2026-06-01 15:33:26.745,2211546201,41745,2,0.97144,-0.25171,0.06323,77.458,128.878,22.122
2026-06-01 15:33:26.945,2211546401,41945,1,0.31689,0.05493,0.8894,7.466,96.817,28.557
2026-06-01 15:33:26.945,2211546401,41945,2,0.75146,-0.10132,0.62939,50.099,112.374,9.351
2026-06-01 15:33:26.145,2211545601,42145,1,0.00952,0.07178,1.15771,7.344,91.634,-4.618
2026-06-01 15:33:26.145,2211545601,42145,2,0.34106,-0.02759,0.77271,-10.176,111.725,5.55
2026-06-01 15:33:27.345,2211546801,42345,1,-0.24463,0.09644,1.38428,19.756,50.29,-0.649
2026-06-01 15:33:27.345,2211546801,42345,2,-0.00586,0.04077,0.96362,-8.863,35.626,-0.481
2026-06-01 15:33:27.545,2211547001,42545,1,-0.31763,0.09741,1.17871,-0.084,8.687,-3.588
2026-06-01 15:33:27.545,2211547001,42545,2,-0.02832,-0.05811,0.96533,-8.489,-1.924,-0.885
2026-06-01 15:33:27.745,2211547201,42745,1,-0.1311,0.20898,1.05542,1.679,5.855,-0.802
2026-06-01 15:33:27.745,2211547201,42745,2,0.03955,-0.03809,1.18872,44.71,18.58,-5.16
2026-06-01 15:33:27.945,2211547401,42945,1,-0.19116,0.00269,0.8772,19.221,-7.198,-19.008
2026-06-01 15:33:27.945,2211547401,42945,2,0.17383,-0.28003,0.9397,7.45,6.641,-15.924
2026-06-01 15:33:27.145,2211546601,43145,1,-0.16187,0.24146,1.14648,10.13,6.252,-9.511
2026-06-01 15:33:27.145,2211546601,43145,2,-0.07495,-0.06812,0.88428,-12.389,5.267,14.504
2026-06-01 15:33:28.345,2211547801,43345,1,-0.04785,0.18945,0.92749,-4.115,8.527,8.885
2026-06-01 15:33:28.345,2211547801,43345,2,-0.30859,-0.09985,1.44385,9.115,24.748,-12.794
2026-06-01 15:33:28.545,2211548001,43545,1,-0.27124,0.22583,1.04663,-1.481,3.718,-9.496
2026-06-01 15:33:28.545,2211548001,43545,2,-0.01904,0.02661,0.98145,-7.038,0.16,0.901
2026-06-01 15:33:28.745,2211548201,43745,1,-0.28687,0.08472,1.09106,-0.435,-10.595,1.137
2026-06-01 15:33:28.745,2211548201,43745,2,0.12451,0.02441,0.95679,-4.45,-18.267,3.779
2026-06-01 15:33:28.945,2211548401,43945,1,-0.14624,0.1311,1.16968,-3.412,-24.26,14.763
2026-06-01 15:33:28.945,2211548401,43945,2,0.14844,0.05249,0.96509,4.237,-60.42,9.16
2026-06-01 15:33:28.145,2211547601,44145,1,-0.12769,0.11572,1.21191,-15.855,-47.779,6.656
2026-06-01 15:33:28.145,2211547601,44145,2,0.52539,0.04736,0.79297,-19.519,-91.267,3.489
2026-06-01 15:33:29.345,2211548801,44345,1,0.13525,0.04077,1.14526,6.344,-62.901,-3.267
2026-06-01 15:33:29.345,2211548801,44345,2,0.83838,0.09058,0.50513,-58.733,-112.061,-2.466
2026-06-01 15:33:29.545,2211549001,44545,1,0.44775,0.0603,0.89429,15.023,-103.954,1.229
2026-06-01 15:33:29.545,2211549001,44545,2,0.96899,-0.09277,0.1687,-67.481,-107.962,-29.847
2026-06-01 15:33:29.745,2211549201,44745,1,0.86523,0.09229,0.4834,-9.832,-80.603,-12.794
2026-06-01 15:33:29.745,2211549201,44745,2,1.04053,-0.14893,0.00073,-34.893,-44.481,-19.031
2026-06-01 15:33:29.085,2211548541,45085,1,0.87646,0.06274,0.66528,9.107,9.237,2.55
2026-06-01 15:33:29.085,2211548541,45085,2,1.03394,-0.04248,-0.09351,17.55,31.649,17.565
2026-06-01 15:33:30.319,2211549775,45318,1,0.75317,0.09326,0.60767,36.366,63.015,10.824
2026-06-01 15:33:30.319,2211549775,45318,2,1.06787,-0.1958,-0.1377,41.901,79.473,23.725
2026-06-01 15:33:30.518,2211549974,45518,1,0.64624,0.15649,0.73828,10.16,101.649,23.786
2026-06-01 15:33:30.518,2211549974,45518,2,1.16943,-0.15698,0.60376,59.137,77.969,17.489
2026-06-01 15:33:30.718,2211550174,45718,1,0.17578,0.03809,1.17334,-18.565,78.053,6.13
2026-06-01 15:33:30.718,2211550174,45718,2,0.63916,-0.11743,0.40967,43.725,106.023,8.496
2026-06-01 15:33:30.918,2211550374,45918,1,-0.13477,0.09473,1.31348,6.435,88.26,-1.885
2026-06-01 15:33:30.918,2211550374,45918,2,0.39233,0.07861,0.97192,-19.954,74.191,-0.771
2026-06-01 15:33:30.118,2211549574,46118,1,-0.17041,0.17798,1.29688,1.603,37.649,-0.305
2026-06-01 15:33:30.118,2211549574,46118,2,0.22559,-0.0127,1.06909,3.847,30.382,1.389
2026-06-01 15:33:31.318,2211550774,46318,1,-0.23145,0.15942,1.06323,2.076,7.008,-3.947
2026-06-01 15:33:31.318,2211550774,46318,2,0.17676,-0.05859,0.9165,0.122,13.076,3.008
2026-06-01 15:33:31.518,2211550974,46518,1,-0.24487,0.12402,1.05835,-1.298,1.298,1.534
2026-06-01 15:33:31.518,2211550974,46518,2,0.04346,-0.01636,1.01514,-1.947,-15.427,5.229
2026-06-01 15:33:31.758,2211551214,46758,1,-0.3877,0.13379,1.4292,-21.069,-30.16,4.985
2026-06-01 15:33:31.758,2211551214,46758,2,0.25537,0.00122,0.94116,-4.863,-91.817,2.267
2026-06-01 15:33:31.958,2211551414,46958,1,-0.06812,0.06226,1.1665,1.687,-103.641,-4.122
2026-06-01 15:33:31.958,2211551414,46958,2,0.83862,-0.08301,0.50195,-74.634,-146.847,-19.794
2026-06-01 15:33:31.158,2211550614,47158,1,0.35205,0.02124,0.74902,10.115,-134.252,-0.458
2026-06-01 15:33:31.158,2211550614,47158,2,0.94604,-0.18579,0.15405,-58.099,-134.931,-35.565
2026-06-01 15:33:32.358,2211551814,47358,1,0.80151,0.05591,0.59985,-3.275,-85.87,-6.603
2026-06-01 15:33:32.358,2211551814,47358,2,1.0437,-0.15894,-0.09668,-32.099,-63.328,-27.58
2026-06-01 15:33:32.558,2211552014,47558,1,0.87402,0.07666,0.59888,-22.573,-15.595,-16.748
2026-06-01 15:33:32.558,2211552014,47558,2,1.06763,-0.13525,-0.26782,-22.641,-18.321,-2.626
2026-06-01 15:33:32.758,2211552214,47758,1,0.93506,0.14233,0.60474,4.305,14.244,0.618
2026-06-01 15:33:32.758,2211552214,47758,2,1.08008,-0.13672,-0.2019,14.969,26.191,21.115
2026-06-01 15:33:32.958,2211552414,47958,1,0.85449,0.08691,0.56055,3.55,71.489,9.275
2026-06-01 15:33:32.958,2211552414,47958,2,1.01587,-0.16382,-0.08691,30.191,101.634,32.878
2026-06-01 15:33:32.158,2211551614,48158,1,0.52246,0.0105,0.78638,25.58,179.992,17.954
2026-06-01 15:33:32.158,2211551614,48158,2,0.92896,-0.06177,0.61011,87.053,121.015,25.328
2026-06-01 15:33:33.358,2211552814,48358,1,-0.06299,0.19458,1.30859,-15.328,116.221,5.145
2026-06-01 15:33:33.358,2211552814,48358,2,0.57471,-0.06006,0.78491,35.489,139.641,6.557
2026-06-01 15:33:33.558,2211553014,48558,1,-0.36792,0.11694,1.39819,-20.389,54.122,-0.466
2026-06-01 15:33:33.558,2211553014,48558,2,0.06519,-0.0332,0.97754,-4.45,27.206,-0.046
2026-06-01 15:33:33.847,2211553303,48847,1,-0.3147,0.0481,1.10986,-1.573,3.443,-0.725
2026-06-01 15:33:33.847,2211553303,48847,2,0.0979,-0.03809,0.93433,-1.565,-0.901,-0.832
2026-06-01 15:33:33.047,2211552503,49047,1,-0.31226,0.03662,1.03027,3.786,1.092,-4.634
2026-06-01 15:33:33.047,2211552503,49047,2,0.11353,-0.03198,0.94189,-5.687,-6.481,0.649
2026-06-01 15:33:34.247,2211553703,49247,1,-0.2915,0.10376,1.06519,-2.527,-9.221,-0.359
2026-06-01 15:33:34.247,2211553703,49247,2,0.16333,-0.00586,1.00903,1.847,-55.076,5.16
2026-06-01 15:33:34.447,2211553903,49447,1,-0.18604,0.02441,1.34668,4.038,-71.481,10.634
2026-06-01 15:33:34.447,2211553903,49447,2,0.48022,-0.06274,0.75659,-1.435,-108.405,6.527
2026-06-01 15:33:34.647,2211554103,49647,1,0.04883,0.03931,1.03906,6.099,-63.664,-12.198
2026-06-01 15:33:34.647,2211554103,49647,2,0.87231,-0.08813,0.40869,-67.87,-128.313,-12.756
2026-06-01 15:33:34.847,2211554303,49847,1,0.3269,0.07813,0.9165,-6.389,-115.908,-6.275
2026-06-01 15:33:34.847,2211554303,49847,2,0.99097,-0.10669,0.18701,-73.924,-111.282,-18.008
2026-06-01 15:33:34.047,2211553503,50047,1,0.67798,0.1084,0.62598,-52.473,-101.015,-45.718
2026-06-01 15:33:34.047,2211553503,50047,2,1.04614,-0.1084,-0.25879,-58.756,-87.763,-7.87
2026-06-01 15:33:35.247,2211554703,50247,1,1.03784,0.14111,0.41455,-16.641,-26.183,-21.275
2026-06-01 15:33:35.247,2211554703,50247,2,0.99585,-0.01514,-0.4082,-32.565,-19.511,5.099
2026-06-01 15:33:35.447,2211554903,50447,1,1.02466,0.07959,0.47266,-10.565,32.107,4.901
2026-06-01 15:33:35.447,2211554903,50447,2,1.05225,-0.2063,-0.25293,60.779,75.137,25.779
2026-06-01 15:33:35.647,2211555103,50647,1,0.81299,0.04077,0.5564,81.916,80.962,53.237
2026-06-01 15:33:35.647,2211555103,50647,2,1.08813,-0.04175,0.14185,62.282,146.374,7.359
2026-06-01 15:33:35.894,2211555350,50894,1,0.44604,0.22681,0.92163,55.71,123.443,29.656
2026-06-01 15:33:35.894,2211555350,50894,2,0.76758,-0.15625,0.0647,119.786,159.359,-12.015
2026-06-01 15:33:35.094,2211554550,51094,1,-0.16455,0.06958,1.33252,7.046,91.954,6.008
2026-06-01 15:33:35.094,2211554550,51094,2,0.49585,0.00195,0.74902,11.588,97.588,15.336
2026-06-01 15:33:36.294,2211555750,51294,1,-0.19507,0.18213,1.48511,0.26,55.16,-3.244
2026-06-01 15:33:36.294,2211555750,51294,2,0.28931,-0.06641,0.93604,-7.466,19.122,-0.16
2026-06-01 15:33:36.494,2211555950,51494,1,-0.19434,0.0896,1.19727,6.641,5.321,-0.519
2026-06-01 15:33:36.494,2211555950,51494,2,0.30884,-0.04785,0.93652,4.931,6.718,1.214
2026-06-01 15:33:36.716,2211556172,51716,1,-0.15991,0.10913,1.06543,-3.504,12.511,0.107
2026-06-01 15:33:36.716,2211556172,51716,2,0.29688,-0.0769,0.92285,-2.756,20.26,2.565
2026-06-01 15:33:36.916,2211556372,51916,1,-0.19141,0.0708,1.07324,-4.832,19.863,-0.885
2026-06-01 15:33:36.916,2211556372,51916,2,0.21118,-0.09839,0.9397,1.809,-0.748,0.649
2026-06-01 15:33:36.116,2211555572,52116,1,-0.3252,0.06543,1.15698,0.542,-6.344,0.015
2026-06-01 15:33:36.116,2211555572,52116,2,0.3125,-0.06128,0.9165,-3.374,-65.115,-3.405
2026-06-01 15:33:37.452,2211556908,52452,1,-0.20947,0.0979,1.24414,6.878,-39.466,-7.374
2026-06-01 15:33:37.452,2211556908,52452,2,0.55591,-0.05908,0.75562,-34.885,-92.313,-7.176
2026-06-01 15:33:37.652,2211557108,52652,1,0.08374,0.07813,1.09766,-5.649,-81.008,-18.473
2026-06-01 15:33:37.652,2211557108,52652,2,0.81982,-0.14209,0.46094,-90.046,-109.519,-17.969
2026-06-01 15:33:37.852,2211557308,52852,1,0.36304,0.03906,0.91968,-9.954,-115.809,-19.374
2026-06-01 15:33:37.852,2211557308,52852,2,1.00122,-0.21558,-0.00732,-87.076,-125.176,-32.939
2026-06-01 15:33:37.052,2211556508,53052,1,0.70752,0.03052,0.5144,-27.389,-103.412,-19.344
2026-06-01 15:33:37.052,2211556508,53052,2,1.04053,-0.09912,-0.36914,-59.305,-80.634,-15.496
2026-06-01 15:33:38.252,2211557708,53252,1,1.02197,0.04443,0.49341,-15.145,-42.221,-12.611
2026-06-01 15:33:38.252,2211557708,53252,2,1.01709,-0.0957,-0.47168,-18.74,-22.29,-0.153
2026-06-01 15:33:38.452,2211557908,53452,1,1.02979,0.09106,0.47607,-22.359,-5.031,-11.443
2026-06-01 15:33:38.452,2211557908,53452,2,0.93848,-0.04907,-0.53467,-13.504,-6.183,9.573
2026-06-01 15:33:38.652,2211558108,53652,1,0.9729,0.05542,0.51636,-9.74,6.229,-2.031
2026-06-01 15:33:38.652,2211558108,53652,2,0.92676,-0.02734,-0.50928,-10.206,-0.16,7.939
2026-06-01 15:33:38.852,2211558308,53852,1,0.97314,0.05176,0.49951,-0.008,7.863,2.031
2026-06-01 15:33:38.852,2211558308,53852,2,0.94189,-0.02686,-0.51538,1.252,7.214,6.824
2026-06-01 15:33:38.052,2211557508,54052,1,1.00537,0.02124,0.48877,9.0,20.45,9.611
2026-06-01 15:33:38.052,2211557508,54052,2,0.979,-0.08594,-0.46777,23.069,34.305,12.557
2026-06-01 15:33:39.252,2211558708,54252,1,0.92065,0.01074,0.54541,17.489,52.069,16.374
2026-06-01 15:33:39.252,2211558708,54252,2,0.98535,-0.20776,-0.23535,60.611,68.939,19.397
2026-06-01 15:33:39.452,2211558908,54452,1,0.64819,-0.01318,0.68921,21.328,89.13,20.099
2026-06-01 15:33:39.452,2211558908,54452,2,1.00806,-0.11914,-0.01001,78.389,107.756,22.328
2026-06-01 15:33:39.652,2211559108,54652,1,0.38623,0.12134,0.94067,63.656,73.405,31.214
2026-06-01 15:33:39.652,2211559108,54652,2,0.64868,-0.23486,0.06152,34.427,127.252,29.481
2026-06-01 15:33:39.852,2211559308,54852,1,0.08765,0.07397,1.05005,7.061,92.267,24.206
2026-06-01 15:33:39.852,2211559308,54852,2,0.55591,-0.0791,0.75586,24.84,144.885,24.298
2026-06-01 15:33:39.052,2211558508,55052,1,-0.33154,0.1355,1.4314,-7.626,77.733,-6.046
2026-06-01 15:33:39.052,2211558508,55052,2,0.05225,0.01587,1.02368,-1.504,43.855,10.832
2026-06-01 15:33:40.297,2211559753,55297,1,-0.36157,0.06299,1.07666,-1.756,-8.626,0.115
2026-06-01 15:33:40.297,2211559753,55297,2,0.10303,0.02271,1.00049,-3.893,-12.382,-4.702
2026-06-01 15:33:40.503,2211559959,55503,1,-0.22607,0.04126,1.1189,-0.565,-14.58,-3.626
2026-06-01 15:33:40.503,2211559959,55503,2,0.13037,-0.03223,0.99097,-2.099,-31.45,-3.656
2026-06-01 15:33:40.703,2211560159,55703,1,-0.22119,0.05103,1.29663,4.099,-53.489,8.504
2026-06-01 15:33:40.703,2211560159,55703,2,0.94824,-0.08057,0.44019,-26.809,-124.794,-13.0
2026-06-01 15:33:40.100,2211559556,56100,1,0.35205,0.05176,0.92822,20.939,-89.519,-5.55
2026-06-01 15:33:40.100,2211559556,56100,2,0.87646,-0.16846,0.27417,-92.305,-99.16,-20.282
2026-06-01 15:33:41.300,2211560756,56300,1,0.61328,0.11646,0.77368,-42.664,-87.061,-19.382
2026-06-01 15:33:41.300,2211560756,56300,2,1.00659,-0.18994,-0.02295,-89.344,-84.611,-6.656
2026-06-01 15:33:41.500,2211560956,56500,1,0.91675,0.01318,0.57642,-23.863,-66.817,-26.87
2026-06-01 15:33:41.500,2211560956,56500,2,1.05981,-0.12646,-0.12402,-36.771,-48.244,-11.015
2026-06-01 15:33:41.700,2211561156,56700,1,0.88135,0.03247,0.58179,-13.947,-13.542,-17.878
2026-06-01 15:33:41.700,2211561156,56700,2,0.91235,-0.01978,-0.34839,-5.962,-1.611,-6.267
2026-06-01 15:33:41.900,2211561356,56900,1,1.0188,0.13525,0.47314,18.374,0.679,6.901
2026-06-01 15:33:41.900,2211561356,56900,2,1.02759,-0.04346,-0.37256,10.924,11.794,3.405
2026-06-01 15:33:41.100,2211560556,57100,1,0.89673,-0.05518,0.53711,23.137,77.786,14.542
2026-06-01 15:33:41.100,2211560556,57100,2,1.05957,-0.16528,-0.29712,54.198,65.595,12.275
2026-06-01 15:33:42.300,2211561756,57300,1,0.57275,0.28687,0.75146,3.29,77.038,11.992
2026-06-01 15:33:42.300,2211561756,57300,2,0.91333,-0.06372,0.06836,62.527,161.985,13.519
2026-06-01 15:33:42.500,2211561956,57500,1,0.47754,-0.28003,0.89185,-79.16,208.427,-17.412
2026-06-01 15:33:42.500,2211561956,57500,2,0.96094,-0.08984,0.65674,21.115,96.359,11.458
2026-06-01 15:33:42.700,2211562156,57700,1,0.06519,0.15015,1.07886,15.603,91.344,4.153
2026-06-01 15:33:42.700,2211562156,57700,2,0.59302,-0.1123,0.79028,1.061,75.618,-6.107
2026-06-01 15:33:42.900,2211562356,57900,1,-0.19604,0.14966,1.29443,14.16,34.099,2.809
2026-06-01 15:33:42.900,2211562356,57900,2,0.35278,-0.03149,0.90088,-5.794,32.298,2.45
2026-06-01 15:33:42.100,2211561556,58100,1,-0.18018,0.01294,1.03809,-14.771,1.092,-0.634
2026-06-01 15:33:42.100,2211561556,58100,2,0.30469,0.03418,0.87158,3.794,35.252,-6.237
2026-06-01 15:33:43.300,2211562756,58300,1,-0.23682,0.11719,0.78076,16.779,36.718,-8.87
2026-06-01 15:33:43.300,2211562756,58300,2,0.05566,0.07349,0.8938,20.87,40.115,-0.527
2026-06-01 15:33:43.500,2211562956,58500,1,-0.10498,0.01465,1.24756,-9.779,-38.519,-9.153
2026-06-01 15:33:43.500,2211562956,58500,2,0.39233,-0.20532,0.88892,-3.252,-33.519,-18.237
2026-06-01 15:33:43.700,2211563156,58700,1,-0.05469,0.07935,0.76709,-10.71,3.939,-12.0
2026-06-01 15:33:43.700,2211563156,58700,2,0.01294,0.1001,1.03809,0.359,41.282,2.656
2026-06-01 15:33:43.900,2211563356,58900,1,-0.34424,-0.00488,1.36279,13.626,11.153,-13.519
2026-06-01 15:33:43.900,2211563356,58900,2,-0.02344,0.07373,1.07959,-4.748,3.023,-14.389
2026-06-01 15:33:43.100,2211562556,59100,1,-0.27905,0.22339,1.06909,21.618,6.153,-14.313
2026-06-01 15:33:43.100,2211562556,59100,2,-0.02222,0.19556,0.93652,14.382,-11.733,8.435
2026-06-01 15:33:44.336,2211563792,59336,1,-0.23022,0.20361,1.12793,-2.153,3.0,8.763
2026-06-01 15:33:44.336,2211563792,59336,2,0.01758,0.07959,0.94116,-2.206,-12.779,9.0
2026-06-01 15:33:44.536,2211563992,59536,1,-0.2168,0.09912,1.00635,-8.458,-5.809,9.542
2026-06-01 15:33:44.536,2211563992,59536,2,0.07007,0.05005,0.90723,-1.618,-11.496,4.221
2026-06-01 15:33:44.794,2211564250,59794,1,-0.1875,0.15137,1.09839,-3.046,-3.817,0.466
2026-06-01 15:33:44.794,2211564250,59794,2,0.14917,0.00928,0.95972,-4.756,-0.282,-1.198
2026-06-01 15:33:44.994,2211564450,59994,1,-0.19043,0.10547,1.1897,-5.947,-10.092,-8.344
2026-06-01 15:33:44.994,2211564450,59994,2,0.17456,-0.01807,0.97681,-2.74,-16.053,-2.687
2026-06-01 15:33:45.194,2211564650,60194,1,-0.18945,0.14355,1.09302,-8.168,-11.786,0.847
2026-06-01 15:33:45.194,2211564650,60194,2,0.2356,-0.01245,0.88501,-4.656,-15.252,3.679
2026-06-01 15:33:45.429,2211564885,60429,1,-0.09204,0.11963,0.99951,-1.244,-2.924,1.962
2026-06-01 15:33:45.429,2211564885,60429,2,0.27344,-0.03833,0.89795,-3.55,0.038,2.71
2026-06-01 15:33:45.629,2211565085,60629,1,-0.13428,0.03711,1.14331,8.733,2.969,-8.634
2026-06-01 15:33:45.629,2211565085,60629,2,0.2771,-0.00195,0.94116,-3.42,-7.252,2.336
2026-06-01 15:33:45.963,2211565419,60963,1,-0.12451,0.08447,1.06177,-9.756,2.939,-3.802
2026-06-01 15:33:45.963,2211565419,60963,2,0.30273,-0.00708,0.89282,-4.229,-8.053,-1.87
2026-06-01 15:33:46.251,2211565707,61251,1,-0.1062,0.08838,1.12866,5.092,-2.26,-1.603
2026-06-01 15:33:46.251,2211565707,61251,2,0.36279,-0.02319,0.9209,-1.252,-7.466,1.977
2026-06-01 15:33:46.451,2211565907,61451,1,-0.09229,0.10132,1.2019,-0.046,-11.557,4.756
2026-06-01 15:33:46.451,2211565907,61451,2,0.40503,-0.07178,0.91016,0.985,-12.076,6.687
2026-06-01 15:33:46.651,2211566107,61651,1,-0.03491,0.10693,1.14185,-5.313,-10.023,7.817
2026-06-01 15:33:46.651,2211566107,61651,2,0.45435,-0.06885,0.90454,-1.214,-22.26,13.542
2026-06-01 15:33:46.851,2211566307,61851,1,-0.03882,0.05493,1.24316,-10.42,-25.061,7.046
2026-06-01 15:33:46.851,2211566307,61851,2,0.48413,-0.05298,0.77563,-8.573,-54.244,19.443
2026-06-01 15:33:46.051,2211565507,62051,1,0.03296,0.01636,1.1731,-13.412,-57.489,-2.076
2026-06-01 15:33:46.051,2211565507,62051,2,0.68628,-0.16064,0.60864,-35.809,-95.664,6.557
2026-06-01 15:33:47.251,2211566707,62251,1,0.28052,-0.07251,0.9917,4.145,-96.893,-7.313
2026-06-01 15:33:47.251,2211566707,62251,2,0.93164,-0.2854,0.17969,-58.725,-120.389,12.664
2026-06-01 15:33:47.468,2211566924,62468,1,0.56812,0.00537,0.61963,-6.985,-93.626,-40.947
2026-06-01 15:33:47.468,2211566924,62468,2,0.9856,-0.25562,-0.16309,-62.863,-73.794,16.084
2026-06-01 15:33:47.668,2211567124,62668,1,0.84473,-0.05029,0.43164,-18.137,-55.267,-38.344
2026-06-01 15:33:47.668,2211567124,62668,2,1.17334,-0.45898,-0.36646,-17.015,-17.794,-22.473
2026-06-01 15:33:47.868,2211567324,62868,1,1.02686,0.15137,0.375,-74.351,-29.519,-47.893
2026-06-01 15:33:47.868,2211567324,62868,2,1.00684,-0.03662,-0.48267,-140.786,54.672,-70.015
2026-06-01 15:33:47.083,2211566539,63083,1,1.06519,0.10986,0.48193,24.84,1.84,8.206
2026-06-01 15:33:47.083,2211566539,63083,2,0.86646,-0.13647,-0.58154,-36.954,42.931,-36.16
2026-06-01 15:33:48.283,2211567739,63283,1,0.95435,0.10742,0.46069,28.634,8.656,23.71
2026-06-01 15:33:48.283,2211567739,63283,2,0.9895,-0.08569,-0.43799,38.076,6.458,3.336
2026-06-01 15:33:48.483,2211567939,63483,1,1.02393,0.06689,0.48315,35.824,34.16,16.649
2026-06-01 15:33:48.483,2211567939,63483,2,0.98218,-0.07983,-0.35864,50.824,43.084,-7.046
2026-06-01 15:33:48.683,2211568139,63683,1,0.84082,0.05444,0.58862,52.565,85.344,16.321
2026-06-01 15:33:48.683,2211568139,63683,2,0.97583,-0.16504,-0.22095,138.252,66.084,-5.931
2026-06-01 15:33:48.883,2211568339,63883,1,0.73975,0.17236,0.68457,10.634,67.031,2.084
2026-06-01 15:33:48.883,2211568339,63883,2,1.0542,0.05786,0.14771,155.55,100.115,-18.672
2026-06-01 15:33:48.083,2211567539,64083,1,0.37451,0.31543,0.84546,-36.435,71.664,-11.992
2026-06-01 15:33:48.083,2211567539,64083,2,1.07446,-0.1897,0.3208,-49.176,70.427,18.153
2026-06-01 15:33:49.283,2211568739,64283,1,0.3938,0.13818,0.97168,4.107,48.695,-0.58
2026-06-01 15:33:49.283,2211568739,64283,2,0.75464,-0.1499,0.54932,1.824,50.916,1.038
2026-06-01 15:33:49.483,2211568939,64483,1,0.18896,0.10889,1.08618,9.366,37.099,1.634
2026-06-01 15:33:49.483,2211568939,64483,2,0.68237,0.04077,0.69727,-2.176,39.435,2.641
2026-06-01 15:33:49.683,2211569139,64683,1,0.09326,0.06299,1.0813,-1.275,32.389,-6.061
2026-06-01 15:33:49.683,2211569139,64683,2,0.58008,-0.01465,0.77563,4.359,45.763,0.015
2026-06-01 15:33:49.883,2211569339,64883,1,-0.00928,0.2085,1.16235,7.061,40.656,-11.634
2026-06-01 15:33:49.883,2211569339,64883,2,0.48584,-0.03247,0.83057,4.168,38.313,2.924
2026-06-01 15:33:49.083,2211568539,65083,1,-0.12109,0.2439,1.22803,3.878,16.336,0.649
2026-06-01 15:33:49.083,2211568539,65083,2,0.35913,0.06152,0.90015,-0.458,4.16,5.023
2026-06-01 15:33:50.283,2211569739,65283,1,-0.11597,0.12695,1.08691,0.763,-5.206,-1.084
2026-06-01 15:33:50.283,2211569739,65283,2,0.36938,0.0542,0.8728,1.504,-6.985,0.565
2026-06-01 15:33:50.483,2211569939,65483,1,-0.07422,0.1521,1.07446,-3.527,-0.649,-2.16
2026-06-01 15:33:50.483,2211569939,65483,2,0.41528,0.04175,0.87744,-4.626,-2.885,0.267
2026-06-01 15:33:50.683,2211570139,65683,1,-0.07178,0.146,1.09106,-0.702,-0.176,-0.038
2026-06-01 15:33:50.683,2211570139,65683,2,0.42017,0.01343,0.87402,-2.489,-2.977,0.405
2026-06-01 15:33:50.883,2211570339,65883,1,-0.07324,0.14868,1.11133,-2.198,-2.053,0.672
2026-06-01 15:33:50.883,2211570339,65883,2,0.42969,0.02417,0.87354,-3.809,-8.313,3.061
2026-06-01 15:33:50.083,2211569539,66083,1,-0.08984,0.15796,1.25244,-2.282,-25.427,1.0
2026-06-01 15:33:50.083,2211569539,66083,2,0.42773,-0.04028,0.83691,-11.16,-43.626,-5.733
2026-06-01 15:33:51.283,2211570739,66283,1,0.05762,0.11621,1.14429,-13.672,-37.321,-6.061
2026-06-01 15:33:51.283,2211570739,66283,2,0.66943,0.04883,0.69897,-34.756,-52.511,-5.511
2026-06-01 15:33:51.483,2211570939,66483,1,0.19873,0.05981,1.10547,-19.878,-52.29,-8.115
2026-06-01 15:33:51.483,2211570939,66483,2,0.80078,-0.1499,0.55127,-44.947,-73.557,-1.176
2026-06-01 15:33:51.683,2211571139,66683,1,0.46948,0.01318,0.97437,-15.244,-47.939,-18.695
2026-06-01 15:33:51.683,2211571139,66683,2,0.92529,-0.24561,0.24731,-80.282,-75.267,-8.008
2026-06-01 15:33:51.883,2211571339,66883,1,0.64673,-0.08936,0.8877,2.527,-55.992,-13.344
2026-06-01 15:33:51.883,2211571339,66883,2,0.98462,-0.14819,-0.03345,-12.969,-54.458,-12.366
2026-06-01 15:33:51.083,2211570539,67083,1,0.75269,0.02441,0.69312,-25.565,-45.611,-20.527
2026-06-01 15:33:51.083,2211570539,67083,2,0.99365,-0.20483,-0.18726,-10.908,-18.817,-9.786
2026-06-01 15:33:52.283,2211571739,67283,1,0.84888,0.03223,0.7085,-14.55,-18.603,-16.015
2026-06-01 15:33:52.283,2211571739,67283,2,0.99609,-0.19946,-0.27124,-21.641,-13.626,1.649
2026-06-01 15:33:52.483,2211571939,67483,1,0.88062,0.04199,0.69751,-13.45,-3.771,-8.718
2026-06-01 15:33:52.483,2211571939,67483,2,1.08545,-0.14087,-0.2439,-15.008,8.405,0.817
2026-06-01 15:33:52.683,2211572139,67683,1,0.85864,0.04468,0.68652,-4.038,3.626,-3.489
2026-06-01 15:33:52.683,2211572139,67683,2,0.98022,-0.18994,-0.30029,-0.695,6.008,0.916
2026-06-01 15:33:52.883,2211572339,67883,1,0.88647,0.04248,0.6731,1.45,0.099,1.069
2026-06-01 15:33:52.883,2211572339,67883,2,0.96875,-0.16528,-0.3418,1.595,-7.786,-0.153
2026-06-01 15:33:52.083,2211571539,68083,1,0.85376,0.03052,0.68579,1.115,-0.794,2.679
2026-06-01 15:33:52.083,2211571539,68083,2,0.95972,-0.18701,-0.3147,-14.863,3.74,9.153
2026-06-01 15:33:53.283,2211572739,68283,1,1.01733,-0.13257,0.61841,7.748,4.015,-2.405
2026-06-01 15:33:53.283,2211572739,68283,2,0.98022,-0.21313,-0.33179,-12.405,0.084,4.053
2026-06-01 15:33:53.483,2211572939,68483,1,0.8728,0.01953,0.66919,0.611,-0.031,-0.221
2026-06-01 15:33:53.483,2211572939,68483,2,0.99023,-0.16968,-0.35767,2.336,1.45,-1.298
2026-06-01 15:33:53.683,2211573139,68683,1,0.8667,0.03833,0.69556,1.565,2.191,-1.542
2026-06-01 15:33:53.683,2211573139,68683,2,0.95752,-0.17822,-0.39941,-7.557,-3.359,0.481
2026-06-01 15:33:53.883,2211573339,68883,1,0.87695,0.02832,0.67676,1.588,-0.344,-2.786
2026-06-01 15:33:53.883,2211573339,68883,2,0.98657,-0.22119,-0.37354,8.802,-4.977,5.137
2026-06-01 15:33:53.083,2211572539,69083,1,0.85278,0.11865,0.73682,8.718,14.588,-6.557
2026-06-01 15:33:53.083,2211572539,69083,2,0.99512,-0.17358,-0.27197,12.802,1.748,0.145
2026-06-01 15:33:54.283,2211573739,69283,1,0.83228,0.09448,0.70581,-22.733,7.542,-17.191
2026-06-01 15:33:54.283,2211573739,69283,2,1.00488,-0.10791,-0.21899,-3.527,6.382,-6.382
2026-06-01 15:33:54.483,2211573939,69483,1,0.84326,0.09521,0.71436,-16.542,-0.916,-19.107
2026-06-01 15:33:54.483,2211573939,69483,2,1.0332,-0.07202,-0.16211,6.534,-0.229,9.42
2026-06-01 15:33:54.683,2211574139,69683,1,0.8667,0.09082,0.66406,-36.649,-1.374,-18.405
2026-06-01 15:33:54.683,2211574139,69683,2,1.01343,-0.16748,-0.24951,-47.191,17.954,12.481
2026-06-01 15:33:54.883,2211574339,69883,1,0.81567,-0.01611,0.74585,-26.817,8.374,-11.214
2026-06-01 15:33:54.883,2211574339,69883,2,0.99585,-0.17041,-0.16797,-12.809,10.496,2.107
2026-06-01 15:33:54.083,2211573539,70083,1,0.83813,0.0415,0.72656,-0.076,7.275,-0.252
2026-06-01 15:33:54.083,2211573539,70083,2,0.97412,-0.16431,-0.20117,1.122,0.901,4.496
2026-06-01 15:33:55.285,2211574741,70285,1,0.84473,-0.03174,0.76196,-10.74,3.328,-1.656
2026-06-01 15:33:55.285,2211574741,70285,2,0.99634,-0.16943,-0.19312,-13.092,8.786,4.893
2026-06-01 15:33:55.485,2211574941,70485,1,0.81958,-0.04224,0.75073,-8.672,3.069,1.695
2026-06-01 15:33:55.485,2211574941,70485,2,1.01099,-0.14258,-0.26196,-26.321,5.893,1.305
2026-06-01 15:33:55.685,2211575141,70685,1,0.82666,-0.06519,0.75342,14.557,-9.87,5.282
2026-06-01 15:33:55.685,2211575141,70685,2,1.02197,-0.21924,-0.18433,5.878,-1.298,-1.176
2026-06-01 15:33:55.885,2211575341,70885,1,0.79956,-0.01514,0.74243,-10.893,-0.794,-8.42
2026-06-01 15:33:55.885,2211575341,70885,2,1.06812,-0.17969,-0.0498,-18.992,28.031,-10.046
2026-06-01 15:33:55.085,2211574541,71085,1,0.82739,0.03638,0.73633,-8.008,-0.359,-7.626
2026-06-01 15:33:55.085,2211574541,71085,2,0.93628,-0.32935,-0.18164,-20.092,18.832,14.267
2026-06-01 15:33:56.285,2211575741,71285,1,0.64014,0.06421,0.61377,-22.847,-7.603,-5.237
2026-06-01 15:33:56.285,2211575741,71285,2,1.021,-0.20215,-0.18384,-13.702,10.26,-5.435
2026-06-01 15:33:56.485,2211575941,71485,1,0.86182,-0.03442,0.71802,6.053,2.305,5.336
2026-06-01 15:33:56.485,2211575941,71485,2,0.94727,-0.22656,-0.27466,-29.389,4.221,-2.137
2026-06-01 15:33:56.685,2211576141,71685,1,0.82861,-0.00171,0.72339,4.771,4.427,0.641
2026-06-01 15:33:56.685,2211576141,71685,2,0.96997,-0.28345,-0.14502,-9.939,12.802,6.603
2026-06-01 15:33:56.885,2211576341,71885,1,0.82422,0.00928,0.75342,1.26,1.664,-4.244
2026-06-01 15:33:56.885,2211576341,71885,2,1.01489,-0.20313,-0.17627,2.893,2.069,-2.282
2026-06-01 15:33:56.085,2211575541,72085,1,0.81982,0.00269,0.7356,12.779,5.519,0.786
2026-06-01 15:33:56.085,2211575541,72085,2,1.00488,-0.21606,-0.22168,2.389,3.42,-1.328
2026-06-01 15:33:57.285,2211576741,72285,1,0.82324,0.04785,0.76221,43.221,15.229,27.092
2026-06-01 15:33:57.285,2211576741,72285,2,0.96484,-0.21558,-0.13989,36.939,21.092,-9.359
2026-06-01 15:33:57.485,2211576941,72485,1,0.79761,0.12622,0.6853,50.038,38.817,42.443
2026-06-01 15:33:57.485,2211576941,72485,2,1.03613,-0.25366,0.0354,116.733,52.885,3.641
2026-06-01 15:33:57.685,2211577141,72685,1,0.57153,0.1001,0.7124,15.435,93.183,34.153
2026-06-01 15:33:57.685,2211577141,72685,2,0.97168,0.10938,0.18823,198.763,122.733,13.092
2026-06-01 15:33:57.885,2211577341,72885,1,0.12256,0.13379,0.80249,-1.55,122.45,19.214
2026-06-01 15:33:57.885,2211577341,72885,2,0.63281,0.12842,0.66772,16.275,142.076,-2.221
2026-06-01 15:33:57.085,2211576541,73085,1,-0.19751,0.24585,1.37427,4.389,80.901,-5.626
2026-06-01 15:33:57.085,2211576541,73085,2,0.24878,0.08252,0.91357,11.573,65.824,2.305
2026-06-01 15:33:58.285,2211577741,73285,1,-0.2998,0.20142,1.14526,4.427,11.26,-5.771
2026-06-01 15:33:58.285,2211577741,73285,2,0.18701,0.04858,0.97778,5.939,12.405,-5.229
2026-06-01 15:33:58.485,2211577941,73485,1,-0.29297,0.15405,1.09473,-2.802,5.756,2.679
2026-06-01 15:33:58.485,2211577941,73485,2,0.17358,0.09595,0.95874,-5.42,1.595,-2.748
2026-06-01 15:33:58.685,2211578141,73685,1,-0.12671,0.11816,1.03491,6.137,-11.145,-4.435
2026-06-01 15:33:58.685,2211578141,73685,2,0.23315,0.10522,0.95264,-4.557,3.008,-3.046
2026-06-01 15:33:58.885,2211578341,73885,1,-0.22363,0.13257,1.04395,-1.802,-0.557,-1.076
2026-06-01 15:33:58.885,2211578341,73885,2,0.1897,0.05615,0.95386,-3.489,-5.809,0.618
2026-06-01 15:33:58.085,2211577541,74085,1,-0.2666,0.17017,1.24756,-1.718,-13.527,3.496
2026-06-01 15:33:58.085,2211577541,74085,2,0.18555,0.05811,0.99438,-3.214,-39.053,4.198
2026-06-01 15:33:59.285,2211578741,74285,1,-0.16772,0.17871,1.3855,-8.031,-55.618,3.13
2026-06-01 15:33:59.285,2211578741,74285,2,0.4436,-0.01831,0.92896,-3.29,-105.611,3.458
2026-06-01 15:33:59.485,2211578941,74485,1,-0.01465,-0.00708,1.09595,14.298,-73.191,0.336
2026-06-01 15:33:59.485,2211578941,74485,2,0.60449,-0.00903,0.24902,-52.099,-141.344,24.931
2026-06-01 15:33:59.726,2211579182,74726,1,0.55762,0.03906,0.64819,-49.397,-142.069,-36.183
2026-06-01 15:33:59.726,2211579182,74726,2,0.92432,-0.04492,-0.0188,-83.153,-82.122,-11.389
2026-06-01 15:33:59.926,2211579382,74926,1,0.94043,0.14258,0.5415,-32.046,-83.809,-47.191
2026-06-01 15:33:59.926,2211579382,74926,2,1.05688,-0.06079,-0.21191,-25.939,-41.985,-5.901
2026-06-01 15:33:59.126,2211578582,75126,1,1.01245,0.19678,0.39478,-3.26,-26.313,-16.756
2026-06-01 15:33:59.126,2211578582,75126,2,0.98755,0.01294,-0.4187,1.382,-11.817,-0.206
2026-06-01 15:34:00.326,2211579782,75326,1,0.98999,0.2207,0.52612,6.527,0.626,3.992
2026-06-01 15:34:00.326,2211579782,75326,2,0.97705,0.03174,-0.35986,-8.206,-7.229,1.824
2026-06-01 15:34:00.526,2211579982,75526,1,0.99927,0.16455,0.4353,16.336,11.573,16.107
2026-06-01 15:34:00.526,2211579982,75526,2,1.01953,-0.02344,-0.2334,-9.634,59.763,25.71
2026-06-01 15:34:00.169,2211579625,76169,1,0.5127,0.05786,1.14478,146.885,136.374,7.763
2026-06-01 15:34:00.169,2211579625,76169,2,0.62061,0.00366,0.87085,-1.26,58.931,1.084
2026-06-01 15:34:01.456,2211580912,76456,1,-0.09277,0.15186,1.22681,0.565,55.763,-10.847
2026-06-01 15:34:01.456,2211580912,76456,2,0.48511,0.03589,0.96387,3.618,61.802,-13.626
2026-06-01 15:34:01.656,2211581112,76656,1,-0.198,0.04956,1.06226,-13.137,29.473,-6.015
2026-06-01 15:34:01.656,2211581112,76656,2,0.26147,0.021,0.94775,7.023,25.58,16.038
2026-06-01 15:34:01.949,2211581405,76949,1,-0.26636,0.06616,1.1123,-3.542,8.137,-2.977
2026-06-01 15:34:01.949,2211581405,76949,2,0.19312,0.05981,0.98145,-2.847,5.74,-0.038
2026-06-01 15:34:01.149,2211580605,77149,1,-0.34204,0.09229,1.17065,1.679,-10.183,-1.031
2026-06-01 15:34:01.149,2211580605,77149,2,0.13672,0.08398,0.94751,-8.313,-32.641,1.557
2026-06-01 15:34:02.349,2211581805,77349,1,-0.3313,0.15576,1.3252,3.351,-46.641,-1.427
2026-06-01 15:34:02.349,2211581805,77349,2,0.34497,0.02344,0.88672,-13.832,-98.145,7.313
2026-06-01 15:34:02.549,2211582005,77549,1,-0.021,0.04053,1.0708,-12.931,-97.55,-15.397
2026-06-01 15:34:02.549,2211582005,77549,2,0.77954,-0.09033,0.52417,-70.969,-152.397,-4.366
2026-06-01 15:34:02.749,2211582205,77749,1,0.39868,0.09448,0.76978,-9.008,-139.84,-10.336
2026-06-01 15:34:02.749,2211582205,77749,2,0.99341,-0.17041,0.04346,-123.237,-127.015,-25.496
2026-06-01 15:34:02.973,2211582429,77973,1,0.84814,0.03369,0.51904,-71.863,-89.427,-49.076
2026-06-01 15:34:02.973,2211582429,77973,2,1.06299,-0.14233,-0.21899,-71.74,-72.565,-4.053
2026-06-01 15:34:02.173,2211581629,78173,1,0.99756,0.04175,0.46802,-15.489,-37.756,-17.267
2026-06-01 15:34:02.173,2211581629,78173,2,0.93774,-0.08325,-0.40918,29.145,-18.794,-12.779
2026-06-01 15:34:03.373,2211582829,78373,1,1.0166,0.12695,0.4314,-0.336,-3.557,-3.664
2026-06-01 15:34:03.373,2211582829,78373,2,0.97314,-0.04858,-0.44043,-12.71,-0.053,1.519
2026-06-01 15:34:03.573,2211583029,78573,1,1.03223,0.09448,0.40991,-1.588,8.595,0.656
2026-06-01 15:34:03.573,2211583029,78573,2,1.00464,-0.09277,-0.47021,5.321,-2.679,8.534
2026-06-01 15:34:03.773,2211583229,78773,1,1.01807,0.04883,0.43066,15.405,30.893,8.702
2026-06-01 15:34:03.773,2211583229,78773,2,0.98633,-0.18115,-0.41748,18.29,27.321,8.679
2026-06-01 15:34:03.973,2211583429,78973,1,0.88452,0.09131,0.44678,9.092,91.069,3.794
2026-06-01 15:34:03.973,2211583429,78973,2,0.94434,-0.18774,-0.28931,74.076,72.695,9.42
2026-06-01 15:34:03.173,2211582629,79173,1,0.55469,0.09644,0.59009,-5.977,104.664,16.038
2026-06-01 15:34:03.173,2211582629,79173,2,0.96484,0.06445,-0.15942,47.267,116.351,16.099
2026-06-01 15:34:04.373,2211583829,79373,1,0.09888,0.14746,0.78027,-35.26,147.305,-12.473
2026-06-01 15:34:04.373,2211583829,79373,2,0.6936,0.08057,0.69092,46.351,172.595,-16.603
2026-06-01 15:34:04.573,2211584029,79573,1,-0.26123,0.21729,1.43774,8.794,81.13,-5.183
2026-06-01 15:34:04.573,2211584029,79573,2,0.15039,0.11865,0.92627,4.107,58.214,-9.985
2026-06-01 15:34:04.773,2211584229,79773,1,-0.38672,0.05615,1.29883,5.298,14.198,-2.542
2026-06-01 15:34:04.773,2211584229,79773,2,0.08862,0.02368,0.95386,5.237,3.779,0.763
2026-06-01 15:34:04.973,2211584429,79973,1,-0.25,0.08936,1.05078,-7.229,1.817,-1.634
2026-06-01 15:34:04.973,2211584429,79973,2,0.17627,0.04712,0.94751,-2.344,1.87,1.374
2026-06-01 15:34:04.173,2211583629,80173,1,-0.34253,0.11206,1.14844,-0.214,1.504,-2.718
2026-06-01 15:34:04.173,2211583629,80173,2,0.18701,0.02637,0.94629,-0.962,0.947,-1.771
2026-06-01 15:34:05.373,2211584829,80373,1,-0.39771,0.08398,1.25439,-4.282,-23.985,-1.443
2026-06-01 15:34:05.373,2211584829,80373,2,0.33105,0.06543,1.04248,-14.595,-48.985,7.962
2026-06-01 15:34:05.573,2211585029,80573,1,-0.21753,-0.01758,1.32104,35.649,-47.725,7.191
2026-06-01 15:34:05.573,2211585029,80573,2,0.48071,-0.0603,0.76904,2.153,-103.664,7.725
2026-06-01 15:34:05.773,2211585229,80773,1,-0.10742,0.13184,1.18726,-25.931,-93.985,-11.985
2026-06-01 15:34:05.773,2211585229,80773,2,0.73022,-0.05688,0.4668,-55.901,-145.55,0.55
2026-06-01 15:34:05.973,2211585429,80973,1,0.28369,0.01025,0.75708,-35.458,-106.351,-30.649
2026-06-01 15:34:05.973,2211585429,80973,2,1.02466,-0.13354,0.19653,-76.786,-95.519,-9.931
2026-06-01 15:34:05.173,2211584629,81173,1,0.70117,0.1521,0.57593,-66.176,-96.466,-45.634
2026-06-01 15:34:05.173,2211584629,81173,2,1.0874,-0.09448,-0.14404,-73.519,-56.099,-7.725
2026-06-01 15:34:06.373,2211585829,81373,1,0.95337,0.1792,0.4624,-35.626,-41.687,-33.779
2026-06-01 15:34:06.373,2211585829,81373,2,0.9519,0.0354,-0.35522,-28.244,-27.427,-0.611
2026-06-01 15:34:06.598,2211586054,81598,1,0.9397,0.1875,0.50195,10.137,-2.718,-4.344
2026-06-01 15:34:06.598,2211586054,81598,2,0.98804,-0.04053,-0.33423,-7.16,-3.489,-1.321
2026-06-01 15:34:06.798,2211586254,81798,1,1.01685,0.16626,0.43604,9.985,23.55,15.053
2026-06-01 15:34:06.798,2211586254,81798,2,1.04541,-0.03076,-0.33496,14.824,32.695,18.214
2026-06-01 15:34:06.998,2211586454,81998,1,0.88257,0.01001,0.44995,-6.252,79.191,36.298
2026-06-01 15:34:06.998,2211586454,81998,2,0.86597,-0.0625,0.00269,69.313,139.389,7.237
2026-06-01 15:34:07.198,2211586654,82198,1,0.49683,0.0376,0.61206,35.71,121.573,15.603
2026-06-01 15:34:07.198,2211586654,82198,2,0.56104,-0.09668,0.11548,124.443,148.496,0.29
2026-06-01 15:34:07.398,2211586854,82398,1,0.11499,0.12671,0.77759,148.542,147.405,-2.718
2026-06-01 15:34:07.398,2211586854,82398,2,0.71509,0.27173,0.92114,1.885,117.237,12.168
2026-06-01 15:34:07.598,2211587054,82598,1,-0.09985,0.22607,1.29565,37.466,36.069,-6.771
2026-06-01 15:34:07.598,2211587054,82598,2,0.49609,0.00977,0.99585,-2.084,56.779,-8.695
2026-06-01 15:34:07.798,2211587254,82798,1,-0.18652,0.16943,1.16016,-17.0,24.031,-1.458
2026-06-01 15:34:07.798,2211587254,82798,2,0.28516,-0.00659,0.98047,-8.588,18.626,-0.611
2026-06-01 15:34:07.998,2211587454,82998,1,-0.17261,0.13306,1.01733,-3.084,-0.267,4.511
2026-06-01 15:34:07.998,2211587454,82998,2,0.17627,0.0105,0.98267,-3.038,-0.557,5.336
2026-06-01 15:34:08.198,2211587654,83198,1,-0.29663,0.16357,1.29565,0.58,-24.496,4.405
2026-06-01 15:34:08.198,2211587654,83198,2,0.21387,0.07935,0.96484,1.702,-57.985,4.794
2026-06-01 15:34:08.398,2211587854,83398,1,-0.26123,0.26318,1.26001,-22.412,-63.015,-4.87
2026-06-01 15:34:08.398,2211587854,83398,2,0.60425,0.01538,0.7229,-40.481,-127.305,-2.626
2026-06-01 15:34:08.598,2211588054,83598,1,0.17188,0.00317,0.97021,-5.565,-124.947,-14.229
2026-06-01 15:34:08.598,2211588054,83598,2,0.93164,-0.10718,0.19116,-65.748,-130.183,-19.252
2026-06-01 15:34:08.798,2211588254,83798,1,0.60938,0.04517,0.53857,-5.046,-131.664,-21.229
2026-06-01 15:34:08.798,2211588254,83798,2,1.0061,-0.13574,-0.06885,-53.443,-100.725,-32.42
2026-06-01 15:34:08.998,2211588454,83998,1,0.98291,0.10156,0.39624,-5.71,-64.252,-15.275
2026-06-01 15:34:08.998,2211588454,83998,2,1.03149,-0.0459,-0.28613,28.725,-37.542,-17.344
2026-06-01 15:34:09.198,2211588654,84198,1,1.00635,0.12036,0.46558,10.863,-9.618,1.489
2026-06-01 15:34:09.198,2211588654,84198,2,1.01196,-0.02051,-0.31128,18.16,-8.664,-2.496
2026-06-01 15:34:09.398,2211588854,84398,1,1.01099,0.12158,0.47021,-2.061,3.305,1.412
2026-06-01 15:34:09.398,2211588854,84398,2,0.98926,-0.02612,-0.34424,-3.046,-2.672,3.824
2026-06-01 15:34:09.598,2211589054,84598,1,0.97559,0.11133,0.48706,-9.634,2.977,-3.634
2026-06-01 15:34:09.598,2211589054,84598,2,1.0437,-0.02808,-0.3125,7.282,-2.718,10.198
2026-06-01 15:34:09.798,2211589254,84798,1,1.01709,0.11963,0.3811,12.534,50.748,4.58
2026-06-01 15:34:09.798,2211589254,84798,2,1.11719,-0.11719,0.01782,0.702,162.458,17.931
2026-06-01 15:34:09.053,2211588509,85053,1,0.53662,0.08496,0.71582,64.214,134.229,34.527
2026-06-01 15:34:09.053,2211588509,85053,2,0.92847,-0.02759,0.37939,47.817,174.748,-15.023
2026-06-01 15:34:10.253,2211589709,85253,1,0.03662,0.09375,0.78027,-38.183,147.481,-6.031
2026-06-01 15:34:10.253,2211589709,85253,2,0.67578,-0.00854,0.72949,6.771,167.771,-2.267
2026-06-01 15:34:10.453,2211589909,85453,1,-0.21118,0.20264,1.43994,5.366,91.618,-22.649
2026-06-01 15:34:10.453,2211589909,85453,2,0.18213,0.09668,0.96436,-1.168,63.924,6.42
2026-06-01 15:34:10.653,2211590109,85653,1,-0.35278,0.2876,1.19312,17.969,13.947,-3.328
2026-06-01 15:34:10.653,2211590109,85653,2,0.09277,0.06274,0.9707,2.237,1.313,4.802
2026-06-01 15:34:10.853,2211590309,85853,1,-0.21289,0.18091,1.06836,-17.672,-6.504,6.435
2026-06-01 15:34:10.853,2211590309,85853,2,0.23608,0.04346,0.93262,-10.985,-15.137,5.824
2026-06-01 15:34:10.053,2211589509,86053,1,-0.34692,0.19189,1.24561,-1.954,-42.351,1.817
2026-06-01 15:34:10.053,2211589509,86053,2,0.3772,0.00146,0.9436,-1.863,-67.565,9.649
2026-06-01 15:34:11.253,2211590709,86253,1,-0.2124,0.16113,1.30518,14.137,-62.42,-3.542
2026-06-01 15:34:11.253,2211590709,86253,2,0.68481,0.07666,0.64941,-5.015,-128.618,-2.786
2026-06-01 15:34:11.453,2211590909,86453,1,0.24756,-0.01025,0.82422,23.0,-115.947,11.695
2026-06-01 15:34:11.453,2211590909,86453,2,0.95825,-0.0835,0.24683,-99.16,-128.794,-10.908
2026-06-01 15:34:11.653,2211591109,86653,1,0.46558,0.15161,0.85229,-82.977,-68.427,-25.649
2026-06-01 15:34:11.653,2211591109,86653,2,0.9458,-0.02246,0.06299,-62.466,-74.496,-15.794
2026-06-01 15:34:11.853,2211591309,86853,1,0.77344,0.01001,0.5874,-76.771,-68.191,-56.244
2026-06-01 15:34:11.853,2211591309,86853,2,1.04224,-0.09082,-0.30566,-50.122,-55.916,-11.305
2026-06-01 15:34:11.053,2211590509,87053,1,0.96753,0.04614,0.51709,-25.252,-34.626,-30.015
2026-06-01 15:34:11.053,2211590509,87053,2,1.09058,-0.02075,-0.3147,-1.382,-15.237,-16.153
2026-06-01 15:34:12.253,2211591709,87253,1,1.03003,0.20386,0.45679,12.015,-19.817,2.878
2026-06-01 15:34:12.253,2211591709,87253,2,1.00073,0.03052,-0.34766,1.031,-8.053,1.74
2026-06-01 15:34:12.453,2211591909,87453,1,1.05811,0.17261,0.38696,-3.603,27.183,6.595
2026-06-01 15:34:12.453,2211591909,87453,2,1.09497,-0.03247,-0.40747,-10.466,33.183,29.008
2026-06-01 15:34:12.653,2211592109,87653,1,0.94336,0.1311,0.36133,47.664,108.809,34.939
2026-06-01 15:34:12.653,2211592109,87653,2,1.07056,-0.11914,-0.10132,127.611,124.519,25.275
2026-06-01 15:34:12.853,2211592309,87853,1,0.39136,0.22363,0.7666,-8.748,119.557,7.718
2026-06-01 15:34:12.853,2211592309,87853,2,0.60889,-0.19824,0.07056,4.29,109.977,20.298
2026-06-01 15:34:12.053,2211591509,88053,1,0.05884,0.08887,0.98511,98.634,135.679,-0.664
2026-06-01 15:34:12.053,2211591509,88053,2,0.7312,0.18652,0.74268,13.015,106.756,6.832
2026-06-01 15:34:13.253,2211592709,88253,1,-0.05566,0.08521,1.16748,10.137,51.985,-7.588
2026-06-01 15:34:13.253,2211592709,88253,2,0.43262,-0.01416,0.9231,-0.71,69.053,-9.809
2026-06-01 15:34:13.453,2211592909,88453,1,-0.24341,0.31128,1.17432,2.565,22.809,-5.534
2026-06-01 15:34:13.453,2211592909,88453,2,0.28857,-0.06128,0.95483,-1.053,11.015,0.321
2026-06-01 15:34:13.653,2211593109,88653,1,-0.17334,0.2168,0.98633,-11.397,15.893,2.473
2026-06-01 15:34:13.653,2211593109,88653,2,0.22388,0.05518,0.96533,8.237,-72.42,4.962
2026-06-01 15:34:13.025,2211592481,89025,1,-0.34888,0.13452,1.37354,-12.298,-54.191,-3.336
2026-06-01 15:34:13.025,2211592481,89025,2,0.54321,-0.03101,0.75708,-18.565,-116.634,0.985
2026-06-01 15:34:14.225,2211593681,89225,1,-0.02856,0.21069,0.81836,-44.198,-130.008,-5.122
2026-06-01 15:34:14.225,2211593681,89225,2,0.84692,-0.09009,0.38477,-89.71,-159.382,-4.046
2026-06-01 15:34:14.425,2211593881,89425,1,0.50562,0.02515,0.62183,-52.885,-127.359,-30.122
2026-06-01 15:34:14.425,2211593881,89425,2,1.03979,-0.17505,-0.03931,-105.366,-121.031,-17.137
2026-06-01 15:34:14.625,2211594081,89625,1,0.91968,0.04395,0.51587,-70.672,-83.786,-48.908
2026-06-01 15:34:14.625,2211594081,89625,2,1.01245,-0.13428,-0.2793,-49.489,-48.13,-13.282
2026-06-01 15:34:14.825,2211594281,89825,1,1.02271,0.06738,0.40771,-7.405,-24.664,-11.763
2026-06-01 15:34:14.825,2211594281,89825,2,0.97144,-0.08447,-0.42285,34.046,-10.496,-5.504
2026-06-01 15:34:14.025,2211593481,90025,1,1.02905,0.11182,0.39258,-1.901,-5.511,-6.618
2026-06-01 15:34:14.025,2211593481,90025,2,0.98511,-0.07227,-0.43652,5.061,-0.771,0.435
2026-06-01 15:34:15.225,2211594681,90225,1,1.04077,0.07251,0.40063,5.954,9.672,0.58
2026-06-01 15:34:15.225,2211594681,90225,2,0.94702,-0.09424,-0.47559,28.84,0.969,-0.542
2026-06-01 15:34:15.425,2211594881,90425,1,1.08618,0.09375,0.37695,47.328,40.298,11.542
2026-06-01 15:34:15.425,2211594881,90425,2,0.93896,-0.1416,-0.48462,37.282,24.206,-2.824
2026-06-01 15:34:15.625,2211595081,90625,1,0.79468,0.35107,0.68848,31.802,39.031,19.115
2026-06-01 15:34:15.625,2211595081,90625,2,0.99292,0.18408,-0.21777,10.336,7.145,-4.481
2026-06-01 15:34:15.827,2211595283,90827,1,0.86255,0.33252,0.64136,-22.695,-15.336,-3.58
2026-06-01 15:34:15.827,2211595283,90827,2,1.0791,-0.05933,-0.2605,-55.893,-15.908,25.382
2026-06-01 15:34:15.027,2211594483,91027,1,0.94824,-0.00415,0.62769,-38.679,-26.588,-7.145
2026-06-01 15:34:15.027,2211594483,91027,2,1.04248,-0.33008,-0.39331,-38.527,6.718,21.466
2026-06-01 15:34:16.227,2211595683,91227,1,0.92578,-0.1665,0.51685,-21.84,-6.863,-22.832
2026-06-01 15:34:16.227,2211595683,91227,2,1.09546,-0.24829,-0.40527,-11.252,29.29,-9.221
2026-06-01 15:34:16.427,2211595883,91427,1,0.85718,0.22437,0.58789,-16.519,17.771,-22.061
2026-06-01 15:34:16.427,2211595883,91427,2,1.02588,-0.14575,-0.11133,28.847,9.939,-8.603
2026-06-01 15:34:16.627,2211596083,91627,1,0.97144,0.25,0.68506,-63.046,-46.153,-29.962
2026-06-01 15:34:16.627,2211596083,91627,2,0.9978,-0.34131,-0.02783,34.542,9.412,-7.031
2026-06-01 15:34:16.827,2211596283,91827,1,0.98169,-0.03955,0.59741,-63.718,-18.397,-49.107
2026-06-01 15:34:16.827,2211596283,91827,2,0.96143,-0.24268,-0.39233,-51.679,45.443,-30.58
2026-06-01 15:34:16.027,2211595483,92027,1,0.97314,0.1687,0.53784,38.863,34.71,16.13
2026-06-01 15:34:16.027,2211595483,92027,2,0.99219,-0.06494,-0.31787,-50.305,24.832,-14.542
2026-06-01 15:34:17.227,2211596683,92227,1,0.82227,0.35181,0.67236,19.038,15.046,7.527
2026-06-01 15:34:17.227,2211596683,92227,2,0.94604,0.13916,-0.24097,-12.656,12.42,5.397
2026-06-01 15:34:17.427,2211596883,92427,1,0.9187,0.18872,0.62817,4.534,0.427,3.679
2026-06-01 15:34:17.427,2211596883,92427,2,1.01367,-0.17603,-0.02881,34.511,44.626,5.466
2026-06-01 15:34:17.627,2211597083,92627,1,0.64697,0.0874,0.41968,-3.573,70.099,5.84
2026-06-01 15:34:17.627,2211597083,92627,2,0.54126,-0.16992,0.05396,66.313,111.092,19.229
2026-06-01 15:34:17.827,2211597283,92827,1,0.43506,0.12695,0.79175,73.221,-14.214,85.374
2026-06-01 15:34:17.827,2211597283,92827,2,0.85938,-0.02661,0.3374,5.779,74.069,15.878
2026-06-01 15:34:17.058,2211596514,93058,1,0.94849,0.06055,0.99463,76.267,-23.672,6.313
2026-06-01 15:34:17.058,2211596514,93058,2,0.96802,0.08936,0.53247,23.641,-10.511,3.542
2026-06-01 15:34:18.258,2211597714,93258,1,0.99121,0.24292,0.92676,-11.786,-33.817,21.481
2026-06-01 15:34:18.258,2211597714,93258,2,1.10278,0.03345,0.6687,-13.763,-44.527,3.824
2026-06-01 15:34:18.458,2211597914,93458,1,1.12378,0.05664,0.72461,-9.046,-21.252,5.481
2026-06-01 15:34:18.458,2211597914,93458,2,1.02637,-0.00586,0.47778,-6.275,-23.382,-1.664
2026-06-01 15:34:18.658,2211598114,93658,1,0.97266,0.04053,0.48242,0.824,-5.443,1.939
2026-06-01 15:34:18.658,2211598114,93658,2,0.9502,-0.02393,0.22632,-22.649,-19.069,1.26
2026-06-01 15:34:18.858,2211598314,93858,1,0.87451,0.06787,0.4375,-32.351,-18.893,14.115
2026-06-01 15:34:18.858,2211598314,93858,2,0.89404,0.01636,0.2063,2.084,-21.74,8.176
2026-06-01 15:34:18.058,2211597514,94058,1,1.10767,-0.0083,0.46143,-25.405,-20.519,9.878
2026-06-01 15:34:18.058,2211597514,94058,2,1.11694,0.00146,0.2605,4.191,-18.962,2.786
2026-06-01 15:34:19.258,2211598714,94258,1,1.00024,-0.10571,0.36035,16.237,-7.855,-1.153
2026-06-01 15:34:19.258,2211598714,94258,2,1.03174,0.00562,0.23169,-1.656,2.893,-2.29
2026-06-01 15:34:19.458,2211598914,94458,1,1.375,-0.04736,0.33984,22.374,28.901,-22.702
2026-06-01 15:34:19.458,2211598914,94458,2,1.37451,0.02954,0.48389,-2.031,46.504,-8.351
2026-06-01 15:34:19.658,2211599114,94658,1,0.98779,0.12183,0.83447,-13.244,47.397,-16.55
2026-06-01 15:34:19.658,2211599114,94658,2,1.04517,0.05322,0.47144,-2.214,6.099,-1.992
2026-06-01 15:34:19.858,2211599314,94858,1,1.05688,0.13086,0.81592,-30.916,32.786,-18.038
2026-06-01 15:34:19.858,2211599314,94858,2,1.07056,0.12939,0.31177,-26.771,-18.168,-8.214
2026-06-01 15:34:19.058,2211598514,95058,1,0.77979,0.05957,0.7478,0.252,11.977,-25.031
2026-06-01 15:34:19.058,2211598514,95058,2,0.89331,0.00439,0.13306,-51.908,-64.573,11.45
2026-06-01 15:34:20.258,2211599714,95258,1,0.39307,-0.07959,0.46899,-53.557,-38.618,-34.198
2026-06-01 15:34:20.258,2211599714,95258,2,0.57349,0.0293,-0.04346,-141.435,-64.099,-17.847
2026-06-01 15:34:20.458,2211599914,95458,1,0.9502,0.14478,0.66138,-31.305,-34.382,-17.656
2026-06-01 15:34:20.458,2211599914,95458,2,0.96118,0.03296,-0.30249,-57.305,-36.802,-11.328
2026-06-01 15:34:20.658,2211600114,95658,1,0.98291,0.10425,0.5144,-27.061,-11.618,-18.794
2026-06-01 15:34:20.658,2211600114,95658,2,0.96655,-0.05591,-0.25977,9.427,1.725,-5.076
2026-06-01 15:34:20.858,2211600314,95858,1,0.9541,0.11475,0.5083,20.649,5.863,8.435
2026-06-01 15:34:20.858,2211600314,95858,2,1.01074,-0.06689,-0.30298,14.427,0.115,-2.412
2026-06-01 15:34:20.058,2211599514,96058,1,0.97021,0.10596,0.5144,4.107,5.336,0.557
2026-06-01 15:34:20.058,2211599514,96058,2,1.00854,-0.07397,-0.25244,25.565,20.305,9.947
2026-06-01 15:34:21.282,2211600738,96282,1,0.92529,0.13916,0.47363,20.328,49.588,10.191
2026-06-01 15:34:21.282,2211600738,96282,2,0.87451,-0.16846,-0.18872,64.328,71.534,19.649
2026-06-01 15:34:21.482,2211600938,96482,1,0.58716,0.0332,0.37866,134.45,46.092,78.947
2026-06-01 15:34:21.482,2211600938,96482,2,0.54126,0.01758,-0.11499,60.519,86.191,-3.076
2026-06-01 15:34:21.682,2211601138,96682,1,0.7002,0.00293,0.69238,139.443,0.901,56.824
2026-06-01 15:34:21.682,2211601138,96682,2,0.8374,-0.12769,0.06689,22.832,42.939,-2.237
2026-06-01 15:34:21.882,2211601338,96882,1,0.99292,0.26538,0.63525,45.954,-62.427,16.718
2026-06-01 15:34:21.882,2211601338,96882,2,1.04663,-0.21069,0.38232,-37.618,-28.534,0.481
2026-06-01 15:34:21.082,2211600538,97082,1,1.21191,0.19678,0.60498,-3.084,-24.534,11.779
2026-06-01 15:34:21.082,2211600538,97082,2,1.18555,-0.04688,0.48071,15.855,-17.26,1.176
2026-06-01 15:34:22.282,2211601738,97282,1,1.17773,0.03076,0.45679,3.137,-5.191,-3.29
2026-06-01 15:34:22.282,2211601738,97282,2,1.06812,0.04834,0.35303,11.679,4.603,-1.145
2026-06-01 15:34:22.482,2211601938,97482,1,1.0271,0.03589,0.37378,3.26,-0.305,-1.542
2026-06-01 15:34:22.482,2211601938,97482,2,0.92041,0.07373,0.25073,-13.656,-4.733,7.87
2026-06-01 15:34:22.682,2211602138,97682,1,1.06128,0.02539,0.40869,0.046,-5.122,5.221
2026-06-01 15:34:22.682,2211602138,97682,2,1.00757,0.01587,0.22998,-18.603,-21.771,-0.099
2026-06-01 15:34:22.882,2211602338,97882,1,1.0271,0.05688,0.35547,-31.29,4.672,2.015
2026-06-01 15:34:22.882,2211602338,97882,2,0.94702,-0.03613,0.21411,-5.565,2.153,-1.214
2026-06-01 15:34:22.082,2211601538,98082,1,1.00391,0.02197,0.41895,-3.0,-15.015,1.359
2026-06-01 15:34:22.082,2211601538,98082,2,1.0437,-0.0166,0.16235,-3.069,-16.191,1.122
2026-06-01 15:34:23.282,2211602738,98282,1,1.07007,-0.0647,0.38159,-9.908,17.748,4.412
2026-06-01 15:34:23.282,2211602738,98282,2,0.99756,-0.0166,0.10864,-0.191,-1.382,-1.237
2026-06-01 15:34:23.482,2211602938,98482,1,1.06445,0.03857,0.35962,-12.916,0.107,0.557
2026-06-01 15:34:23.482,2211602938,98482,2,1.02271,-0.01025,0.08984,-4.71,0.015,0.672
2026-06-01 15:34:23.682,2211603138,98682,1,1.0437,-0.00903,0.37695,-6.779,1.702,-1.107
2026-06-01 15:34:23.682,2211603138,98682,2,1.01538,-0.03345,0.09692,-3.847,2.939,-0.58
2026-06-01 15:34:23.882,2211603338,98882,1,1.02783,-0.01611,0.3938,-0.687,0.962,0.153
2026-06-01 15:34:23.882,2211603338,98882,2,1.00806,-0.02319,0.10864,-2.26,-2.221,0.015
2026-06-01 15:34:23.082,2211602538,99082,1,1.03613,-0.02637,0.36768,-0.473,-0.221,2.359
2026-06-01 15:34:23.082,2211602538,99082,2,1.04175,-0.04565,0.0791,-9.42,-5.275,0.939
2026-06-01 15:34:24.282,2211603738,99282,1,1.03052,-0.04517,0.3689,-3.763,3.588,-2.344
2026-06-01 15:34:24.282,2211603738,99282,2,1.05737,-0.02075,0.06445,-11.183,-1.351,-1.191
2026-06-01 15:34:24.512,2211603968,99512,1,1.4353,0.02734,0.57422,-0.519,56.015,-20.74
2026-06-01 15:34:24.512,2211603968,99512,2,1.22656,-0.04272,0.16797,-17.725,19.298,-9.893
2026-06-01 15:34:24.712,2211604168,99712,1,1.03809,0.24292,0.66846,18.031,22.626,-12.389
2026-06-01 15:34:24.712,2211604168,99712,2,1.03003,-0.05786,0.08691,-21.389,-43.214,-1.16
2026-06-01 15:34:24.912,2211604368,99912,1,0.89771,0.14746,0.37329,-40.221,0.176,-12.573
2026-06-01 15:34:24.912,2211604368,99912,2,0.70679,0.01465,-0.03149,-39.672,-27.191,17.145
2026-06-01 15:34:24.112,2211603568,100112,1,0.44116,-0.00781,0.354,-30.824,26.336,-31.687
2026-06-01 15:34:24.112,2211603568,100112,2,0.56494,-0.00171,-0.03735,-57.595,-22.809,-4.176
2026-06-01 15:34:25.312,2211604768,100312,1,0.97754,0.10645,0.5813,-13.672,-0.076,-8.031
2026-06-01 15:34:25.312,2211604768,100312,2,0.91699,0.01953,-0.1626,43.779,-10.13,17.893
2026-06-01 15:34:25.512,2211604968,100512,1,0.94751,0.09082,0.552,-38.992,-12.641,-18.084
2026-06-01 15:34:25.512,2211604968,100512,2,1.01367,-0.06763,-0.2605,2.046,3.229,3.519
2026-06-01 15:34:25.712,2211605168,100712,1,0.95459,0.12573,0.53955,-17.672,2.878,-9.336
2026-06-01 15:34:25.712,2211605168,100712,2,0.99536,-0.08081,-0.24683,5.489,6.221,6.053
2026-06-01 15:34:25.912,2211605368,100912,1,0.9585,0.12085,0.52124,2.519,24.313,10.985
2026-06-01 15:34:25.912,2211605368,100912,2,1.0332,-0.16382,-0.10352,21.763,66.908,8.382
2026-06-01 15:34:25.112,2211604568,101112,1,0.68774,0.05176,0.52905,48.496,38.053,33.733
2026-06-01 15:34:25.112,2211604568,101112,2,0.62939,0.021,-0.0188,181.405,82.58,-10.618
2026-06-01 15:34:26.312,2211605768,101312,1,1.73389,0.25146,0.74512,197.885,-56.847,64.855
2026-06-01 15:34:26.312,2211605768,101312,2,1.50024,0.12988,0.36572,1.008,14.756,25.931
2026-06-01 15:34:26.512,2211605968,101512,1,0.82813,0.09521,0.85107,-45.947,22.939,-24.015
2026-06-01 15:34:26.512,2211605968,101512,2,0.98096,-0.04077,0.30005,-17.847,-26.649,6.786
2026-06-01 15:34:26.712,2211606168,101712,1,0.71631,0.01294,0.7749,-21.573,19.115,-23.786
2026-06-01 15:34:26.712,2211606168,101712,2,0.93823,-0.05273,0.24121,-40.832,-6.977,-10.153
2026-06-01 15:34:26.912,2211606368,101912,1,0.75073,-0.02954,0.77686,-40.237,4.901,-29.458
2026-06-01 15:34:26.912,2211606368,101912,2,0.92236,-0.05078,0.20703,-35.084,-4.443,-7.969
2026-06-01 15:34:26.112,2211605568,102112,1,0.7666,-0.05835,0.78638,-21.931,-3.489,-16.443
2026-06-01 15:34:26.112,2211605568,102112,2,0.97095,-0.09424,0.17798,-19.977,-5.038,-7.076
2026-06-01 15:34:27.312,2211606768,102312,1,0.78027,0.02588,0.81421,3.656,-1.023,-7.351
2026-06-01 15:34:27.312,2211606768,102312,2,1.00195,-0.08472,0.13257,-12.641,-4.534,-2.924
2026-06-01 15:34:27.512,2211606968,102512,1,0.79346,0.07837,0.79004,6.382,1.168,-2.824
2026-06-01 15:34:27.512,2211606968,102512,2,1.01587,-0.02783,0.14185,-0.092,-0.282,-1.679
2026-06-01 15:34:27.712,2211607168,102712,1,0.7981,0.05884,0.79175,-3.908,0.87,-4.29
2026-06-01 15:34:27.712,2211607168,102712,2,1.00781,-0.04761,0.13013,-5.107,-0.473,1.412
2026-06-01 15:34:27.912,2211607368,102912,1,0.79395,0.04272,0.77832,-9.107,0.863,-2.42
2026-06-01 15:34:27.912,2211607368,102912,2,1.0127,-0.07739,0.13965,-6.786,0.397,1.397
2026-06-01 15:34:27.112,2211606568,103112,1,0.7832,0.0481,0.82837,-7.779,-1.557,-6.466
2026-06-01 15:34:27.112,2211606568,103112,2,1.02075,-0.06128,0.13965,-5.847,-0.168,0.206
2026-06-01 15:34:28.312,2211607768,103312,1,0.77612,0.03882,0.82373,-1.45,1.679,-1.45
2026-06-01 15:34:28.312,2211607768,103312,2,1.01367,-0.05298,0.13159,-5.153,-1.26,1.321
2026-06-01 15:34:28.512,2211607968,103512,1,0.78857,0.02417,0.80322,-4.855,1.069,-5.038
2026-06-01 15:34:28.512,2211607968,103512,2,1.00098,-0.05786,0.14014,0.672,3.053,0.527
2026-06-01 15:34:28.712,2211608168,103712,1,0.77808,0.0481,0.79419,5.573,2.107,0.626
2026-06-01 15:34:28.712,2211608168,103712,2,0.99829,-0.07153,0.1438,-0.244,-0.153,2.107
2026-06-01 15:34:28.912,2211608368,103912,1,0.77637,0.04517,0.79834,-3.954,0.008,-1.092
2026-06-01 15:34:28.912,2211608368,103912,2,0.98706,-0.06152,0.14453,-0.947,1.718,1.939
2026-06-01 15:34:28.112,2211607568,104112,1,0.7854,0.02808,0.80835,6.137,4.046,0.962
2026-06-01 15:34:28.112,2211607568,104112,2,1.00464,-0.08521,0.13989,-3.511,0.046,2.305
2026-06-01 15:34:29.312,2211608768,104312,1,0.77295,0.05005,0.80811,7.13,2.771,4.55
2026-06-01 15:34:29.312,2211608768,104312,2,1.0,-0.08032,0.1582,2.344,-0.115,3.802
2026-06-01 15:34:29.512,2211608968,104512,1,0.76294,0.03564,0.79468,8.443,3.466,2.573
2026-06-01 15:34:29.512,2211608968,104512,2,0.98755,-0.08984,0.17188,7.947,5.931,0.427
2026-06-01 15:34:29.712,2211609168,104712,1,0.78296,0.05908,0.86768,11.885,3.618,12.962
2026-06-01 15:34:29.712,2211609168,104712,2,1.03491,-0.09058,0.16333,17.87,5.038,1.221
2026-06-01 15:34:29.912,2211609368,104912,1,0.71875,0.09106,0.84521,18.939,18.893,17.908
2026-06-01 15:34:29.912,2211609368,104912,2,1.00098,-0.07544,0.19922,36.901,14.588,5.908
2026-06-01 15:34:29.112,2211608568,105112,1,0.68872,0.05957,0.87061,19.008,10.733,19.565
2026-06-01 15:34:29.112,2211608568,105112,2,0.96753,-0.07275,0.26953,20.954,8.412,9.061
2026-06-01 15:34:30.312,2211609768,105312,1,0.60181,-0.00269,0.80249,6.298,18.588,6.405
2026-06-01 15:34:30.312,2211609768,105312,2,0.9375,-0.04199,0.28442,27.069,22.275,2.641
2026-06-01 15:34:30.512,2211609968,105512,1,0.58984,0.00562,0.75635,16.489,16.26,12.947
2026-06-01 15:34:30.512,2211609968,105512,2,0.71313,-0.00049,0.32739,52.802,32.214,6.573
2026-06-01 15:34:30.712,2211610168,105712,1,0.57715,0.05713,0.82446,38.389,-23.802,9.305
2026-06-01 15:34:30.712,2211610168,105712,2,0.80957,0.0127,0.46436,2.115,-5.42,-3.542
2026-06-01 15:34:30.912,2211610368,105912,1,0.88135,0.24463,0.78662,24.29,-19.16,-0.634
2026-06-01 15:34:30.912,2211610368,105912,2,1.021,-0.00562,0.4978,-4.191,-22.695,-7.29
2026-06-01 15:34:30.112,2211609568,106112,1,0.93359,0.23975,0.75439,-10.053,-15.504,3.481
2026-06-01 15:34:30.112,2211609568,106112,2,0.88306,-0.03906,0.38672,4.389,9.366,0.023
2026-06-01 15:34:31.415,2211610871,106415,1,0.80005,0.20874,0.76807,4.901,3.42,1.267
2026-06-01 15:34:31.415,2211610871,106415,2,0.98145,-0.00415,0.46924,1.771,3.061,1.305
2026-06-01 15:34:31.615,2211611071,106615,1,0.87158,0.21582,0.89673,-3.901,8.443,-1.58
2026-06-01 15:34:31.615,2211611071,106615,2,0.88281,-0.01807,0.40649,-3.87,1.634,-1.954
2026-06-01 15:34:31.815,2211611271,106815,1,0.72974,0.26245,0.68213,-4.634,4.214,-3.191
2026-06-01 15:34:31.815,2211611271,106815,2,1.07935,0.03027,0.51685,-5.496,-4.374,-0.954
2026-06-01 15:34:31.015,2211610471,107015,1,0.85352,0.27856,0.91528,-14.809,14.084,-5.076
2026-06-01 15:34:31.015,2211610471,107015,2,0.97412,-0.00757,0.42139,-18.74,-11.931,-1.786
2026-06-01 15:34:32.215,2211611671,107215,1,0.57642,0.08594,0.79199,-13.794,-11.489,3.84
2026-06-01 15:34:32.215,2211611671,107215,2,0.88257,-0.04004,0.29248,-4.0,-35.542,0.962
2026-06-01 15:34:32.415,2211611871,107415,1,0.78052,0.10742,0.84595,-55.878,-6.191,-29.634
2026-06-01 15:34:32.415,2211611871,107415,2,0.88892,-0.05371,0.21484,-49.16,-17.153,-5.573
2026-06-01 15:34:32.615,2211612071,107615,1,0.62817,-0.01709,0.71851,-62.58,-16.023,-38.695
2026-06-01 15:34:32.615,2211612071,107615,2,0.89819,-0.12524,0.12183,-69.534,-24.0,-11.786
2026-06-01 15:34:32.815,2211612271,107815,1,0.74878,0.00537,0.7522,-32.0,-9.107,-17.779
2026-06-01 15:34:32.815,2211612271,107815,2,1.00537,-0.13916,0.04468,-20.183,-11.008,-1.42
2026-06-01 15:34:32.015,2211611471,108015,1,0.82349,0.02954,0.73193,6.458,-5.267,0.802
2026-06-01 15:34:32.015,2211611471,108015,2,1.0498,-0.11401,-0.00854,-29.771,-8.305,0.885
2026-06-01 15:34:33.215,2211612671,108215,1,0.85303,-0.01953,0.69946,-32.344,0.519,-8.191
2026-06-01 15:34:33.215,2211612671,108215,2,1.02197,-0.17212,0.00244,-16.74,2.832,3.985
2026-06-01 15:34:33.415,2211612871,108415,1,0.83374,-0.02661,0.72192,-14.038,-4.069,-3.756
2026-06-01 15:34:33.415,2211612871,108415,2,1.01367,-0.12207,0.01758,-11.267,-6.42,0.817
2026-06-01 15:34:33.615,2211613071,108615,1,0.84619,0.0188,0.70361,6.748,1.679,1.817
2026-06-01 15:34:33.615,2211613071,108615,2,1.03174,-0.14502,-0.0083,-6.733,0.275,1.939
2026-06-01 15:34:33.815,2211613271,108815,1,0.84375,-0.00684,0.70703,-5.45,0.969,-4.641
2026-06-01 15:34:33.815,2211613271,108815,2,1.03198,-0.12598,0.02002,-0.718,3.802,-1.656
2026-06-01 15:34:33.015,2211612471,109015,1,0.84277,-0.01294,0.74512,10.733,2.504,1.069
2026-06-01 15:34:33.015,2211612471,109015,2,1.01221,-0.14258,0.01318,6.374,5.473,-1.023
2026-06-01 15:34:34.215,2211613671,109215,1,0.85522,0.00537,0.72314,1.656,-0.084,-2.053
2026-06-01 15:34:34.215,2211613671,109215,2,1.02002,-0.14307,0.00024,-1.893,3.756,0.046
2026-06-01 15:34:34.415,2211613871,109415,1,0.84839,0.01147,0.72021,-0.992,3.748,-0.29
2026-06-01 15:34:34.415,2211613871,109415,2,1.01978,-0.15332,0.0166,-0.534,2.443,1.061
2026-06-01 15:34:34.615,2211614071,109615,1,0.83179,-0.01367,0.72949,0.893,-0.221,0.87
2026-06-01 15:34:34.615,2211614071,109615,2,1.01904,-0.1189,0.02441,1.817,3.725,-0.466
2026-06-01 15:34:34.970,2211614426,109970,1,0.8479,-0.00952,0.74219,-3.145,4.305,0.168
2026-06-01 15:34:34.970,2211614426,109970,2,1.03174,-0.14624,0.03687,-2.725,1.168,-0.046
2026-06-01 15:34:34.170,2211613626,110170,1,0.82886,0.00146,0.75488,1.733,4.626,2.634
2026-06-01 15:34:34.170,2211613626,110170,2,1.02661,-0.12939,0.05151,-2.71,-0.053,2.038
2026-06-01 15:34:35.370,2211614826,110370,1,0.8313,-0.01123,0.73022,2.13,1.779,-0.641
2026-06-01 15:34:35.370,2211614826,110370,2,1.01831,-0.12231,0.03711,0.962,0.145,1.229
2026-06-01 15:34:35.570,2211615026,110570,1,0.85376,-0.01782,0.71655,3.382,1.534,0.947
2026-06-01 15:34:35.570,2211615026,110570,2,1.01416,-0.14819,0.03149,4.359,0.908,0.374
2026-06-01 15:34:35.770,2211615226,110770,1,0.83984,-0.03491,0.73657,2.481,4.878,1.076
2026-06-01 15:34:35.770,2211615226,110770,2,1.0083,-0.15186,0.02295,6.427,3.969,0.588
2026-06-01 15:34:35.970,2211615426,110970,1,0.84277,-0.0332,0.73071,-0.702,4.878,2.489
2026-06-01 15:34:35.970,2211615426,110970,2,1.02686,-0.13428,0.03979,9.756,4.557,0.191
2026-06-01 15:34:35.170,2211614626,111170,1,0.83081,-0.0127,0.79126,9.954,-0.16,8.053
2026-06-01 15:34:35.170,2211614626,111170,2,1.02441,-0.14258,0.03711,-3.71,0.779,3.466
2026-06-01 15:34:36.370,2211615826,111370,1,0.82935,-0.04224,0.75635,-0.511,1.893,2.328
2026-06-01 15:34:36.370,2211615826,111370,2,1.01221,-0.14868,0.06982,0.855,1.664,1.267
2026-06-01 15:34:36.570,2211616026,111570,1,0.82349,-0.05103,0.74805,5.748,5.504,3.634
2026-06-01 15:34:36.570,2211616026,111570,2,1.01099,-0.17383,0.06396,3.053,0.664,3.023
2026-06-01 15:34:36.770,2211616226,111770,1,0.80957,-0.03931,0.77002,2.115,4.702,3.626
2026-06-01 15:34:36.770,2211616226,111770,2,1.00659,-0.12158,0.07813,-4.29,4.099,1.542
2026-06-01 15:34:36.970,2211616426,111970,1,0.80615,-0.0603,0.81396,4.412,4.962,-0.015
2026-06-01 15:34:36.970,2211616426,111970,2,1.01538,-0.13281,0.09277,-3.664,2.397,1.275
2026-06-01 15:34:36.170,2211615626,112170,1,0.80176,-0.05298,0.76563,0.427,5.397,-1.298
2026-06-01 15:34:36.170,2211615626,112170,2,1.01831,-0.15405,0.12451,-5.099,2.069,0.015
2026-06-01 15:34:37.370,2211616826,112370,1,0.7981,-0.04492,0.76392,3.939,6.16,2.611
2026-06-01 15:34:37.370,2211616826,112370,2,1.01489,-0.1709,0.11499,-9.252,3.214,-0.969
2026-06-01 15:34:37.570,2211617026,112570,1,0.79175,-0.04688,0.74048,-1.305,2.855,0.565
2026-06-01 15:34:37.570,2211617026,112570,2,0.9978,-0.20825,0.1355,12.504,6.977,2.42
2026-06-01 15:34:37.770,2211617226,112770,1,0.6853,-0.12183,0.69702,51.107,21.908,14.458
2026-06-01 15:34:37.770,2211617226,112770,2,0.70923,-0.01636,0.16992,74.786,32.794,-3.733
2026-06-01 15:34:37.970,2211617426,112970,1,0.70947,-0.17188,0.68701,62.046,-15.076,21.511
2026-06-01 15:34:37.970,2211617426,112970,2,0.72021,-0.04688,0.06226,52.71,-2.824,-2.351
2026-06-01 15:34:37.170,2211616626,113170,1,0.86865,0.08691,0.57739,45.198,-17.695,21.656
2026-06-01 15:34:37.170,2211616626,113170,2,1.00977,0.00342,0.24048,15.527,19.122,-4.382
2026-06-01 15:34:38.370,2211617826,113370,1,0.91968,0.15234,0.77441,22.893,-14.695,5.969
2026-06-01 15:34:38.370,2211617826,113370,2,1.06299,0.04907,0.32861,-0.061,-5.412,-10.076
2026-06-01 15:34:38.666,2211618122,113666,1,0.98853,0.2644,0.56689,-11.656,-21.603,1.336
2026-06-01 15:34:38.666,2211618122,113666,2,1.09106,-0.04419,0.21265,-2.214,-21.489,-4.221
2026-06-01 15:34:38.892,2211618348,113892,1,1.03564,0.18945,0.52222,-6.382,-8.107,5.725
2026-06-01 15:34:38.892,2211618348,113892,2,1.11011,-0.03735,0.16235,-0.008,-4.481,-4.008
2026-06-01 15:34:38.092,2211617548,114092,1,1.0813,0.16089,0.44922,23.321,-9.0,-3.053
2026-06-01 15:34:38.092,2211617548,114092,2,1.02661,0.10767,0.1106,-0.038,-2.252,-2.656
2026-06-01 15:34:39.292,2211618748,114292,1,1.00488,0.19092,0.41089,2.649,-7.305,0.489
2026-06-01 15:34:39.292,2211618748,114292,2,1.02026,0.01929,0.09888,-3.282,-3.504,3.214
2026-06-01 15:34:39.492,2211618948,114492,1,0.96191,0.17749,0.43262,1.603,0.916,3.397
2026-06-01 15:34:39.492,2211618948,114492,2,1.06177,0.00024,0.13135,9.214,0.298,-1.824
2026-06-01 15:34:39.692,2211619148,114692,1,1.34644,0.26416,0.32837,9.557,36.344,9.458
2026-06-01 15:34:39.692,2211619148,114692,2,1.35059,0.15234,0.26221,13.573,53.939,9.809
2026-06-01 15:34:39.892,2211619348,114892,1,0.99268,0.21021,0.72949,-11.916,55.412,-31.374
2026-06-01 15:34:39.892,2211619348,114892,2,1.06006,0.11768,0.30957,-31.885,26.924,-15.954
2026-06-01 15:34:39.092,2211618548,115092,1,0.93652,0.15967,0.8877,-56.588,12.008,-3.977
2026-06-01 15:34:39.092,2211618548,115092,2,1.04761,-0.00342,0.16455,4.794,-29.664,5.947
2026-06-01 15:34:40.292,2211619748,115292,1,0.57129,0.22144,0.77661,-19.519,1.832,-12.511
2026-06-01 15:34:40.292,2211619748,115292,2,0.74316,-0.01831,0.06763,-134.931,-57.687,13.939
2026-06-01 15:34:40.492,2211619948,115492,1,0.43726,-0.10376,0.45459,-103.374,-60.046,-65.756
2026-06-01 15:34:40.492,2211619948,115492,2,0.73047,-0.15283,0.0647,-53.489,-63.786,-17.511
2026-06-01 15:34:40.692,2211620148,115692,1,0.98901,0.26514,0.41943,-17.092,-35.42,-13.382
2026-06-01 15:34:40.692,2211620148,115692,2,0.93091,0.10132,-0.23218,-4.092,1.328,-5.053
2026-06-01 15:34:40.892,2211620348,115892,1,0.98096,0.18896,0.5022,-12.435,-1.855,-6.519
2026-06-01 15:34:40.892,2211620348,115892,2,1.0271,0.04224,-0.2478,19.267,-3.962,5.527
2026-06-01 15:34:40.092,2211619548,116092,1,0.97803,0.13037,0.47876,1.832,0.206,-0.191
2026-06-01 15:34:40.092,2211619548,116092,2,0.979,0.01587,-0.25708,-9.672,2.351,0.137
2026-06-01 15:34:41.292,2211620748,116292,1,0.93701,0.16479,0.49219,-5.718,4.962,0.55
2026-06-01 15:34:41.292,2211620748,116292,2,1.04224,-0.02832,-0.24976,4.153,3.626,2.496
2026-06-01 15:34:41.492,2211620948,116492,1,1.01636,0.12988,0.38477,9.511,41.183,9.443
2026-06-01 15:34:41.492,2211620948,116492,2,1.02856,-0.09131,-0.15674,12.969,45.26,16.58
2026-06-01 15:34:41.692,2211621148,116692,1,0.38501,0.27075,0.4895,41.298,63.221,32.015
2026-06-01 15:34:41.692,2211621148,116692,2,0.54712,0.06396,-0.09814,105.771,63.748,3.893
2026-06-01 15:34:41.892,2211621348,116892,1,0.83716,0.15454,0.95923,19.092,-66.45,66.779
2026-06-01 15:34:41.892,2211621348,116892,2,1.02197,-0.02197,0.30054,116.519,33.718,1.809
2026-06-01 15:34:41.092,2211620548,117092,1,1.04004,0.24829,0.68018,41.908,-10.611,-0.023
2026-06-01 15:34:41.092,2211620548,117092,2,1.16699,-0.03296,0.34106,0.099,-8.931,4.122
2026-06-01 15:34:42.292,2211621748,117292,1,1.18188,0.20679,0.47754,11.206,-14.84,1.634
2026-06-01 15:34:42.292,2211621748,117292,2,1.16724,0.01392,0.25293,-6.092,-6.725,-4.412
2026-06-01 15:34:42.492,2211621948,117492,1,1.16187,0.25854,0.46875,-17.176,11.198,16.107
2026-06-01 15:34:42.492,2211621948,117492,2,1.14551,-0.02368,0.36426,0.496,3.969,12.916
2026-06-01 15:34:42.692,2211622148,117692,1,0.8811,0.08594,0.53394,-6.58,5.481,-5.733
2026-06-01 15:34:42.692,2211622148,117692,2,0.9812,-0.05273,0.323,-7.389,0.511,-1.168
2026-06-01 15:34:42.892,2211622348,117892,1,1.15918,0.14429,0.6084,13.176,4.771,-5.038
2026-06-01 15:34:42.892,2211622348,117892,2,1.2439,-0.00854,0.43555,1.718,-11.618,-1.519
2026-06-01 15:34:42.092,2211621548,118092,1,1.22656,0.27759,0.73535,-7.863,7.466,-14.443
2026-06-01 15:34:42.092,2211621548,118092,2,1.2168,0.04395,0.2478,-22.504,-28.771,-6.618
2026-06-01 15:34:43.292,2211622748,118292,1,0.96191,0.17822,0.68677,-20.656,12.061,-19.496
2026-06-01 15:34:43.292,2211622748,118292,2,0.95557,-0.04102,0.0769,-79.191,-44.679,1.305
2026-06-01 15:34:43.492,2211622948,118492,1,0.62524,0.10449,0.40723,-3.603,1.473,-14.557
2026-06-01 15:34:43.492,2211622948,118492,2,0.66968,0.02319,-0.08716,-51.802,-43.511,0.832
2026-06-01 15:34:43.692,2211623148,118692,1,0.63525,0.06567,0.29785,-11.099,-37.924,-22.641
2026-06-01 15:34:43.692,2211623148,118692,2,0.89331,-0.09473,-0.09302,-31.962,-11.901,-7.649
2026-06-01 15:34:43.892,2211623348,118892,1,0.90967,0.09961,0.5459,-14.542,-4.351,-2.534
2026-06-01 15:34:43.892,2211623348,118892,2,1.05371,0.03442,-0.24097,-15.015,-11.023,-6.786
2026-06-01 15:34:43.092,2211622548,119092,1,0.97412,0.13525,0.51294,14.321,5.206,8.13
2026-06-01 15:34:43.092,2211622548,119092,2,1.01978,-0.03369,-0.2561,19.947,6.87,-5.527
2026-06-01 15:34:44.292,2211623748,119292,1,0.96313,0.13867,0.50244,3.534,8.611,4.466
2026-06-01 15:34:44.292,2211623748,119292,2,1.00366,-0.03931,-0.25708,14.885,4.473,1.031
2026-06-01 15:34:44.492,2211623948,119492,1,0.96289,0.13623,0.5437,6.664,9.611,3.718
2026-06-01 15:34:44.492,2211623948,119492,2,1.01758,-0.08252,-0.23828,35.015,4.527,1.519
2026-06-01 15:34:44.692,2211624148,119692,1,0.93945,0.15649,0.58325,0.168,16.206,-0.282
2026-06-01 15:34:44.692,2211624148,119692,2,1.01758,-0.03198,-0.2041,22.87,5.229,0.45
2026-06-01 15:34:44.892,2211624348,119892,1,0.82129,0.12695,0.50464,-21.664,23.901,-4.0
2026-06-01 15:34:44.892,2211624348,119892,2,0.85352,-0.11523,0.0127,39.603,70.702,3.153
2026-06-01 15:34:44.092,2211623548,120092,1,0.27393,0.06958,0.48657,9.809,13.939,16.908
2026-06-01 15:34:44.092,2211623548,120092,2,0.78027,-0.0896,0.06396,39.153,51.183,-9.931
2026-06-01 15:34:45.292,2211624748,120292,1,0.91821,0.03345,0.83008,-86.656,-17.893,14.237
2026-06-01 15:34:45.292,2211624748,120292,2,1.08667,0.03564,0.38745,27.893,14.473,-5.466
2026-06-01 15:34:45.492,2211624948,120492,1,1.12402,0.30688,0.60571,37.695,-17.664,-3.794
2026-06-01 15:34:45.492,2211624948,120492,2,1.14014,0.00684,0.57349,-8.061,9.45,-10.344
2026-06-01 15:34:45.692,2211625148,120692,1,1.0105,0.07129,0.70508,-5.397,-9.542,4.336
2026-06-01 15:34:45.692,2211625148,120692,2,1.0918,0.01953,0.3501,-8.924,-20.786,-1.557
2026-06-01 15:34:45.951,2211625407,120951,1,1.05811,0.12793,0.49756,-3.725,-10.244,3.053
2026-06-01 15:34:45.951,2211625407,120951,2,1.04419,0.05347,0.26245,-3.473,-8.733,-1.557
2026-06-01 15:34:45.151,2211624607,121151,1,0.95874,0.04956,0.45435,-9.305,-0.87,3.908
2026-06-01 15:34:45.151,2211624607,121151,2,0.97217,-0.00464,0.24316,-3.328,-12.015,0.916
2026-06-01 15:34:46.351,2211625807,121351,1,1.01807,0.02515,0.54907,-7.389,-8.351,5.924
2026-06-01 15:34:46.351,2211625807,121351,2,1.146,0.00122,0.27271,1.618,-16.29,-3.145
2026-06-01 15:34:46.551,2211626007,121551,1,1.3042,0.23926,0.4043,53.84,44.557,1.733
2026-06-01 15:34:46.551,2211626007,121551,2,1.10498,0.13403,0.17871,-3.198,41.87,-5.359
2026-06-01 15:34:46.751,2211626207,121751,1,1.06299,0.15356,0.698,13.267,19.519,-22.313
2026-06-01 15:34:46.751,2211626207,121751,2,1.04834,0.06934,0.37866,-28.26,-6.366,-0.656
2026-06-01 15:34:46.951,2211626407,121951,1,0.89111,0.2019,0.77197,-60.29,24.763,-2.206
2026-06-01 15:34:46.951,2211626407,121951,2,1.03076,-0.00098,0.14917,-27.351,-41.519,4.901
2026-06-01 15:34:46.151,2211625607,122151,1,0.62451,0.10547,0.54688,-53.26,21.588,-33.557
2026-06-01 15:34:46.151,2211625607,122151,2,0.72925,-0.06494,-0.00708,-135.504,-42.519,9.244
2026-06-01 15:34:47.351,2211626807,122351,1,0.62646,-0.07593,0.27466,-48.702,-49.611,-28.405
2026-06-01 15:34:47.351,2211626807,122351,2,0.87524,-0.14722,-0.08179,-53.802,-38.313,-14.344
2026-06-01 15:34:47.551,2211627007,122551,1,0.88818,0.15356,0.60107,-57.351,-17.588,-20.366
2026-06-01 15:34:47.551,2211627007,122551,2,1.12061,-0.02002,-0.14282,-12.275,-15.099,-2.756
2026-06-01 15:34:47.751,2211627207,122751,1,0.95752,0.21167,0.5105,19.908,7.397,9.802
2026-06-01 15:34:47.751,2211627207,122751,2,1.0708,-0.04224,-0.28076,24.656,5.802,1.954
2026-06-01 15:34:47.951,2211627407,122951,1,0.95361,0.14844,0.47144,27.313,32.214,20.359
2026-06-01 15:34:47.951,2211627407,122951,2,0.77637,-0.12598,-0.01758,51.939,51.0,13.756
2026-06-01 15:34:47.151,2211626607,123151,1,0.5105,0.13721,0.49829,124.756,16.092,55.969
2026-06-01 15:34:47.151,2211626607,123151,2,0.92944,-0.07739,-0.31909,-49.015,10.351,-15.046
2026-06-01 15:34:48.351,2211627807,123351,1,0.87329,-0.05908,0.5542,64.634,-35.496,51.26
2026-06-01 15:34:48.351,2211627807,123351,2,0.81909,0.04443,0.12036,47.504,57.878,-35.725
2026-06-01 15:34:48.551,2211628007,123551,1,1.25464,0.07764,0.4729,-20.099,-40.405,6.046
2026-06-01 15:34:48.551,2211628007,123551,2,1.26416,0.08032,0.20435,52.229,-8.122,-5.443
2026-06-01 15:34:48.751,2211628207,123751,1,1.37012,-0.17163,0.5083,33.557,-16.229,-0.687
2026-06-01 15:34:48.751,2211628207,123751,2,1.24219,-0.03174,0.27344,-10.046,-20.802,-0.16
2026-06-01 15:34:48.951,2211628407,123951,1,1.12891,-0.08521,0.27393,2.855,6.611,-3.71
2026-06-01 15:34:48.951,2211628407,123951,2,1.12524,0.11914,0.12891,15.328,16.954,2.26
2026-06-01 15:34:48.151,2211627607,124151,1,1.02832,-0.01123,0.3335,17.504,11.16,3.038
2026-06-01 15:34:48.151,2211627607,124151,2,0.9502,0.0415,0.1062,2.023,2.511,3.779
2026-06-01 15:34:49.351,2211628807,124351,1,1.04956,0.02075,0.33496,4.809,16.221,2.046
2026-06-01 15:34:49.351,2211628807,124351,2,0.98047,-0.0166,0.23682,-7.649,13.382,-2.046
2026-06-01 15:34:49.559,2211629015,124558,1,1.00342,0.1001,0.49121,4.931,8.809,-8.13
2026-06-01 15:34:49.559,2211629015,124558,2,0.96484,0.04761,0.22046,-8.42,-1.221,-0.053
2026-06-01 15:34:49.758,2211629214,124758,1,0.95117,0.02124,0.44653,-19.687,12.672,-9.435
2026-06-01 15:34:49.758,2211629214,124758,2,1.01367,0.00684,0.26196,-10.527,-0.344,-2.626
2026-06-01 15:34:49.958,2211629414,124958,1,1.37305,0.0813,0.58667,17.229,17.649,-4.611
2026-06-01 15:34:49.958,2211629414,124958,2,1.31787,0.04272,0.37744,17.053,18.076,-0.496
2026-06-01 15:34:49.158,2211628614,125158,1,1.06836,0.15161,0.70605,-10.084,14.786,-11.649
2026-06-01 15:34:49.158,2211628614,125158,2,1.11792,-0.00586,0.30859,-20.45,-14.878,-4.641
2026-06-01 15:34:50.358,2211629814,125358,1,0.90479,0.15845,0.55762,50.939,28.29,-25.015
2026-06-01 15:34:50.358,2211629814,125358,2,1.03296,-0.06836,0.09033,-73.916,-43.046,12.611
2026-06-01 15:34:50.558,2211630014,125558,1,0.4812,0.06787,0.44189,-64.542,0.832,-42.168
2026-06-01 15:34:50.558,2211630014,125558,2,0.45215,-0.08228,-0.0752,-80.847,-50.359,1.908
2026-06-01 15:34:50.758,2211630214,125758,1,0.84399,0.13623,0.50293,22.496,-37.26,8.221
2026-06-01 15:34:50.758,2211630214,125758,2,1.19214,-0.12671,-0.04736,-43.176,-21.13,-0.557
2026-06-01 15:34:50.958,2211630414,125958,1,0.95508,0.20337,0.52759,43.901,-5.16,20.794
2026-06-01 15:34:50.958,2211630414,125958,2,1.01538,-0.06689,-0.21753,-35.992,-11.328,-0.832
2026-06-01 15:34:50.158,2211629614,126158,1,0.94775,0.13867,0.5061,19.473,4.076,9.13
2026-06-01 15:34:50.158,2211629614,126158,2,1.01636,-0.03955,-0.18896,7.969,1.191,4.366
2026-06-01 15:34:51.358,2211630814,126358,1,0.96118,0.10669,0.5459,-5.672,0.458,-4.153
2026-06-01 15:34:51.358,2211630814,126358,2,1.01294,-0.05591,-0.20532,12.412,0.435,3.924
2026-06-01 15:34:51.558,2211631014,126558,1,0.95801,0.13232,0.50146,10.458,16.183,4.084
2026-06-01 15:34:51.558,2211631014,126558,2,1.01807,-0.04785,-0.2439,21.885,15.115,0.87
2026-06-01 15:34:51.758,2211631214,126758,1,0.93945,0.15576,0.5332,-1.931,20.962,-0.198
2026-06-01 15:34:51.758,2211631214,126758,2,0.93896,-0.10645,-0.03931,19.565,31.16,7.42
2026-06-01 15:34:51.958,2211631414,126958,1,0.20361,0.03101,0.34961,47.641,61.031,21.198
2026-06-01 15:34:51.958,2211631414,126958,2,0.17603,0.07813,-0.06812,97.176,65.847,-1.748
2026-06-01 15:34:51.158,2211630614,127158,1,0.95825,-0.03125,0.4812,122.427,-32.176,40.092
2026-06-01 15:34:51.158,2211630614,127158,2,0.896,0.11499,0.15869,96.779,59.962,-13.267
2026-06-01 15:34:52.358,2211631814,127358,1,1.19971,0.07837,0.7207,-25.786,-44.038,25.573
2026-06-01 15:34:52.358,2211631814,127358,2,1.22217,-0.01978,0.42285,-4.13,-14.237,6.84
2026-06-01 15:34:52.558,2211632014,127558,1,1.22095,0.06885,0.66675,17.244,-11.527,3.817
2026-06-01 15:34:52.558,2211632014,127558,2,1.14404,0.05493,0.37061,-1.008,-13.29,-2.328
2026-06-01 15:34:52.758,2211632214,127758,1,1.07715,0.11572,0.41333,-0.534,-21.473,9.26
2026-06-01 15:34:52.758,2211632214,127758,2,1.21338,0.11011,0.33838,-1.252,-18.962,0.641
2026-06-01 15:34:52.958,2211632414,127958,1,1.37134,-0.02246,0.49292,10.328,47.282,-2.084
2026-06-01 15:34:52.958,2211632414,127958,2,1.16724,0.11841,0.28027,0.313,20.664,-0.641
2026-06-01 15:34:53.391,2211632847,128391,1,1.01196,0.06641,0.71631,-56.649,6.046,22.817
2026-06-01 15:34:53.391,2211632847,128391,2,0.77026,-0.00171,-0.02905,-94.87,-43.107,3.718
2026-06-01 15:34:53.716,2211633172,128716,1,0.46484,0.03271,0.51221,-49.015,-41.496,-36.496
2026-06-01 15:34:53.716,2211633172,128716,2,0.7395,-0.08301,-0.17334,-48.771,-51.282,-8.427
2026-06-01 15:34:53.916,2211633372,128916,1,0.97388,0.23706,0.44067,-56.206,-33.443,-34.206
2026-06-01 15:34:53.916,2211633372,128916,2,0.98267,-0.26587,-0.28711,3.069,-30.366,5.45
2026-06-01 15:34:53.116,2211632572,129116,1,1.01392,0.28418,0.32739,78.435,-7.015,16.359
2026-06-01 15:34:53.116,2211632572,129116,2,0.97437,0.03735,-0.2251,30.153,3.008,11.229
2026-06-01 15:34:54.316,2211633772,129316,1,1.02588,0.12207,0.47388,14.153,14.374,6.916
2026-06-01 15:34:54.316,2211633772,129316,2,1.04517,-0.2334,-0.09546,56.725,19.351,19.153
2026-06-01 15:34:54.540,2211633996,129540,1,0.39478,0.08716,0.46509,82.786,64.84,43.099
2026-06-01 15:34:54.540,2211633996,129540,2,0.43799,-0.0481,-0.14063,83.641,63.382,-0.344
2026-06-01 15:34:54.740,2211634196,129740,1,0.7251,0.02319,0.77002,149.534,4.145,50.817
2026-06-01 15:34:54.740,2211634196,129740,2,0.94824,-0.05249,-0.052,-18.756,29.687,-21.626
2026-06-01 15:34:54.940,2211634396,129940,1,1.0979,-0.06787,0.71729,67.588,-30.198,-6.771
2026-06-01 15:34:54.940,2211634396,129940,2,1.2854,-0.15552,0.35986,12.382,-23.679,-1.977
2026-06-01 15:34:54.140,2211633596,130140,1,1.25342,0.12061,0.46216,53.794,-56.008,6.878
2026-06-01 15:34:54.140,2211633596,130140,2,1.21704,-0.00269,0.23242,-3.42,-3.023,0.557
2026-06-01 15:34:55.340,2211634796,130340,1,1.12744,-0.05688,0.32739,2.122,1.092,8.298
2026-06-01 15:34:55.340,2211634796,130340,2,1.13037,0.00684,0.17334,-13.527,-7.595,2.427
2026-06-01 15:34:55.540,2211634996,130540,1,1.02271,-0.1228,0.3313,-10.29,10.489,-1.779
2026-06-01 15:34:55.540,2211634996,130540,2,0.99487,-0.0127,0.19409,-16.947,7.183,0.962
2026-06-01 15:34:55.740,2211635196,130740,1,1.4939,-0.14429,0.47412,5.046,13.237,-7.542
2026-06-01 15:34:55.740,2211635196,130740,2,1.61426,-0.08862,0.36011,7.611,-2.939,-0.939
2026-06-01 15:34:55.940,2211635396,130940,1,1.1499,0.09912,0.59082,49.817,17.374,-17.947
2026-06-01 15:34:55.940,2211635396,130940,2,1.1626,0.04712,0.06274,-1.649,-24.366,3.191
2026-06-01 15:34:55.140,2211634596,131140,1,0.98853,0.05469,0.46094,26.115,38.969,-35.504
2026-06-01 15:34:55.140,2211634596,131140,2,0.96729,0.00415,,-98.489,-36.0,6.557
2026-06-01 15:34:56.340,2211635796,131340,1,0.55103,0.07056,0.42554,-47.168,-6.16,-38.588
2026-06-01 15:34:56.340,2211635796,131340,2,0.50977,-0.073,-0.10913,-17.328,-44.244,5.84
2026-06-01 15:34:56.540,2211635996,131540,1,0.80469,0.18701,0.43726,35.634,-22.153,11.244
2026-06-01 15:34:56.540,2211635996,131540,2,1.07007,-0.13867,-0.35278,68.916,-22.275,14.496
2026-06-01 15:34:56.740,2211636196,131740,1,1.0083,0.19946,0.51514,68.183,-5.565,24.244
2026-06-01 15:34:56.740,2211636196,131740,2,1.05005,-0.19019,-0.1084,72.435,-8.26,16.13
2026-06-01 15:34:56.940,2211636396,131940,1,0.94409,0.17529,0.53613,38.893,1.87,17.634
2026-06-01 15:34:56.940,2211636396,131940,2,1.03784,-0.06812,-0.13794,4.473,-1.282,1.588
2026-06-01 15:34:56.140,2211635596,132140,1,0.95728,0.11914,0.52075,-0.412,10.954,-0.214
2026-06-01 15:34:56.140,2211635596,132140,2,1.01294,-0.06934,-0.19873,18.321,4.504,6.443
2026-06-01 15:34:57.340,2211636796,132340,1,0.94604,0.1311,0.52686,-8.076,17.832,-2.038
2026-06-01 15:34:57.340,2211636796,132340,2,1.00732,-0.14673,-0.07544,30.771,30.443,9.237
2026-06-01 15:34:57.540,2211636996,132540,1,0.54199,0.021,0.46313,-11.458,33.534,-3.382
2026-06-01 15:34:57.540,2211636996,132540,2,0.5061,-0.1416,-0.00928,-15.023,63.344,22.374
2026-06-01 15:34:57.740,2211637196,132740,1,0.80176,0.12036,0.60352,181.489,-40.496,63.779
2026-06-01 15:34:57.740,2211637196,132740,2,1.09521,-0.11011,0.31079,29.489,18.863,2.695
2026-06-01 15:34:57.967,2211637423,132967,1,1.09619,0.1958,0.7915,27.962,-51.374,27.573
2026-06-01 15:34:57.967,2211637423,132967,2,1.10596,0.09009,0.40869,20.756,0.282,4.908
2026-06-01 15:34:57.167,2211636623,133167,1,1.18433,0.07373,0.58276,-7.084,-8.947,8.038
2026-06-01 15:34:57.167,2211636623,133167,2,1.1748,0.00488,0.38062,4.664,-12.733,-0.176
2026-06-01 15:34:58.367,2211637823,133367,1,0.99243,0.05176,0.47876,-4.893,-14.29,8.565
2026-06-01 15:34:58.367,2211637823,133367,2,1.05029,0.03174,0.28711,-2.0,-25.26,1.229
2026-06-01 15:34:58.567,2211638023,133567,1,1.37915,-0.09277,0.21191,-11.282,19.794,-5.695
2026-06-01 15:34:58.567,2211638023,133567,2,1.45239,-0.02588,0.34082,-14.069,25.198,-7.0
2026-06-01 15:34:58.767,2211638223,133767,1,1.10791,0.08081,0.55103,59.473,40.084,-16.534
2026-06-01 15:34:58.767,2211638223,133767,2,1.20142,0.08105,0.32324,-38.466,19.305,-7.939
2026-06-01 15:34:58.967,2211638423,133967,1,0.96143,0.09741,0.91797,-12.977,23.534,-11.649
2026-06-01 15:34:58.967,2211638423,133967,2,1.02979,0.03418,0.22168,-25.397,-16.053,-3.29
2026-06-01 15:34:58.167,2211637623,134167,1,0.79468,0.05811,0.64868,-18.244,32.13,-22.519
2026-06-01 15:34:58.167,2211637623,134167,2,0.76758,-0.0542,0.09473,-77.313,-64.695,3.13
2026-06-01 15:34:59.367,2211638823,134367,1,0.39111,0.08179,0.41553,-60.794,-47.305,-50.008
2026-06-01 15:34:59.367,2211638823,134367,2,0.62744,0.0752,-0.04199,-8.0,-95.061,-1.802
2026-06-01 15:34:59.567,2211639023,134567,1,0.80225,0.07788,0.89966,-57.931,-32.069,-33.634
2026-06-01 15:34:59.567,2211639023,134567,2,1.07788,-0.12183,-0.28467,-79.16,-11.603,3.885
2026-06-01 15:34:59.767,2211639223,134767,1,0.97046,0.08374,0.52783,-9.122,-3.695,-5.359
2026-06-01 15:34:59.767,2211639223,134767,2,1.03833,-0.0686,-0.27856,27.641,10.588,-2.153
2026-06-01 15:34:59.967,2211639423,134967,1,0.95703,0.12549,0.55591,-10.756,30.687,12.16
2026-06-01 15:34:59.967,2211639423,134967,2,0.89575,-0.14087,-0.07349,46.344,37.977,17.305
2026-06-01 15:34:59.167,2211638623,135167,1,0.44458,0.03369,0.46362,44.053,51.901,18.71
2026-06-01 15:34:59.167,2211638623,135167,2,0.48486,0.04077,-0.02148,54.282,55.084,2.992
2026-06-01 15:35:00.367,2211639823,135367,1,0.84717,-0.19165,0.70532,-127.954,-27.992,9.718
2026-06-01 15:35:00.367,2211639823,135367,2,1.09497,-0.03979,0.32422,119.962,32.038,-13.885
2026-06-01 15:35:00.567,2211640023,135567,1,1.03516,-0.01514,0.92896,74.397,-27.618,-0.481
2026-06-01 15:35:00.567,2211640023,135567,2,1.10693,-0.07129,0.31812,62.26,0.954,-7.305
2026-06-01 15:35:00.767,2211640223,135767,1,1.2417,0.09082,0.56885,-5.137,-23.023,11.962
2026-06-01 15:35:00.767,2211640223,135767,2,1.17773,0.04956,0.34424,2.45,1.947,-3.008
2026-06-01 15:35:00.974,2211640430,135974,1,1.04907,0.10132,0.45972,1.977,3.45,0.305
2026-06-01 15:35:00.974,2211640430,135974,2,1.06836,0.00269,0.32617,-2.496,11.863,0.397
2026-06-01 15:35:00.174,2211639630,136174,1,1.07251,-0.03223,0.46875,-14.16,6.366,1.969
2026-06-01 15:35:00.174,2211639630,136174,2,0.94556,0.00342,0.31567,-14.153,1.427,-0.824
2026-06-01 15:35:01.374,2211640830,136374,1,1.22339,0.0083,0.56226,8.427,-5.824,-5.214
2026-06-01 15:35:01.374,2211640830,136374,2,1.56226,-0.01025,0.57813,13.374,-21.008,-6.771
2026-06-01 15:35:01.574,2211641030,136574,1,1.08813,0.15894,0.76343,-2.466,20.573,-19.29
2026-06-01 15:35:01.574,2211641030,136574,2,1.11206,0.0769,0.20215,-24.443,-30.458,-8.504
2026-06-01 15:35:01.774,2211641230,136774,1,1.07788,0.1062,0.6189,-46.267,17.359,-27.176
2026-06-01 15:35:01.774,2211641230,136774,2,1.02368,-0.05713,0.24756,-56.221,-40.107,-1.366
2026-06-01 15:35:01.974,2211641430,136974,1,0.46045,0.04004,0.45923,-107.626,13.153,-60.542
2026-06-01 15:35:01.974,2211641430,136974,2,0.38696,-0.00757,-0.01709,-56.473,-35.855,13.466
2026-06-01 15:35:01.174,2211640630,137174,1,0.62329,0.12012,0.32813,44.557,-39.26,17.023
2026-06-01 15:35:01.174,2211640630,137174,2,1.35034,-0.41382,-0.16699,11.244,-13.489,24.954
2026-06-01 15:35:02.374,2211641830,137374,1,0.95728,0.19092,0.50537,21.26,-13.992,6.779
2026-06-01 15:35:02.374,2211641830,137374,2,1.125,-0.23853,-0.19849,-70.405,-39.122,3.015
2026-06-01 15:35:02.574,2211642030,137574,1,0.94604,0.14575,0.5354,30.809,4.267,13.099
2026-06-01 15:35:02.574,2211642030,137574,2,1.0249,-0.10742,-0.14185,-22.099,-15.924,5.908
2026-06-01 15:35:02.774,2211642230,137774,1,0.90894,0.22363,0.51367,-7.214,1.916,9.069
2026-06-01 15:35:02.774,2211642230,137774,2,1.03394,-0.01099,-0.2373,-32.252,-18.595,25.725
2026-06-01 15:35:02.974,2211642430,137974,1,0.9834,0.01294,0.46265,-77.061,-10.397,-30.267
2026-06-01 15:35:02.974,2211642430,137974,2,1.00317,-0.15381,-0.39819,-52.954,3.672,17.275
2026-06-01 15:35:02.174,2211641630,138174,1,0.97583,0.00415,0.47949,-56.053,3.809,-23.748
2026-06-01 15:35:02.174,2211641630,138174,2,0.9668,-0.1228,-0.22974,3.847,-1.634,11.725
2026-06-01 15:35:03.374,2211642830,138374,1,1.28784,0.29614,0.52563,-27.603,-33.695,26.618
2026-06-01 15:35:03.374,2211642830,138374,2,1.04346,0.08423,-0.24268,-116.649,25.29,16.924
2026-06-01 15:35:03.574,2211643030,138574,1,0.7583,0.36035,0.53931,-18.511,-18.863,-23.198
2026-06-01 15:35:03.574,2211643030,138574,2,0.96289,-0.3042,-0.3855,-91.214,-46.832,53.924
2026-06-01 15:35:03.774,2211643230,138774,1,1.11475,-0.17212,0.48242,3.679,-7.588,13.344
2026-06-01 15:35:03.774,2211643230,138774,2,0.98267,-0.16895,-0.35986,-10.351,0.55,9.527
2026-06-01 15:35:03.974,2211643430,138974,1,0.98486,-0.07837,0.43945,0.412,-2.061,-13.748
2026-06-01 15:35:03.974,2211643430,138974,2,0.93945,-0.16943,-0.47949,-34.931,18.893,1.29
2026-06-01 15:35:04.200,2211643656,139200,1,0.98779,-0.0332,0.43286,-13.947,4.321,-20.901
2026-06-01 15:35:04.200,2211643656,139200,2,0.95972,-0.17773,-0.47559,-0.649,9.115,-8.481
2026-06-01 15:35:04.400,2211643856,139400,1,0.95605,0.05103,0.4353,2.496,10.176,-17.115
2026-06-01 15:35:04.400,2211643856,139400,2,0.94458,-0.13135,-0.375,-17.672,12.038,4.267
2026-06-01 15:35:04.600,2211644056,139600,1,0.88721,0.19531,0.54419,6.626,18.908,0.084
2026-06-01 15:35:04.600,2211644056,139600,2,1.11304,0.06934,-0.21533,47.664,22.733,1.947
2026-06-01 15:35:04.800,2211644256,139800,1,0.88721,0.17529,0.521,-27.656,15.366,-20.626
2026-06-01 15:35:04.800,2211644256,139800,2,0.99658,-0.04785,-0.21313,-21.855,10.084,4.718
2026-06-01 15:35:04.000,2211643456,140000,1,0.94263,0.20264,0.57324,-29.74,-33.863,4.321
2026-06-01 15:35:04.000,2211643456,140000,2,1.15723,-0.08301,-0.24292,-26.267,-38.397,10.107
2026-06-01 15:35:05.200,2211644656,140200,1,1.04517,-0.07104,0.65527,-14.901,-11.466,-6.191
2026-06-01 15:35:05.200,2211644656,140200,2,1.0,-0.2002,-0.30469,-99.305,5.42,26.962
2026-06-01 15:35:05.400,2211644856,140400,1,1.08423,-0.00684,0.59033,1.13,-14.191,-9.427
2026-06-01 15:35:05.400,2211644856,140400,2,0.89868,-0.1272,-0.23071,-36.916,5.504,-23.71
2026-06-01 15:35:05.600,2211645056,140600,1,0.96167,0.0564,0.52954,2.573,3.519,-1.534
2026-06-01 15:35:05.600,2211645056,140600,2,0.98608,-0.0376,-0.2915,21.443,-3.603,-5.557
2026-06-01 15:35:05.800,2211645256,140800,1,0.94922,0.12695,0.5188,17.328,8.954,6.427
2026-06-01 15:35:05.800,2211645256,140800,2,1.01855,-0.0459,-0.27954,17.786,3.878,-6.046
2026-06-01T15:35:39.992757,,,,,,,,,
2026-06-01 15:35:39.480,2211678936,12480,1,1.02905,0.11084,0.19434,-12.718,10.427,-1.466
2026-06-01 15:35:39.480,2211678936,12480,2,1.04077,-0.01172,-0.01294,-5.206,12.382,3.695
2026-06-01 15:35:39.680,2211679136,12680,1,1.03662,0.10645,0.32983,-10.397,13.084,-1.55
2026-06-01 15:35:39.680,2211679136,12680,2,1.04688,-0.0437,0.04419,1.008,18.046,3.443
2026-06-01 15:35:40.880,2211680336,12880,1,0.96826,0.10254,0.37329,3.183,21.87,-4.809
2026-06-01 15:35:40.880,2211680336,12880,2,0.94531,-0.03101,0.05737,-29.16,6.565,0.481
2026-06-01 15:35:40.080,2211679536,13080,1,0.98242,0.15259,0.48071,13.458,12.962,-0.084
2026-06-01 15:35:40.080,2211679536,13080,2,0.98511,0.00342,0.09253,17.374,20.611,-4.153
2026-06-01 15:35:40.280,2211679736,13280,1,0.95776,0.17529,0.53076,-7.802,7.435,-5.031
2026-06-01 15:35:40.280,2211679736,13280,2,0.99414,-0.00024,0.13721,17.771,7.939,-1.046
2026-06-01 15:35:40.480,2211679936,13480,1,0.96826,0.15527,0.54053,8.832,-2.656,1.573
2026-06-01 15:35:40.480,2211679936,13480,2,0.99438,-0.00854,0.21216,-7.664,-8.061,0.344
2026-06-01 15:35:40.680,2211680136,13680,1,0.97192,0.1438,0.37915,-2.42,-11.275,6.595
2026-06-01 15:35:40.680,2211680136,13680,2,1.01392,0.01123,0.08643,-9.237,-8.931,5.847
2026-06-01 15:35:41.880,2211681336,13880,1,1.03418,0.11743,0.35254,7.992,0.053,0.176
2026-06-01 15:35:41.880,2211681336,13880,2,1.01318,-0.00391,0.12451,2.901,-0.794,0.794
2026-06-01 15:35:41.080,2211680536,14080,1,0.98071,0.16382,0.33203,-1.435,12.534,4.069
2026-06-01 15:35:41.080,2211680536,14080,2,1.00366,-0.01904,0.14014,4.649,12.534,-1.053
2026-06-01 15:35:41.280,2211680736,14280,1,0.99561,0.0874,0.46582,-7.267,2.779,-0.527
2026-06-01 15:35:41.280,2211680736,14280,2,1.02832,-0.03418,0.18823,-13.962,-8.466,-3.366
2026-06-01 15:35:41.480,2211680936,14480,1,0.99927,0.09961,0.41699,-12.458,1.168,-3.122
2026-06-01 15:35:41.480,2211680936,14480,2,0.99683,-0.01245,0.12671,-15.641,-14.023,-2.901
2026-06-01 15:35:41.680,2211681136,14680,1,1.0127,0.09375,0.40845,2.71,6.504,2.351
2026-06-01 15:35:41.680,2211681136,14680,2,1.00146,0.01147,0.06201,5.824,3.053,-2.962
2026-06-01 15:35:42.880,2211682336,14880,1,1.00562,0.10547,0.41968,5.489,3.145,4.267
2026-06-01 15:35:42.880,2211682336,14880,2,0.99878,0.03418,0.06226,5.115,-1.939,0.405
2026-06-01 15:35:42.080,2211681536,15080,1,0.94458,0.10498,0.42139,-1.992,-9.618,-2.695
2026-06-01 15:35:42.080,2211681536,15080,2,1.04224,-0.01392,0.13843,-13.13,7.916,-0.832
2026-06-01 15:35:42.280,2211681736,15280,1,1.02344,0.10425,0.48511,-2.405,-1.802,0.954
2026-06-01 15:35:42.280,2211681736,15280,2,0.99609,0.02002,0.06787,-25.176,-23.733,-4.473
2026-06-01 15:35:42.480,2211681936,15480,1,0.95288,0.04858,0.39868,5.733,-12.198,-2.069
2026-06-01 15:35:42.480,2211681936,15480,2,1.00464,-0.05029,0.06665,-36.542,-24.947,-4.267
2026-06-01 15:35:42.680,2211682136,15680,1,1.05469,0.12769,0.29199,1.649,-16.534,1.664
2026-06-01 15:35:42.680,2211682136,15680,2,1.04858,-0.0127,-0.09644,-0.031,-12.137,6.298
2026-06-01 15:35:43.880,2211683336,15880,1,1.05371,0.05786,0.18311,8.122,-8.046,-2.084
2026-06-01 15:35:43.880,2211683336,15880,2,1.02881,-0.02881,-0.10474,9.176,-3.603,-1.076
2026-06-01 15:35:43.080,2211682536,16080,1,1.0918,0.12646,0.18823,12.137,1.221,-0.954
2026-06-01 15:35:43.080,2211682536,16080,2,1.04272,0.0105,-0.13354,-11.74,-1.466,-0.504
2026-06-01 15:35:43.280,2211682736,16280,1,1.05664,0.12817,0.16797,2.038,6.733,-3.794
2026-06-01 15:35:43.280,2211682736,16280,2,1.03809,0.0354,-0.06128,4.656,18.443,1.382
2026-06-01 15:35:43.480,2211682936,16480,1,1.0271,0.13843,0.27759,-15.832,11.832,0.573
2026-06-01 15:35:43.480,2211682936,16480,2,1.00781,-0.05127,-0.04175,-16.84,8.863,7.817
2026-06-01 15:35:43.680,2211683136,16680,1,1.04224,0.08667,0.29663,-2.206,13.031,4.84
2026-06-01 15:35:43.680,2211683136,16680,2,0.99927,-0.00366,0.04883,0.634,10.496,0.733
2026-06-01 15:35:44.880,2211684336,16880,1,1.0083,0.08252,0.32251,5.435,0.969,-5.214
2026-06-01 15:35:44.880,2211684336,16880,2,1.03394,0.0127,0.04395,-0.573,-1.267,-2.061
2026-06-01 15:35:44.080,2211683536,17080,1,1.02588,0.1106,0.32422,-0.122,1.687,-0.947
2026-06-01 15:35:44.080,2211683536,17080,2,1.01294,0.00684,0.05811,0.466,0.87,0.489
2026-06-01 15:35:44.280,2211683736,17280,1,1.03003,0.10327,0.32056,0.046,-0.687,-1.405
2026-06-01 15:35:44.280,2211683736,17280,2,1.02661,0.0022,0.04834,-8.313,-4.664,1.29
2026-06-01 15:35:44.480,2211683936,17480,1,1.03857,0.09521,0.30249,0.863,-0.695,-2.214
2026-06-01 15:35:44.480,2211683936,17480,2,1.03101,-0.01489,0.03809,-4.908,-2.947,-1.389
2026-06-01 15:35:44.680,2211684136,17680,1,1.02344,0.11743,0.31396,-1.046,2.275,-1.565
2026-06-01 15:35:44.680,2211684136,17680,2,1.02246,0.00586,0.03149,-1.099,1.412,0.885
2026-06-01 15:35:45.880,2211685336,17880,1,1.02075,0.11743,0.323,2.321,3.954,0.45
2026-06-01 15:35:45.880,2211685336,17880,2,1.03882,-0.02026,-0.01245,-7.832,0.099,-0.145
2026-06-01 15:35:45.080,2211684536,18080,1,1.0293,0.12085,0.31665,-2.176,0.069,-2.244
2026-06-01 15:35:45.080,2211684536,18080,2,1.03394,0.01245,0.03589,-0.84,0.107,0.832
2026-06-01 15:35:45.280,2211684736,18280,1,1.03247,0.08862,0.32983,1.42,2.473,0.229
2026-06-01 15:35:45.280,2211684736,18280,2,1.02026,0.0083,0.03198,5.565,0.84,-0.695
2026-06-01 15:35:45.533,2211684989,18533,1,1.03076,0.11572,0.31763,-1.763,1.13,-0.069
2026-06-01 15:35:45.533,2211684989,18533,2,1.03394,-0.0061,0.03687,1.015,1.511,0.573
2026-06-01 15:35:45.733,2211685189,18733,1,1.02515,0.14063,0.3623,-4.321,1.336,0.313
2026-06-01 15:35:45.733,2211685189,18733,2,1.00317,0.02271,0.04712,-2.611,-1.206,-0.733
2026-06-01 15:35:46.933,2211686389,18933,1,1.03906,0.08496,0.27222,6.267,-0.603,-0.611
2026-06-01 15:35:46.933,2211686389,18933,2,1.01123,0.02344,0.01294,1.382,-2.031,-3.13
2026-06-01 15:35:46.133,2211685589,19133,1,1.0061,0.10352,0.31567,-6.542,-3.924,-5.023
2026-06-01 15:35:46.133,2211685589,19133,2,1.03442,-0.02417,-0.0022,-16.756,-12.947,1.58
2026-06-01 15:35:46.333,2211685789,19333,1,1.0415,0.1123,0.26514,8.832,-4.405,-0.511
2026-06-01 15:35:46.333,2211685789,19333,2,1.03809,-0.0061,-0.03052,0.458,-5.641,-2.939
2026-06-01 15:35:46.533,2211685989,19533,1,1.04028,0.15601,0.23438,0.55,-4.687,-4.107
2026-06-01 15:35:46.533,2211685989,19533,2,1.04956,0.00903,-0.06177,-10.443,-6.634,1.855
2026-06-01 15:35:46.733,2211686189,19733,1,1.03882,0.12695,0.2334,-2.473,2.206,1.031
2026-06-01 15:35:46.733,2211686189,19733,2,1.04224,0.00342,-0.06226,-2.282,1.641,0.992
2026-06-01 15:35:47.933,2211687389,19933,1,1.04321,0.1189,0.26123,5.511,7.153,3.542
2026-06-01 15:35:47.933,2211687389,19933,2,1.03784,0.02466,-0.0271,-4.374,2.275,0.985
2026-06-01 15:35:47.133,2211686589,20133,1,1.03101,0.1062,0.29248,-0.893,3.092,-1.397
2026-06-01 15:35:47.133,2211686589,20133,2,1.02734,-0.0061,-0.00537,-5.878,-1.511,0.053
