datetime,epoch_ms,ts_millis,mpu_id,ax,ay,az,gx,gy,gz
2026-06-01 14:46:49.542,2208748998,534542,1,0.84766,0.22705,0.69238,2.855,-3.618,-4.26
2026-06-01 14:46:49.542,2208748998,534542,2,0.98169,0.04712,-0.39038,3.481,1.008,-2.611
2026-06-01 14:46:52.725,2208752181,537725,1,0.80981,0.26611,0.70825,5.962,2.634,0.74
2026-06-01 14:46:52.725,2208752181,537725,2,0.99341,0.09058,-0.39307,19.893,7.275,-0.038
2026-06-01 14:46:52.017,2208751473,538017,1,0.84277,0.20996,0.6687,35.099,8.664,7.855
2026-06-01 14:46:52.017,2208751473,538017,2,0.98071,0.04614,-0.32886,19.573,13.573,-17.87
2026-06-01 14:46:52.217,2208751673,538217,1,0.82666,0.25586,0.68311,40.023,10.71,26.756
2026-06-01 14:46:52.217,2208751673,538217,2,0.97339,0.11499,-0.32935,36.969,4.29,-18.298
2026-06-01 14:46:53.417,2208752873,538417,1,0.82739,0.29419,0.64185,37.221,8.985,29.115
2026-06-01 14:46:53.417,2208752873,538417,2,0.9751,0.13623,-0.37231,39.626,0.427,-13.191
2026-06-01 14:46:53.617,2208753073,538617,1,0.84497,0.30737,0.63818,26.641,8.603,19.672
2026-06-01 14:46:53.617,2208753073,538617,2,0.96802,0.1543,-0.35864,19.252,-2.374,-6.847
2026-06-01 14:46:53.928,2208753384,538928,1,0.8811,0.27319,0.62769,-0.435,-0.832,1.847
2026-06-01 14:46:53.928,2208753384,538928,2,0.95898,0.10498,-0.37476,-6.336,-0.053,-4.565
2026-06-01 14:46:54.340,2208753796,539340,1,0.89673,0.22827,0.62524,1.939,1.588,3.42
2026-06-01 14:46:54.340,2208753796,539340,2,0.96655,0.12305,-0.37061,9.672,1.802,-4.145
2026-06-01 14:46:54.540,2208753996,539540,1,0.88281,0.21655,0.69946,11.412,6.435,18.115
2026-06-01 14:46:54.540,2208753996,539540,2,0.98755,0.17383,-0.36377,37.183,5.168,-7.748
2026-06-01 14:46:54.740,2208754196,539740,1,0.8667,0.26514,0.65283,20.275,0.405,16.252
2026-06-01 14:46:54.740,2208754196,539740,2,0.9646,0.16528,-0.32739,18.29,2.947,3.13
2026-06-01 14:46:54.940,2208754396,539940,1,0.86108,0.27783,0.65405,8.84,9.366,3.71
2026-06-01 14:46:54.940,2208754396,539940,2,1.05078,0.20679,-0.37134,-1.557,6.336,2.137
2026-06-01 14:46:54.140,2208753596,540140,1,0.89526,0.19214,0.66748,-20.908,-0.496,-18.763
2026-06-01 14:46:54.140,2208753596,540140,2,0.96753,0.08057,-0.3645,34.908,25.298,-2.389
2026-06-01 14:46:55.340,2208754796,540340,1,0.82959,0.23926,0.66992,16.802,15.359,11.412
2026-06-01 14:46:55.340,2208754796,540340,2,0.97046,0.08374,-0.36816,24.45,1.344,-1.557
2026-06-01 14:46:55.540,2208754996,540540,1,0.81982,0.22363,0.677,7.863,-5.252,13.481
2026-06-01 14:46:55.540,2208754996,540540,2,0.99121,0.06006,-0.34692,22.725,-6.733,-5.389
2026-06-01 14:46:55.740,2208755196,540740,1,0.83228,0.25439,0.65161,34.58,8.977,28.176
2026-06-01 14:46:55.740,2208755196,540740,2,0.9895,0.15308,-0.38647,17.0,-3.137,-3.534
2026-06-01 14:46:55.940,2208755396,540940,1,0.854,0.24438,0.65039,-14.214,-10.084,-20.863
2026-06-01 14:46:55.940,2208755396,540940,2,0.9729,0.06689,-0.38135,-17.13,-2.481,4.053
2026-06-01 14:46:55.140,2208754596,541140,1,0.86353,0.24243,0.64258,-18.0,-4.221,-14.237
2026-06-01 14:46:55.140,2208754596,541140,2,0.97241,0.02344,-0.41602,-21.947,-3.382,14.076
2026-06-01 14:46:56.340,2208755796,541340,1,0.85596,0.20996,0.66919,-4.031,0.397,-3.779
2026-06-01 14:46:56.340,2208755796,541340,2,0.97314,0.01758,-0.40161,-8.481,-1.855,5.115
2026-06-01 14:46:56.540,2208755996,541540,1,0.86304,0.22144,0.65308,-1.084,0.809,-0.626
2026-06-01 14:46:56.540,2208755996,541540,2,0.98291,0.02197,-0.39746,4.656,1.71,-3.298
2026-06-01 14:46:56.740,2208756196,541740,1,0.85205,0.25415,0.6604,9.321,8.344,8.611
2026-06-01 14:46:56.740,2208756196,541740,2,0.97998,0.04346,-0.39136,5.969,2.511,-0.893
2026-06-01 14:46:56.940,2208756396,541940,1,0.84692,0.2644,0.64478,9.885,6.153,10.832
2026-06-01 14:46:56.940,2208756396,541940,2,0.98657,0.06006,-0.38354,7.992,0.115,3.153
2026-06-01 14:46:56.140,2208755596,542140,1,0.84229,0.2229,0.68311,-7.771,1.275,-4.473
2026-06-01 14:46:56.140,2208755596,542140,2,0.97827,0.03564,-0.39746,-0.763,2.55,2.313
2026-06-01 14:46:57.340,2208756796,542340,1,0.8374,0.20435,0.67603,-4.275,-1.702,-6.092
2026-06-01 14:46:57.340,2208756796,542340,2,0.97656,0.0166,-0.36987,2.763,0.802,-2.908
2026-06-01 14:46:57.540,2208756996,542540,1,0.85107,0.22412,0.66553,-5.725,-1.519,-3.947
2026-06-01 14:46:57.540,2208756996,542540,2,0.9834,0.02368,-0.3916,-5.771,-2.611,3.924
2026-06-01 14:46:57.740,2208757196,542740,1,0.82983,0.21362,0.67188,-3.489,2.137,-3.092
2026-06-01 14:46:57.740,2208757196,542740,2,0.98193,0.0166,-0.38086,-6.435,-1.176,0.763
2026-06-01 14:46:57.940,2208757396,542940,1,0.86133,0.2146,0.66309,-0.046,2.107,3.137
2026-06-01 14:46:57.940,2208757396,542940,2,0.97925,0.02905,-0.38965,1.611,-1.031,-0.87
2026-06-01 14:46:57.140,2208756596,543140,1,0.84912,0.21021,0.68262,3.214,4.649,3.504
2026-06-01 14:46:57.140,2208756596,543140,2,0.97339,0.03223,-0.39673,2.328,0.908,-1.198
2026-06-01 14:46:58.340,2208757796,543340,1,0.854,0.20044,0.67651,-0.84,1.985,-1.687
2026-06-01 14:46:58.340,2208757796,543340,2,0.97974,0.03174,-0.39355,-0.763,2.458,0.221
2026-06-01 14:46:58.540,2208757996,543540,1,0.85376,0.19824,0.66455,1.198,0.397,-2.855
2026-06-01 14:46:58.540,2208757996,543540,2,0.97095,0.02588,-0.39648,-6.481,-0.924,2.489
2026-06-01 14:46:58.740,2208758196,543740,1,0.85059,0.22974,0.66016,2.748,-0.649,3.481
2026-06-01 14:46:58.740,2208758196,543740,2,1.00049,0.05322,-0.39355,3.229,-0.511,1.74
2026-06-01 14:46:58.940,2208758396,543940,1,0.89624,0.24561,0.63696,-1.267,7.084,8.466
2026-06-01 14:46:58.940,2208758396,543940,2,0.98218,0.02197,-0.41357,-4.359,4.573,3.672
2026-06-01 14:46:58.140,2208757596,544140,1,0.85767,0.21265,0.67651,-0.206,7.969,6.26
2026-06-01 14:46:58.140,2208757596,544140,2,0.98755,0.03052,-0.36499,-1.435,0.229,-2.26
2026-06-01 14:46:59.515,2208758971,544515,1,0.84326,0.19922,0.69507,5.595,2.16,2.718
2026-06-01 14:46:59.515,2208758971,544515,2,0.99731,0.06812,-0.36816,4.725,0.824,1.061
2026-06-01 14:46:59.715,2208759171,544715,1,0.84839,0.1958,0.68164,-11.183,-2.351,-6.015
2026-06-01 14:46:59.715,2208759171,544715,2,0.98877,0.052,-0.36133,3.588,5.313,-5.374
2026-06-01 14:46:59.915,2208759371,544915,1,0.83179,0.20068,0.69336,4.359,3.328,-2.427
2026-06-01 14:46:59.915,2208759371,544915,2,0.97998,0.0376,-0.35718,8.916,-1.351,0.053
2026-06-01 14:46:59.115,2208758571,545115,1,0.86597,0.24951,0.72314,21.336,-0.42,15.107
2026-06-01 14:46:59.115,2208758571,545115,2,0.9021,0.04883,-0.35083,5.076,4.969,2.13
2026-06-01 14:47:00.315,2208759771,545315,1,0.89209,0.17847,0.64624,11.053,4.145,20.412
2026-06-01 14:47:00.315,2208759771,545315,2,1.00732,0.00732,-0.38867,-30.344,-4.16,26.221
2026-06-01 14:47:00.515,2208759971,545515,1,0.84668,0.11182,0.62524,-64.153,-8.847,-59.779
2026-06-01 14:47:00.515,2208759971,545515,2,0.9895,0.09521,-0.44092,5.557,-2.069,13.405
2026-06-01 14:47:00.715,2208760171,545715,1,0.86475,0.1897,0.68994,-14.359,-12.534,-13.725
2026-06-01 14:47:00.715,2208760171,545715,2,0.96362,-0.02637,-0.38647,-3.931,7.557,2.695
2026-06-01 14:47:00.915,2208760371,545915,1,0.83179,0.18115,0.69043,4.321,8.443,3.298
2026-06-01 14:47:00.915,2208760371,545915,2,0.97266,0.00537,-0.37866,0.718,3.84,-3.527
2026-06-01 14:47:00.115,2208759571,546115,1,0.8042,0.22754,0.70703,5.076,6.321,-0.473
2026-06-01 14:47:00.115,2208759571,546115,2,0.99512,0.02734,-0.36206,2.756,2.672,-7.71
2026-06-01 14:47:01.315,2208760771,546315,1,0.82129,0.24805,0.71655,4.389,4.565,-0.679
2026-06-01 14:47:01.315,2208760771,546315,2,0.98779,0.03979,-0.36304,2.115,1.382,0.168
2026-06-01 14:47:01.515,2208760971,546515,1,0.83032,0.23242,0.69067,2.015,2.313,3.634
2026-06-01 14:47:01.515,2208760971,546515,2,0.98633,0.03857,-0.37256,-4.45,-0.305,-0.466
2026-06-01 14:47:01.715,2208761171,546715,1,0.8269,0.25879,0.69971,3.0,-0.405,0.084
2026-06-01 14:47:01.715,2208761171,546715,2,0.98218,0.04028,-0.37451,-6.038,-1.969,1.16
2026-06-01 14:47:01.915,2208761371,546915,1,0.81836,0.23901,0.67944,3.435,-3.634,3.366
2026-06-01 14:47:01.915,2208761371,546915,2,0.98267,0.0459,-0.37842,-1.672,-2.595,0.229
2026-06-01 14:47:01.115,2208760571,547115,1,0.83862,0.24048,0.66797,0.229,0.71,-1.405
2026-06-01 14:47:01.115,2208760571,547115,2,0.97559,0.03076,-0.37085,1.748,-0.405,5.115
2026-06-01 14:47:02.315,2208761771,547315,1,0.83691,0.21729,0.67188,-2.939,-4.885,-2.557
2026-06-01 14:47:02.315,2208761771,547315,2,0.96851,0.01733,-0.38916,-8.122,-1.802,-3.053
2026-06-01 14:47:02.515,2208761971,547515,1,0.84839,0.2373,0.66406,-8.382,3.954,-1.985
2026-06-01 14:47:02.515,2208761971,547515,2,0.96997,0.03931,-0.39502,4.55,-0.382,2.794
2026-06-01 14:47:02.715,2208762171,547715,1,0.84546,0.23877,0.65161,2.45,2.672,1.443
2026-06-01 14:47:02.715,2208762171,547715,2,0.9812,0.01538,-0.40161,-6.397,-0.122,0.954
2026-06-01 14:47:02.915,2208762371,547915,1,0.84741,0.23535,0.67773,-0.756,5.55,-7.321
2026-06-01 14:47:02.915,2208762371,547915,2,0.98169,0.02319,-0.40308,-4.863,5.954,-3.328
2026-06-01 14:47:02.115,2208761571,548115,1,0.8479,0.2605,0.66431,-0.557,-0.611,-4.931
2026-06-01 14:47:02.115,2208761571,548115,2,0.98535,0.04346,-0.38354,2.29,-0.435,3.023
2026-06-01 14:47:03.315,2208762771,548315,1,0.8396,0.24927,0.66772,0.779,0.069,
2026-06-01 14:47:03.315,2208762771,548315,2,0.97632,0.04443,-0.38281,1.565,-0.504,-0.565
2026-06-01 14:47:03.515,2208762971,548515,1,0.82764,0.23877,0.67358,3.313,3.527,0.725
2026-06-01 14:47:03.515,2208762971,548515,2,0.99487,0.05469,-0.37622,-4.397,0.756,-0.214
2026-06-01 14:47:03.715,2208763171,548715,1,0.83887,0.28467,0.67163,2.321,2.924,-1.847
2026-06-01 14:47:03.715,2208763171,548715,2,0.98096,0.05298,-0.38599,0.511,-1.344,2.069
2026-06-01 14:47:03.915,2208763371,548915,1,0.84717,0.23022,0.67871,-4.29,-1.115,-0.893
2026-06-01 14:47:03.915,2208763371,548915,2,0.97705,0.05273,-0.39502,-2.466,2.183,-0.771
2026-06-01 14:47:03.115,2208762571,549115,1,0.84668,0.24561,0.6731,-2.313,4.595,-2.794
2026-06-01 14:47:03.115,2208762571,549115,2,0.96387,0.052,-0.35254,-0.656,0.916,0.71
2026-06-01 14:47:04.315,2208763771,549315,1,0.8269,0.30176,0.67847,-4.237,5.763,-3.267
2026-06-01 14:47:04.315,2208763771,549315,2,0.97632,0.06787,-0.35815,-10.366,-2.023,8.0
2026-06-01 14:47:04.515,2208763971,549515,1,0.81055,0.26563,0.69385,-7.672,2.855,-6.313
2026-06-01 14:47:04.515,2208763971,549515,2,0.98877,0.02075,-0.39648,-7.733,-2.305,2.321
2026-06-01 14:47:04.715,2208764171,549715,1,0.82227,0.24683,0.69507,-10.015,2.71,-9.786
2026-06-01 14:47:04.715,2208764171,549715,2,0.99121,0.02026,-0.37695,-8.672,1.618,3.092
2026-06-01 14:47:04.915,2208764371,549915,1,0.80371,0.25732,0.69995,-10.031,2.656,-10.618
2026-06-01 14:47:04.915,2208764371,549915,2,0.97827,0.02759,-0.36035,-4.71,-1.107,3.443
2026-06-01 14:47:04.115,2208763571,550115,1,0.80737,0.26245,0.70508,-1.74,1.55,-0.824
2026-06-01 14:47:04.115,2208763571,550115,2,0.98486,0.01807,-0.37964,-0.321,-0.237,0.206
2026-06-01 14:47:05.315,2208764771,550315,1,0.80396,0.28198,0.70654,2.382,2.878,2.122
2026-06-01 14:47:05.315,2208764771,550315,2,0.97803,0.01001,-0.3938,-6.931,-1.344,-1.069
2026-06-01 14:47:05.515,2208764971,550515,1,0.80347,0.27124,0.70386,-5.427,1.626,-8.221
2026-06-01 14:47:05.515,2208764971,550515,2,0.97754,0.01587,-0.36743,-14.534,4.374,-2.366
2026-06-01 14:47:05.715,2208765171,550715,1,0.78613,0.29858,0.71411,-8.695,0.328,-11.389
2026-06-01 14:47:05.715,2208765171,550715,2,0.98438,0.03296,-0.35889,-3.023,-1.573,1.237
2026-06-01 14:47:05.915,2208765371,550915,1,0.7854,0.32544,0.69873,6.107,5.183,5.855
2026-06-01 14:47:05.915,2208765371,550915,2,0.99097,0.04468,-0.35718,-1.962,-0.618,0.328
2026-06-01 14:47:05.115,2208764571,551115,1,0.78174,0.32104,0.70117,1.351,5.145,1.603
2026-06-01 14:47:05.115,2208764571,551115,2,0.98853,0.06616,-0.38281,0.733,-2.634,3.931
2026-06-01 14:47:06.315,2208765771,551315,1,0.79541,0.30884,0.69385,6.817,-1.115,3.237
2026-06-01 14:47:06.315,2208765771,551315,2,0.97412,0.04272,-0.36646,-3.168,0.168,0.282
2026-06-01 14:47:06.515,2208765971,551515,1,0.79102,0.27612,0.71997,-10.947,0.252,1.702
2026-06-01 14:47:06.515,2208765971,551515,2,0.9729,0.04492,-0.3894,-7.603,-0.504,2.947
2026-06-01 14:47:06.715,2208766171,551715,1,0.81812,0.28076,0.70386,24.779,0.382,18.435
2026-06-01 14:47:06.715,2208766171,551715,2,0.96997,0.01147,-0.36353,9.779,6.099,-1.557
2026-06-01 14:47:06.915,2208766371,551915,1,0.82886,0.28467,0.67529,-4.992,-2.145,8.405
2026-06-01 14:47:06.915,2208766371,551915,2,0.97876,0.02051,-0.41382,3.321,-2.863,6.809
2026-06-01 14:47:06.115,2208765571,552115,1,0.82495,0.24976,0.68823,-5.267,-1.702,-6.282
2026-06-01 14:47:06.115,2208765571,552115,2,0.9707,0.00098,-0.41406,-10.031,1.794,4.885
2026-06-01 14:47:07.315,2208766771,552315,1,0.83325,0.23486,0.66724,-5.053,-0.756,-7.336
2026-06-01 14:47:07.315,2208766771,552315,2,0.97559,-0.00928,-0.39429,-3.679,1.634,0.099
2026-06-01 14:47:07.515,2208766971,552515,1,0.84009,0.23291,0.66748,5.443,0.733,3.351
2026-06-01 14:47:07.515,2208766971,552515,2,0.98413,0.00244,-0.4021,3.26,0.038,-3.427
2026-06-01 14:47:07.715,2208767171,552715,1,0.84082,0.25806,0.66187,6.901,1.519,8.55
2026-06-01 14:47:07.715,2208767171,552715,2,0.97217,-0.00464,-0.40552,3.107,0.29,-0.275
2026-06-01 14:47:07.915,2208767371,552915,1,0.83545,0.22729,0.67578,-0.718,-0.038,-3.405
2026-06-01 14:47:07.915,2208767371,552915,2,0.9812,-0.03052,-0.39941,0.695,0.74,-2.084
2026-06-01 14:47:07.115,2208766571,553115,1,0.84668,0.25806,0.67017,-5.168,3.305,4.405
2026-06-01 14:47:07.115,2208766571,553115,2,0.97192,-0.00171,-0.41284,-5.519,4.603,2.351
2026-06-01 14:47:08.315,2208767771,553315,1,0.83545,0.24854,0.68433,-2.229,3.473,2.237
2026-06-01 14:47:08.315,2208767771,553315,2,0.98267,-0.00024,-0.37183,-2.336,10.443,1.863
2026-06-01 14:47:08.515,2208767971,553515,1,0.82983,0.18188,0.70703,-3.641,0.42,-7.092
2026-06-01 14:47:08.515,2208767971,553515,2,0.97559,-0.02515,-0.3855,2.351,8.099,-5.13
2026-06-01 14:47:08.715,2208768171,553715,1,0.83618,0.19116,0.69507,0.679,-4.137,-2.588
2026-06-01 14:47:08.715,2208768171,553715,2,0.98315,-0.021,-0.37329,-7.802,-0.176,-3.786
2026-06-01 14:47:08.915,2208768371,553915,1,0.8418,0.24658,0.67651,3.313,-1.038,-5.397
2026-06-01 14:47:08.915,2208768371,553915,2,0.98291,-0.0083,-0.38452,0.664,-2.954,-1.58
2026-06-01 14:47:08.115,2208767571,554115,1,0.83398,0.24976,0.66553,7.565,-1.145,5.664
2026-06-01 14:47:08.115,2208767571,554115,2,0.97852,0.00171,-0.37256,0.145,-2.832,-1.725
2026-06-01 14:47:09.315,2208768771,554315,1,0.83813,0.24902,0.66528,5.756,4.16,-0.55
2026-06-01 14:47:09.315,2208768771,554315,2,0.9729,0.00781,-0.39648,-6.344,1.13,-1.847
2026-06-01 14:47:09.515,2208768971,554515,1,0.83032,0.26392,0.67139,-1.595,2.443,-2.267
2026-06-01 14:47:09.515,2208768971,554515,2,0.97827,0.02686,-0.37549,-6.092,-1.45,-0.16
2026-06-01 14:47:09.715,2208769171,554715,1,0.83887,0.25342,0.67725,-0.611,1.634,-4.305
2026-06-01 14:47:09.715,2208769171,554715,2,0.98169,0.0376,-0.38745,2.779,2.87,-1.359
2026-06-01 14:47:09.915,2208769371,554915,1,0.8335,0.27441,0.67993,3.954,3.496,1.366
2026-06-01 14:47:09.915,2208769371,554915,2,0.98926,0.05469,-0.38452,3.008,4.122,-1.168
2026-06-01 14:47:09.115,2208768571,555115,1,0.83374,0.28589,0.66504,3.038,8.359,-0.672
2026-06-01 14:47:09.115,2208768571,555115,2,0.97021,0.052,-0.35059,-3.282,1.473,3.13
2026-06-01 14:47:10.315,2208769771,555315,1,0.78906,0.25,0.71191,-4.504,1.664,-7.901
2026-06-01 14:47:10.315,2208769771,555315,2,0.98633,0.05078,-0.36401,-8.305,0.168,8.214
2026-06-01 14:47:10.515,2208769971,555515,1,0.83618,0.28442,0.67212,-8.595,1.679,-3.405
2026-06-01 14:47:10.515,2208769971,555515,2,0.99365,0.05664,-0.37427,-6.42,-0.626,2.817
2026-06-01 14:47:10.715,2208770171,555715,1,0.80737,0.30249,0.68872,4.389,4.656,4.076
2026-06-01 14:47:10.715,2208770171,555715,2,0.98193,0.04907,-0.35181,7.214,-0.55,6.031
2026-06-01 14:47:10.915,2208770371,555915,1,0.81909,0.27588,0.69043,4.153,2.977,-2.863
2026-06-01 14:47:10.915,2208770371,555915,2,0.99512,0.00537,-0.40649,4.107,9.985,-0.115
2026-06-01 14:47:10.115,2208769571,556115,1,0.74268,0.23315,0.62598,-35.183,22.137,-13.71
2026-06-01 14:47:10.115,2208769571,556115,2,0.90771,0.05005,-0.30688,-13.26,-0.214,13.107
2026-06-01 14:47:11.315,2208770771,556315,1,0.80664,0.23657,0.71826,16.924,-9.053,6.519
2026-06-01 14:47:11.315,2208770771,556315,2,0.96875,-0.03296,-0.37573,12.748,15.336,-5.771
2026-06-01 14:47:11.515,2208770971,556515,1,0.86133,0.24634,0.66187,-6.748,-1.397,-1.275
2026-06-01 14:47:11.515,2208770971,556515,2,0.97607,-0.03857,-0.41138,-11.099,-5.977,2.748
2026-06-01 14:47:11.715,2208771171,556715,1,0.81421,0.26807,0.69556,0.198,1.198,3.656
2026-06-01 14:47:11.715,2208771171,556715,2,0.97681,0.00244,-0.40942,2.947,0.55,0.412
2026-06-01 14:47:11.915,2208771371,556915,1,0.8501,0.24902,0.67017,8.42,4.931,7.176
2026-06-01 14:47:11.915,2208771371,556915,2,0.98486,0.02515,-0.3894,2.557,-1.084,-3.618
2026-06-01 14:47:11.115,2208770571,557115,1,0.83789,0.25317,0.66797,3.29,7.0,4.099
2026-06-01 14:47:11.115,2208770571,557115,2,0.97363,0.01855,-0.3894,1.359,3.176,-1.656
2026-06-01 14:47:12.315,2208771771,557315,1,0.80371,0.2229,0.69116,-0.969,4.855,0.359
2026-06-01 14:47:12.315,2208771771,557315,2,0.98511,0.02222,-0.39966,-3.092,-1.198,1.42
2026-06-01 14:47:12.515,2208771971,557515,1,0.82788,0.24438,0.67334,2.71,1.718,-0.855
2026-06-01 14:47:12.515,2208771971,557515,2,0.97339,0.00146,-0.37891,-4.87,-0.511,-1.916
2026-06-01 14:47:12.715,2208772171,557715,1,0.82251,0.25977,0.68115,4.725,0.794,1.397
2026-06-01 14:47:12.715,2208772171,557715,2,0.98779,0.02148,-0.39526,-2.023,-2.023,-0.16
2026-06-01 14:47:12.915,2208772371,557915,1,0.84131,0.26685,0.66211,4.626,2.611,-3.031
2026-06-01 14:47:12.915,2208772371,557915,2,0.98071,0.01514,-0.39136,-5.038,1.13,-0.458
2026-06-01 14:47:12.115,2208771571,558115,1,0.83716,0.2793,0.67993,0.191,2.153,0.618
2026-06-01 14:47:12.115,2208771571,558115,2,0.98389,0.02686,-0.39746,-0.908,0.687,0.504
2026-06-01 14:47:13.315,2208772771,558315,1,0.83081,0.28711,0.6731,5.282,0.221,4.55
2026-06-01 14:47:13.315,2208772771,558315,2,0.97339,0.03003,-0.41187,-3.015,-0.092,0.153
2026-06-01 14:47:13.515,2208772971,558515,1,0.82202,0.2688,0.67578,7.076,-0.168,-1.542
2026-06-01 14:47:13.515,2208772971,558515,2,0.97681,0.04614,-0.3877,-5.832,-2.038,-0.092
2026-06-01 14:47:13.715,2208773171,558715,1,0.84521,0.27417,0.65601,-12.008,1.969,-13.275
2026-06-01 14:47:13.715,2208773171,558715,2,0.97485,0.06445,-0.37573,-1.672,-1.137,5.198
2026-06-01 14:47:13.915,2208773371,558915,1,0.84692,0.28296,0.64917,6.603,-3.893,0.435
2026-06-01 14:47:13.915,2208773371,558915,2,0.97095,0.06958,-0.35913,6.748,2.855,1.664
2026-06-01 14:47:13.115,2208772571,559115,1,0.83179,0.27466,0.65869,-3.511,1.45,0.374
2026-06-01 14:47:13.115,2208772571,559115,2,0.97144,0.01904,-0.41748,-8.427,1.435,2.244
2026-06-01 14:47:14.315,2208773771,559315,1,0.84863,0.25513,0.6665,-4.649,2.061,3.756
2026-06-01 14:47:14.315,2208773771,559315,2,0.9646,-0.00562,-0.41919,-3.672,2.511,-2.908
2026-06-01 14:47:14.515,2208773971,559515,1,0.8479,0.27881,0.64771,10.924,7.153,17.481
2026-06-01 14:47:14.515,2208773971,559515,2,0.97705,0.02319,-0.41016,2.252,0.55,1.565
2026-06-01 14:47:14.715,2208774171,559715,1,0.85571,0.26123,0.65991,1.206,11.244,11.198
2026-06-01 14:47:14.715,2208774171,559715,2,0.96973,0.02173,-0.38965,0.817,2.71,3.412
2026-06-01 14:47:14.915,2208774371,559915,1,0.84229,0.21045,0.67993,15.42,5.489,3.13
2026-06-01 14:47:14.915,2208774371,559915,2,0.9729,0.03467,-0.35083,11.527,6.756,-9.733
2026-06-01 14:47:14.115,2208773571,560115,1,0.81714,0.25439,0.68042,3.397,5.71,1.656
2026-06-01 14:47:14.115,2208773571,560115,2,0.98047,0.03149,-0.37061,-4.328,1.214,-3.756
2026-06-01 14:47:15.315,2208774771,560315,1,0.81543,0.25732,0.68115,11.55,3.977,7.885
2026-06-01 14:47:15.315,2208774771,560315,2,0.9834,0.05151,-0.36646,8.786,-2.183,-2.13
2026-06-01 14:47:15.515,2208774971,560515,1,0.85425,0.25537,0.66235,6.672,0.267,4.168
2026-06-01 14:47:15.515,2208774971,560515,2,0.97998,0.05542,-0.38159,2.672,-1.466,-0.511
2026-06-01 14:47:15.715,2208775171,560715,1,0.84131,0.23853,0.65332,3.87,1.74,3.473
2026-06-01 14:47:15.715,2208775171,560715,2,0.97681,0.04614,-0.36914,1.771,-0.939,0.313
2026-06-01 14:47:15.915,2208775371,560915,1,0.86206,0.22998,0.66602,-1.511,2.221,1.015
2026-06-01 14:47:15.915,2208775371,560915,2,0.97437,0.03491,-0.39258,3.84,1.008,-0.718
2026-06-01 14:47:15.115,2208774571,561115,1,0.8457,0.25708,0.66724,2.405,2.832,1.687
2026-06-01 14:47:15.115,2208774571,561115,2,0.98364,0.08423,-0.39233,0.481,0.443,2.382
2026-06-01 14:47:16.315,2208775771,561315,1,0.82373,0.35596,0.65186,-19.122,0.641,-11.137
2026-06-01 14:47:16.315,2208775771,561315,2,0.97974,0.18262,-0.39355,-64.13,8.779,18.779
2026-06-01 14:47:16.515,2208775971,561515,1,0.95142,0.35547,0.52246,-116.786,-10.55,-85.183
2026-06-01 14:47:16.515,2208775971,561515,2,0.9541,0.12915,-0.50586,-145.16,24.771,65.847
2026-06-01 14:47:16.715,2208776171,561715,1,0.95801,0.3147,0.55957,-171.733,-21.046,-136.603
2026-06-01 14:47:16.715,2208776171,561715,2,0.92896,-0.02173,-0.49731,-188.878,1.443,81.267
2026-06-01 14:47:16.915,2208776371,561915,1,0.88208,0.05664,0.70728,-127.832,-47.771,-115.863
2026-06-01 14:47:16.915,2208776371,561915,2,1.11377,-0.39575,-0.46948,-159.366,0.229,39.672
2026-06-01 14:47:16.115,2208775571,562115,1,0.80688,-0.04199,0.71289,-67.344,11.71,-52.321
2026-06-01 14:47:16.115,2208775571,562115,2,0.94409,-0.18286,-0.39819,-50.634,38.198,-1.0
2026-06-01 14:47:17.315,2208776771,562315,1,0.77881,-0.0061,0.78491,-42.237,-14.977,-54.061
2026-06-01 14:47:17.315,2208776771,562315,2,0.87695,-0.17627,-0.44092,-27.427,-3.214,-3.901
2026-06-01 14:47:17.515,2208776971,562515,1,0.89893,0.09277,0.698,16.153,-15.733,0.611
2026-06-01 14:47:17.515,2208776971,562515,2,0.93213,-0.15991,-0.41797,45.626,21.321,-13.794
2026-06-01 14:47:17.715,2208777171,562715,1,0.82397,0.1106,0.729,8.374,-6.206,18.847
2026-06-01 14:47:17.715,2208777171,562715,2,1.02539,-0.08496,-0.39795,43.885,33.321,-19.588
2026-06-01 14:47:17.915,2208777371,562915,1,0.75708,0.1958,0.77173,19.656,3.603,16.977
2026-06-01 14:47:17.915,2208777371,562915,2,1.00659,-0.02124,-0.30762,25.748,-16.366,-3.534
2026-06-01 14:47:17.115,2208776571,563115,1,0.7959,0.2124,0.74268,4.718,-6.725,-4.13
2026-06-01 14:47:17.115,2208776571,563115,2,1.02686,-0.04053,-0.32202,-12.489,-7.344,2.328
2026-06-01 14:47:18.315,2208777771,563315,1,0.81323,0.20996,0.74341,-10.458,-6.313,-15.71
2026-06-01 14:47:18.315,2208777771,563315,2,0.9917,-0.09253,-0.34644,-15.771,-4.244,4.412
2026-06-01 14:47:18.515,2208777971,563515,1,0.77295,0.23901,0.72656,-3.542,3.305,-3.107
2026-06-01 14:47:18.515,2208777971,563515,2,0.97046,-0.11084,-0.37329,-11.817,-8.542,5.962
2026-06-01 14:47:18.715,2208778171,563715,1,0.82788,0.20605,0.72144,17.489,3.878,14.389
2026-06-01 14:47:18.715,2208778171,563715,2,0.97485,-0.11133,-0.37183,18.046,-7.328,-3.565
2026-06-01 14:47:18.915,2208778371,563915,1,0.84863,0.2207,0.68872,25.176,8.115,19.099
2026-06-01 14:47:18.915,2208778371,563915,2,0.96729,-0.09448,-0.40137,27.168,-4.206,-10.282
2026-06-01 14:47:18.115,2208777571,564115,1,0.78931,0.18628,0.74146,6.16,2.87,11.374
2026-06-01 14:47:18.115,2208777571,564115,2,0.9729,-0.06982,-0.4458,-0.885,-3.321,-4.458
2026-06-01 14:47:19.315,2208778771,564315,1,0.90088,0.14868,0.67529,27.87,7.786,12.122
2026-06-01 14:47:19.315,2208778771,564315,2,0.96094,-0.12256,-0.42749,20.275,5.855,-11.382
2026-06-01 14:47:19.515,2208778971,564515,1,0.84204,0.18506,0.68433,39.84,11.046,29.763
2026-06-01 14:47:19.515,2208778971,564515,2,0.9917,-0.04688,-0.41016,37.702,3.649,-18.443
2026-06-01 14:47:19.715,2208779171,564715,1,0.81812,0.26245,0.6875,23.328,7.779,13.374
2026-06-01 14:47:19.715,2208779171,564715,2,0.97607,-0.02588,-0.36011,15.015,0.168,-4.71
2026-06-01 14:47:19.915,2208779371,564915,1,0.80859,0.23193,0.69751,2.511,0.618,1.183
2026-06-01 14:47:19.915,2208779371,564915,2,0.98071,-0.03198,-0.38086,-3.534,-2.107,-2.473
2026-06-01 14:47:19.115,2208778571,565115,1,0.83691,0.22681,0.68237,-2.557,-2.336,-4.145
2026-06-01 14:47:19.115,2208778571,565115,2,0.98364,-0.04858,-0.37598,-2.908,-3.366,-0.153
2026-06-01 14:47:20.315,2208779771,565315,1,0.84644,0.21875,0.69019,-1.496,-3.443,-1.061
2026-06-01 14:47:20.315,2208779771,565315,2,0.9895,-0.03711,-0.37427,-9.405,1.634,0.534
2026-06-01 14:47:20.515,2208779971,565515,1,0.81812,0.21875,0.6792,-0.695,-1.031,2.015
2026-06-01 14:47:20.515,2208779971,565515,2,0.9729,-0.01099,-0.39111,-19.015,-5.893,2.198
2026-06-01 14:47:20.715,2208780171,565715,1,0.84888,0.22632,0.65625,-1.527,-3.473,-2.359
2026-06-01 14:47:20.715,2208780171,565715,2,0.98169,-0.01611,-0.41357,1.641,-0.802,1.466
2026-06-01 14:47:20.915,2208780371,565915,1,0.85132,0.28906,0.60425,-12.595,6.107,-0.634
2026-06-01 14:47:20.915,2208780371,565915,2,1.00317,0.05762,-0.39404,-22.901,12.611,9.481
2026-06-01 14:47:20.115,2208779571,566115,1,0.85645,0.15039,0.66528,-69.55,-3.511,-56.962
2026-06-01 14:47:20.115,2208779571,566115,2,1.01709,-0.07837,-0.38379,-51.626,9.344,11.748
2026-06-01 14:47:21.315,2208780771,566315,1,0.69409,0.15332,0.81079,-19.382,17.656,-13.641
2026-06-01 14:47:21.315,2208780771,566315,2,0.94995,-0.073,-0.27686,-15.298,-8.595,15.718
2026-06-01 14:47:21.515,2208780971,566515,1,0.71289,0.19385,0.79736,-7.588,1.267,-5.168
2026-06-01 14:47:21.515,2208780971,566515,2,1.03149,-0.07837,-0.28223,-17.916,-9.45,8.076
2026-06-01 14:47:21.715,2208781171,566715,1,0.77783,0.16138,0.76343,-5.16,-6.122,-5.198
2026-06-01 14:47:21.715,2208781171,566715,2,0.97607,-0.11963,-0.34253,-3.191,5.206,-10.519
2026-06-01 14:47:21.915,2208781371,566915,1,0.87915,0.19458,0.78418,23.29,7.076,21.282
2026-06-01 14:47:21.915,2208781371,566915,2,0.97437,-0.03223,-0.19214,33.74,13.107,-9.87
2026-06-01 14:47:21.115,2208780571,567115,1,0.78003,0.19653,0.7771,7.137,-2.359,5.595
2026-06-01 14:47:21.115,2208780571,567115,2,0.97339,0.0166,-0.28052,18.611,1.42,-9.374
2026-06-01 14:47:22.315,2208781771,567315,1,0.77954,0.26953,0.7356,5.748,-6.26,-3.298
2026-06-01 14:47:22.315,2208781771,567315,2,0.99121,-0.0022,-0.31421,-17.977,-15.45,4.397
2026-06-01 14:47:22.515,2208781971,567515,1,0.83521,0.22852,0.71436,-3.771,-2.282,-10.542
2026-06-01 14:47:22.515,2208781971,567515,2,0.99683,-0.00903,-0.35547,-12.794,-16.328,5.878
2026-06-01 14:47:22.715,2208782171,567715,1,0.78198,0.2019,0.73584,7.374,11.023,5.427
2026-06-01 14:47:22.715,2208782171,567715,2,1.02563,-0.00806,-0.26636,53.947,20.321,-29.748
2026-06-01 14:47:22.915,2208782371,567915,1,0.88574,0.396,0.729,76.794,94.939,65.221
2026-06-01 14:47:22.915,2208782371,567915,2,1.00879,0.13867,-0.26147,119.405,32.511,-22.504
2026-06-01 14:47:22.115,2208781571,568115,1,0.67456,0.32178,0.77515,57.176,29.847,72.519
2026-06-01 14:47:22.115,2208781571,568115,2,1.03613,0.18311,-0.20605,49.992,-4.359,5.298
2026-06-01 14:47:23.315,2208782771,568315,1,0.69946,0.25537,0.80688,-21.901,18.786,-8.802
2026-06-01 14:47:23.315,2208782771,568315,2,0.99487,0.0896,-0.20752,10.618,14.802,-7.405
2026-06-01 14:47:23.515,2208782971,568515,1,0.65625,0.33569,0.79395,-12.336,30.397,-3.55
2026-06-01 14:47:23.515,2208782971,568515,2,0.95532,0.2063,-0.13574,30.405,24.901,8.656
2026-06-01 14:47:23.715,2208783171,568715,1,0.47827,0.09717,0.73804,-69.962,74.695,-49.183
2026-06-01 14:47:23.715,2208783171,568715,2,0.61938,-0.17065,0.1626,-79.069,98.099,17.336
2026-06-01 14:47:23.915,2208783371,568915,1,0.18188,-0.12744,0.70386,-15.061,60.725,25.076
2026-06-01 14:47:23.915,2208783371,568915,2,0.63647,-0.17798,0.21582,-25.885,-2.817,0.84
2026-06-01 14:47:23.115,2208782571,569115,1,0.11279,-0.00415,1.35474,11.779,-27.733,-14.84
2026-06-01 14:47:23.115,2208782571,569115,2,1.09961,-0.10205,0.32837,-17.198,-61.122,-3.26
2026-06-01 14:47:24.315,2208783771,569315,1,0.9314,0.24927,1.44409,32.321,-48.992,3.115
2026-06-01 14:47:24.315,2208783771,569315,2,1.48535,-0.01245,0.08447,41.634,6.206,-0.733
2026-06-01 14:47:24.515,2208783971,569515,1,0.43042,0.11719,0.92407,0.748,5.458,-7.053
2026-06-01 14:47:24.515,2208783971,569515,2,0.90234,0.01855,0.01221,0.267,-7.573,1.176
2026-06-01 14:47:24.715,2208784171,569715,1,0.55786,0.17798,0.97925,-18.649,-19.328,-29.725
2026-06-01 14:47:24.715,2208784171,569715,2,1.07275,-0.07813,0.01465,-20.206,-1.069,6.214
2026-06-01 14:47:24.915,2208784371,569915,1,0.53711,0.23364,0.98291,6.542,9.718,8.763
2026-06-01 14:47:24.915,2208784371,569915,2,1.03662,-0.06348,-0.02197,-1.481,-2.198,5.053
2026-06-01 14:47:24.115,2208783571,570115,1,0.49536,0.18115,0.95093,4.496,11.802,6.779
2026-06-01 14:47:24.115,2208783571,570115,2,1.05493,-0.06836,0.04956,-5.947,11.588,-7.969
2026-06-01 14:47:25.315,2208784771,570315,1,0.54028,0.24097,1.06396,-15.748,5.687,7.855
2026-06-01 14:47:25.315,2208784771,570315,2,1.14941,-0.10571,0.05225,6.244,6.916,4.214
2026-06-01 14:47:25.515,2208784971,570515,1,0.64307,0.20313,1.14282,-7.641,26.305,22.16
2026-06-01 14:47:25.515,2208784971,570515,2,1.26465,-0.05811,0.09058,14.496,31.206,16.084
2026-06-01 14:47:25.715,2208785171,570715,1,0.43652,0.04077,1.18848,11.046,50.16,8.481
2026-06-01 14:47:25.715,2208785171,570715,2,1.08374,-0.07813,0.24561,-4.977,29.405,-7.718
2026-06-01 14:47:25.915,2208785371,570915,1,0.25122,0.07959,1.20996,3.557,24.718,-3.618
2026-06-01 14:47:25.915,2208785371,570915,2,0.96509,-0.08325,0.33667,-3.344,16.183,-7.756
2026-06-01 14:47:25.115,2208784571,571115,1,0.15723,0.01196,0.99854,10.977,-26.878,2.023
2026-06-01 14:47:25.115,2208784571,571115,2,0.6897,-0.02661,0.11719,0.313,-35.466,3.908
2026-06-01 14:47:26.315,2208785771,571315,1,0.22217,0.10474,0.771,21.305,-65.481,5.802
2026-06-01 14:47:26.315,2208785771,571315,2,0.94922,0.03174,0.0415,-34.557,-86.603,-4.481
2026-06-01 14:47:26.515,2208785971,571515,1,0.66626,0.21118,0.82959,2.122,-58.504,-21.412
2026-06-01 14:47:26.515,2208785971,571515,2,1.15283,-0.0144,-0.10913,-19.435,-29.817,-2.794
2026-06-01 14:47:26.715,2208786171,571715,1,0.72192,0.2478,0.823,-6.908,0.481,-7.107
2026-06-01 14:47:26.715,2208786171,571715,2,1.03735,-0.01465,-0.20093,-16.725,-0.336,-0.695
2026-06-01 14:47:26.915,2208786371,571915,1,0.66113,0.26123,0.88013,-7.298,3.389,-11.611
2026-06-01 14:47:26.915,2208786371,571915,2,1.05957,-0.05347,-0.09863,-6.053,5.267,6.573
2026-06-01 14:47:26.115,2208785571,572115,1,0.55347,0.16602,0.84595,-8.962,41.893,13.74
2026-06-01 14:47:26.115,2208785571,572115,2,0.98633,-0.05322,-0.03052,26.061,34.183,12.687
2026-06-01 14:47:27.315,2208786771,572315,1,0.2937,0.03247,0.72925,-14.519,73.992,-4.794
2026-06-01 14:47:27.315,2208786771,572315,2,0.70801,-0.07495,0.04346,32.076,49.031,5.382
2026-06-01 14:47:27.515,2208786971,572515,1,0.16577,0.08716,0.89429,-0.237,34.802,4.84
2026-06-01 14:47:27.515,2208786971,572515,2,0.8125,-0.07129,0.23853,-9.534,20.435,-3.359
2026-06-01 14:47:27.715,2208787171,572715,1,0.33276,0.08569,1.26831,1.298,-20.153,-0.237
2026-06-01 14:47:27.715,2208787171,572715,2,1.18579,-0.10767,0.25635,10.092,-8.397,3.008
2026-06-01 14:47:27.915,2208787371,572915,1,0.40869,0.34497,1.16895,-7.893,-3.092,0.229
2026-06-01 14:47:27.915,2208787371,572915,2,1.14771,-0.09399,0.323,-11.13,6.969,7.71
2026-06-01 14:47:27.115,2208786571,573115,1,0.43018,0.11011,1.12451,-2.229,6.473,-3.664
2026-06-01 14:47:27.115,2208786571,573115,2,1.1499,-0.13794,0.24902,-5.076,3.038,7.45
2026-06-01 14:47:28.315,2208787771,573315,1,0.22534,0.02051,1.17163,-9.481,26.397,21.397
2026-06-01 14:47:28.315,2208787771,573315,2,0.98022,0.02002,0.34668,0.389,25.763,9.137
2026-06-01 14:47:28.515,2208787971,573515,1,0.0708,0.02881,1.08008,12.046,15.13,18.366
2026-06-01 14:47:28.515,2208787971,573515,2,0.8313,-0.05664,0.38281,7.718,0.931,-3.023
2026-06-01 14:47:28.715,2208788171,573715,1,0.13501,0.10181,1.11475,5.084,6.076,6.229
2026-06-01 14:47:28.715,2208788171,573715,2,0.90527,-0.00464,0.39966,-0.771,-3.786,-0.214
2026-06-01 14:47:28.915,2208788371,573915,1,0.18384,0.05957,1.09473,8.84,-11.405,-1.191
2026-06-01 14:47:28.915,2208788371,573915,2,0.94482,-0.01343,0.28125,-11.595,-19.473,-2.359
2026-06-01 14:47:28.115,2208787571,574115,1,0.26074,0.15503,1.06372,6.847,-9.252,-12.427
2026-06-01 14:47:28.115,2208787571,574115,2,1.03467,-0.02393,0.21826,-11.489,-13.504,-3.534
2026-06-01 14:47:29.315,2208788771,574315,1,0.36011,0.09741,1.04077,8.878,-9.008,-6.015
2026-06-01 14:47:29.315,2208788771,574315,2,0.9939,-0.02979,0.1521,-18.0,-14.511,2.427
2026-06-01 14:47:29.515,2208788971,574515,1,0.36401,0.15674,1.09644,17.519,-22.221,5.221
2026-06-01 14:47:29.515,2208788971,574515,2,1.03857,-0.01294,0.08716,-18.13,-41.16,7.153
2026-06-01 14:47:29.715,2208789171,574715,1,0.48486,0.25464,0.95068,6.099,-33.0,11.542
2026-06-01 14:47:29.715,2208789171,574715,2,0.99854,-0.03052,-0.03638,-11.71,-29.664,9.771
2026-06-01 14:47:29.915,2208789371,574915,1,0.69336,0.15625,0.87646,-9.275,-27.0,-18.504
2026-06-01 14:47:29.915,2208789371,574915,2,1.06421,-0.06299,-0.13672,-4.878,5.901,-8.84
2026-06-01 14:47:29.115,2208788571,575115,1,0.58081,0.22852,0.85986,-5.611,3.084,-17.107
2026-06-01 14:47:29.115,2208788571,575115,2,0.97754,-0.02124,-0.05273,-0.557,7.0,5.603
2026-06-01 14:47:30.315,2208789771,575315,1,0.64453,0.18042,0.90723,-11.076,3.282,-4.092
2026-06-01 14:47:30.315,2208789771,575315,2,0.98584,-0.07397,-0.09448,-9.435,-1.145,3.45
2026-06-01 14:47:30.515,2208789971,575515,1,0.64941,0.16675,0.90332,-1.122,-4.198,-0.191
2026-06-01 14:47:30.515,2208789971,575515,2,1.04175,-0.09717,-0.13379,-6.908,-8.282,4.382
2026-06-01 14:47:30.715,2208790171,575715,1,0.63672,0.15771,0.92432,12.351,4.939,8.336
2026-06-01 14:47:30.715,2208790171,575715,2,1.00293,-0.03857,-0.12915,12.786,-1.832,-11.366
2026-06-01 14:47:30.916,2208790372,575916,1,0.65308,0.23438,0.92188,28.832,1.015,12.122
2026-06-01 14:47:30.916,2208790372,575916,2,0.99219,-0.05542,-0.14795,4.504,-4.023,-12.794
2026-06-01 14:47:30.116,2208789572,576116,1,0.79883,0.27808,0.78296,33.397,24.092,19.763
2026-06-01 14:47:30.116,2208789572,576116,2,1.02026,-0.01807,-0.2041,11.763,5.832,-5.847
2026-06-01 14:47:31.316,2208790772,576316,1,0.71191,0.28052,0.83081,8.229,8.336,-16.336
2026-06-01 14:47:31.316,2208790772,576316,2,1.05688,-0.00195,-0.14429,24.366,13.298,-6.947
2026-06-01 14:47:31.516,2208790972,576516,1,0.51685,0.34717,0.92896,-0.023,19.0,2.053
2026-06-01 14:47:31.516,2208790972,576516,2,1.00708,0.07813,-0.03711,3.038,13.496,-5.389
2026-06-01 14:47:31.716,2208791172,576716,1,0.33276,0.30957,0.9873,50.336,72.038,70.649
2026-06-01 14:47:31.716,2208791172,576716,2,0.89209,0.36353,0.24072,-85.015,-223.0,41.351
2026-06-01 14:47:31.916,2208791372,576916,1,0.55811,0.40552,0.89868,16.74,-34.267,8.13
2026-06-01 14:47:31.916,2208791372,576916,2,1.01514,0.14429,-0.19067,-121.565,-104.679,36.046
2026-06-01 14:47:31.116,2208790572,577116,1,0.80273,0.33179,0.76123,42.115,-56.649,74.855
2026-06-01 14:47:31.116,2208790572,577116,2,1.16724,0.16626,-0.34619,-16.397,-18.71,14.153
2026-06-01 14:47:32.316,2208791772,577316,1,0.65161,0.34253,0.88599,59.427,31.382,59.061
2026-06-01 14:47:32.316,2208791772,577316,2,1.11523,0.17432,-0.18774,-65.565,-63.924,-50.275
2026-06-01 14:47:32.516,2208791972,577516,1,0.69751,0.34888,0.73535,-26.863,36.267,6.931
2026-06-01 14:47:32.516,2208791972,577516,2,1.01733,0.1001,-0.11572,15.542,49.641,17.221
2026-06-01 14:47:32.716,2208792172,577716,1,0.5791,0.20166,0.98706,-40.046,34.679,-13.344
2026-06-01 14:47:32.716,2208792172,577716,2,0.9834,-0.01904,-0.01758,-39.42,43.855,12.351
2026-06-01 14:47:32.916,2208792372,577916,1,0.41797,0.03247,1.01563,-9.641,3.687,-13.763
2026-06-01 14:47:32.916,2208792372,577916,2,0.92749,-0.08911,0.09888,-22.885,-7.924,-7.885
2026-06-01 14:47:32.116,2208791572,578116,1,0.53687,0.04761,0.9502,-4.16,4.832,0.412
2026-06-01 14:47:32.116,2208791572,578116,2,0.9812,-0.11938,0.08496,7.183,2.099,4.382
2026-06-01 14:47:33.316,2208792772,578316,1,0.52441,0.06274,1.01855,-0.344,6.13,9.603
2026-06-01 14:47:33.316,2208792772,578316,2,1.0022,-0.06958,0.04272,-10.55,-3.588,5.168
2026-06-01 14:47:33.516,2208792972,578516,1,0.55151,0.09277,0.95313,11.412,-5.58,6.702
2026-06-01 14:47:33.516,2208792972,578516,2,1.21411,-0.08789,0.08374,-3.527,-27.58,-2.603
2026-06-01 14:47:33.716,2208793172,578716,1,0.646,0.0896,1.28638,5.168,39.908,2.466
2026-06-01 14:47:33.716,2208793172,578716,2,1.05298,0.01807,0.06445,-5.076,25.916,-12.015
2026-06-01 14:47:33.916,2208793372,578916,1,0.40527,0.09106,1.0542,1.809,-25.489,-14.298
2026-06-01 14:47:33.916,2208793372,578916,2,1.0022,-0.0022,0.01172,-9.191,-28.481,-7.656
2026-06-01 14:47:33.116,2208792572,579116,1,0.64673,0.23608,0.90356,7.405,-41.87,-6.252
2026-06-01 14:47:33.116,2208792572,579116,2,1.02319,0.03149,-0.11865,-30.206,-33.786,-0.58
2026-06-01 14:47:34.316,2208793772,579316,1,0.35718,0.04565,0.56494,-10.45,5.466,-13.817
2026-06-01 14:47:34.316,2208793772,579316,2,0.55005,-0.12988,-0.10425,-22.802,-15.198,-4.794
2026-06-01 14:47:34.516,2208793972,579516,1,0.71484,0.13306,0.92041,22.153,-17.74,14.267
2026-06-01 14:47:34.516,2208793972,579516,2,1.02734,0.1377,-0.04395,47.389,7.519,-0.763
2026-06-01 14:47:34.716,2208794172,579716,1,0.53247,0.26025,0.82324,-17.969,49.397,-8.649
2026-06-01 14:47:34.716,2208794172,579716,2,1.01343,0.01904,-0.21899,-171.885,-95.198,-20.565
2026-06-01 14:47:34.916,2208794372,579916,1,0.74609,0.2019,0.72046,11.527,-0.214,8.137
2026-06-01 14:47:34.916,2208794372,579916,2,1.02295,-0.04883,-0.3689,29.282,10.611,-1.267
2026-06-01 14:47:34.116,2208793572,580116,1,0.7605,0.22852,0.7771,10.153,3.542,3.893
2026-06-01 14:47:34.116,2208793572,580116,2,0.99292,0.02393,-0.26538,6.336,-3.595,-4.107
2026-06-01 14:47:35.316,2208794772,580316,1,0.74536,0.2688,0.7876,2.71,4.557,1.489
2026-06-01 14:47:35.316,2208794772,580316,2,1.01196,0.01733,-0.28857,-4.626,0.725,1.13
2026-06-01 14:47:35.516,2208794972,580516,1,0.74878,0.26953,0.79639,0.832,7.244,1.794
2026-06-01 14:47:35.516,2208794972,580516,2,1.03125,0.04858,-0.27002,10.611,1.061,-2.733
2026-06-01 14:47:35.716,2208795172,580716,1,0.72827,0.26563,0.78491,2.687,12.718,5.985
2026-06-01 14:47:35.716,2208795172,580716,2,1.01172,0.01367,-0.2522,31.992,31.664,-0.046
2026-06-01 14:47:35.916,2208795372,580916,1,0.71191,0.27686,0.78223,12.939,5.351,13.893
2026-06-01 14:47:35.916,2208795372,580916,2,0.99829,0.03833,-0.20215,2.794,5.298,3.389
2026-06-01 14:47:35.116,2208794572,581116,1,0.73022,0.22119,0.78076,0.847,7.565,-4.962
2026-06-01 14:47:35.116,2208794572,581116,2,1.04688,-0.01001,-0.23291,-19.802,0.015,-5.076
2026-06-01 14:47:36.316,2208795772,581316,1,0.74097,0.20361,0.82178,1.855,-1.893,1.542
2026-06-01 14:47:36.316,2208795772,581316,2,1.01074,0.01758,-0.22241,-4.0,-4.046,-4.649
2026-06-01 14:47:36.516,2208795972,581516,1,0.70215,0.24976,0.83032,9.832,1.107,13.847
2026-06-01 14:47:36.516,2208795972,581516,2,1.03955,0.07422,-0.18506,12.405,4.534,-4.504
2026-06-01 14:47:36.716,2208796172,581716,1,0.68726,0.21655,0.79053,3.038,2.015,3.305
2026-06-01 14:47:36.716,2208796172,581716,2,1.04736,0.01807,-0.19214,-0.458,-15.969,-9.229
2026-06-01 14:47:36.916,2208796372,581916,1,0.70947,0.26294,0.80981,3.718,3.038,-1.992
2026-06-01 14:47:36.916,2208796372,581916,2,1.02344,0.10571,-0.23315,-6.061,1.244,-7.313
2026-06-01 14:47:36.116,2208795572,582116,1,0.74536,0.33276,0.76758,-2.947,-6.779,-2.405
2026-06-01 14:47:36.116,2208795572,582116,2,0.99927,0.04761,-0.18921,1.702,-3.885,18.305
2026-06-01 14:47:37.316,2208796772,582316,1,0.63867,0.35376,0.91113,-18.153,22.832,18.221
2026-06-01 14:47:37.316,2208796772,582316,2,0.93701,0.19385,-0.08398,-11.679,26.84,14.137
2026-06-01 14:47:37.516,2208796972,582516,1,0.68628,-0.06299,0.83911,-95.931,-11.466,-90.618
2026-06-01 14:47:37.516,2208796972,582516,2,1.2334,-0.38403,-0.31348,-105.092,-11.847,10.992
2026-06-01 14:47:37.716,2208797172,582716,1,0.82837,0.05957,0.68994,12.74,35.069,17.74
2026-06-01 14:47:37.716,2208797172,582716,2,0.94312,-0.17871,-0.28198,53.198,36.588,14.29
2026-06-01 14:47:37.916,2208797372,582916,1,0.72681,0.05859,0.86597,12.328,7.573,15.366
2026-06-01 14:47:37.916,2208797372,582916,2,1.05151,-0.13525,-0.13208,15.42,-5.29,-12.359
2026-06-01 14:47:37.116,2208796572,583116,1,0.76318,0.01294,0.72876,18.061,34.58,24.878
2026-06-01 14:47:37.116,2208796572,583116,2,0.94727,-0.14404,-0.08887,60.71,53.824,-7.771
2026-06-01 14:47:38.316,2208797772,583316,1,0.25684,0.2019,0.63525,15.282,133.115,56.71
2026-06-01 14:47:38.316,2208797772,583316,2,0.62915,0.17114,-0.06396,27.718,90.954,-5.58
2026-06-01 14:47:38.516,2208797972,583516,1,-0.1084,0.03857,1.11499,-36.901,25.282,-68.916
2026-06-01 14:47:38.516,2208797972,583516,2,0.82275,-0.06689,0.5918,-18.115,53.534,0.725
2026-06-01 14:47:38.716,2208798172,583716,1,-0.1582,-0.03516,1.38794,2.069,7.794,-9.466
2026-06-01 14:47:38.716,2208798172,583716,2,0.95361,0.06177,0.73706,-18.13,-23.618,-7.985
2026-06-01 14:47:38.916,2208798372,583916,1,0.02612,-0.09302,1.39673,9.718,-27.046,-17.725
2026-06-01 14:47:38.916,2208798372,583916,2,0.99829,-0.06592,0.64014,-12.695,-25.237,-0.832
2026-06-01 14:47:38.116,2208797572,584116,1,0.29419,0.03711,1.0498,17.618,-15.374,8.947
2026-06-01 14:47:38.116,2208797572,584116,2,1.0979,-0.02246,0.302,-6.649,-25.71,-0.557
2026-06-01 14:47:39.316,2208798772,584316,1,0.19678,0.02783,1.12964,-10.031,56.374,8.885
2026-06-01 14:47:39.316,2208798772,584316,2,0.92773,0.02759,0.45435,-9.679,47.389,0.473
2026-06-01 14:47:39.516,2208798972,584516,1,0.0813,-0.02954,1.04663,-12.748,42.008,6.87
2026-06-01 14:47:39.516,2208798972,584516,2,0.80933,-0.03174,0.45093,-2.206,34.046,5.511
2026-06-01 14:47:39.716,2208799172,584716,1,-0.1377,-0.13892,1.12427,-4.282,20.893,-1.313
2026-06-01 14:47:39.716,2208799172,584716,2,0.802,0.01318,0.70215,7.29,10.168,1.664
2026-06-01 14:47:39.916,2208799372,584916,1,-0.19995,-0.14746,1.45483,-6.473,-12.641,4.092
2026-06-01 14:47:39.916,2208799372,584916,2,0.87476,-0.00562,0.72485,-4.954,-39.046,8.443
2026-06-01 14:47:39.116,2208798572,585116,1,-0.06421,-0.08447,1.19604,17.26,-65.748,12.244
2026-06-01 14:47:39.116,2208798572,585116,2,0.8313,-0.05908,0.37598,-4.977,-79.924,15.969
2026-06-01 14:47:40.316,2208799772,585316,1,0.323,-0.00708,0.77588,38.893,-67.336,22.389
2026-06-01 14:47:40.316,2208799772,585316,2,0.76196,0.0293,0.09229,-5.901,-55.84,-6.534
2026-06-01 14:47:40.516,2208799972,585516,1,0.49585,-0.0293,0.83423,11.618,-78.725,-36.321
2026-06-01 14:47:40.516,2208799972,585516,2,1.05933,-0.22827,-0.01099,-35.351,-48.115,-12.198
2026-06-01 14:47:40.716,2208800172,585716,1,0.55591,0.06714,0.80811,41.573,-9.351,3.0
2026-06-01 14:47:40.716,2208800172,585716,2,1.14258,-0.02832,-0.02832,22.969,-44.382,-18.115
2026-06-01 14:47:40.916,2208800372,585916,1,0.78149,0.27637,0.82129,2.328,4.565,-18.046
2026-06-01 14:47:40.916,2208800372,585916,2,0.96533,0.08911,-0.18896,-12.275,-4.794,2.237
2026-06-01 14:47:40.116,2208799572,586116,1,0.67773,0.35889,0.79614,3.977,6.687,-2.397
2026-06-01 14:47:40.116,2208799572,586116,2,0.96533,0.12158,-0.28711,-5.374,3.122,2.481
2026-06-01 14:47:41.316,2208800772,586316,1,0.70581,0.36304,0.77124,4.282,-10.099,-0.137
2026-06-01 14:47:41.316,2208800772,586316,2,1.03442,0.08447,-0.229,2.45,-7.985,7.908
2026-06-01 14:47:41.516,2208800972,586516,1,0.65283,0.12866,0.79858,-17.45,-3.023,5.29
2026-06-01 14:47:41.516,2208800972,586516,2,0.93677,0.12305,-0.1709,11.282,-0.702,-16.603
2026-06-01 14:47:41.716,2208801172,586716,1,0.68701,0.23438,0.79785,3.931,7.313,8.321
2026-06-01 14:47:41.716,2208801172,586716,2,1.09155,0.00635,-0.23706,-0.756,69.664,5.305
2026-06-01 14:47:41.916,2208801372,586916,1,0.7356,0.22729,0.77661,3.954,2.366,-2.611
2026-06-01 14:47:41.916,2208801372,586916,2,1.04541,0.04541,-0.23071,-14.443,29.931,-4.206
2026-06-01 14:47:41.116,2208800572,587116,1,0.69092,0.33008,0.7002,13.237,-20.282,-6.481
2026-06-01 14:47:41.116,2208800572,587116,2,1.18604,0.56689,0.0415,-59.336,37.977,-70.672
2026-06-01 14:47:42.316,2208801772,587316,1,0.79443,0.27563,0.70313,8.603,-3.878,19.427
2026-06-01 14:47:42.316,2208801772,587316,2,0.95874,-0.54199,-0.31885,-134.58,7.786,22.794
2026-06-01 14:47:42.516,2208801972,587516,1,0.9104,0.27539,0.71851,-0.344,6.977,17.473
2026-06-01 14:47:42.516,2208801972,587516,2,0.98999,0.00977,-0.40527,-49.458,4.718,-10.42
2026-06-01 14:47:42.716,2208802172,587716,1,0.802,0.29224,0.71924,5.87,6.45,-7.992
2026-06-01 14:47:42.716,2208802172,587716,2,1.02222,0.00244,-0.18262,-17.412,-3.725,-0.435
2026-06-01 14:47:42.916,2208802372,587916,1,0.79883,0.33789,0.71631,-9.626,12.855,-3.893
2026-06-01 14:47:42.916,2208802372,587916,2,1.03662,-0.00391,-0.18604,3.634,12.046,-2.74
2026-06-01 14:47:42.116,2208801572,588116,1,0.75586,0.27075,0.74512,-7.038,-1.145,-0.802
2026-06-01 14:47:42.116,2208801572,588116,2,1.02124,0.01855,-0.11621,11.885,5.084,5.565
2026-06-01 14:47:43.316,2208802772,588316,1,0.75806,0.31055,0.74902,16.046,12.649,20.573
2026-06-01 14:47:43.316,2208802772,588316,2,1.01196,0.05347,-0.12476,-8.962,-17.405,-3.137
2026-06-01 14:47:43.516,2208802972,588516,1,0.76196,0.25513,0.75952,0.198,-12.718,0.084
2026-06-01 14:47:43.516,2208802972,588516,2,0.95776,0.11792,-0.10498,2.321,3.588,-0.573
2026-06-01 14:47:43.716,2208803172,588716,1,0.7793,0.17505,0.72363,-11.969,-9.985,-12.183
2026-06-01 14:47:43.716,2208803172,588716,2,1.00317,-0.01514,-0.09595,-3.748,5.542,-7.427
2026-06-01 14:47:43.916,2208803372,588916,1,0.80786,0.1936,0.74512,-12.45,-5.588,-11.176
2026-06-01 14:47:43.916,2208803372,588916,2,1.06079,-0.07617,-0.18408,-24.069,-10.611,4.87
2026-06-01 14:47:43.116,2208802572,589116,1,0.8291,0.23779,0.75586,-11.977,1.84,1.817
2026-06-01 14:47:43.116,2208802572,589116,2,1.04419,-0.0376,-0.1853,-9.931,7.718,6.198
2026-06-01 14:47:44.316,2208803772,589316,1,0.80933,0.20654,0.73169,-8.038,-4.824,-7.58
2026-06-01 14:47:44.316,2208803772,589316,2,1.02417,-0.04102,-0.17456,-18.588,-9.588,1.527
2026-06-01 14:47:44.516,2208803972,589516,1,0.79102,0.22583,0.7041,-2.153,0.313,-5.618
2026-06-01 14:47:44.516,2208803972,589516,2,1.01904,-0.07813,-0.18018,-3.779,-2.336,-2.504
2026-06-01 14:47:44.716,2208804172,589716,1,0.81836,0.22876,0.72412,4.58,3.168,6.588
2026-06-01 14:47:44.716,2208804172,589716,2,1.02734,-0.05151,-0.19263,9.641,1.069,2.595
2026-06-01 14:47:44.916,2208804372,589916,1,0.78442,0.19458,0.74463,7.115,6.733,6.153
2026-06-01 14:47:44.916,2208804372,589916,2,1.01416,-0.02612,-0.17554,8.26,0.092,-5.794
2026-06-01 14:47:44.116,2208803572,590116,1,0.78564,0.21851,0.74731,-4.969,-3.153,-7.183
2026-06-01 14:47:44.116,2208803572,590116,2,1.04248,-0.02661,-0.19531,-9.084,-3.519,-0.977
2026-06-01 14:47:45.316,2208804772,590316,1,0.80127,0.24219,0.72119,-12.321,-2.618,-12.496
2026-06-01 14:47:45.316,2208804772,590316,2,1.00854,-0.03906,-0.21167,-11.771,-3.763,0.931
2026-06-01 14:47:45.516,2208804972,590516,1,0.82886,0.24609,0.72168,-1.244,-5.603,-7.267
2026-06-01 14:47:45.516,2208804972,590516,2,1.01318,-0.03979,-0.22461,-6.206,0.618,0.756
2026-06-01 14:47:45.716,2208805172,590716,1,0.80981,0.23975,0.71582,0.305,-2.664,-4.435
2026-06-01 14:47:45.716,2208805172,590716,2,1.01294,-0.04858,-0.24878,-2.282,-1.863,-2.061
2026-06-01 14:47:45.916,2208805372,590916,1,0.82349,0.25684,0.70142,4.046,2.321,1.679
2026-06-01 14:47:45.916,2208805372,590916,2,1.02319,-0.03149,-0.24951,3.756,0.58,0.496
2026-06-01 14:47:45.116,2208804572,591116,1,0.82617,0.26343,0.68384,9.824,7.924,12.931
2026-06-01 14:47:45.116,2208804572,591116,2,1.02344,-0.00586,-0.27051,2.74,0.924,2.527
2026-06-01 14:47:46.316,2208805772,591316,1,0.83984,0.22607,0.69263,-0.618,-7.221,-8.534
2026-06-01 14:47:46.316,2208805772,591316,2,1.03125,-0.08862,-0.29224,-5.771,-8.145,12.145
2026-06-01 14:47:46.516,2208805972,591516,1,0.82251,0.24341,0.68237,-10.344,3.885,4.832
2026-06-01 14:47:46.516,2208805972,591516,2,0.98657,-0.09058,-0.29834,0.794,3.023,6.443
2026-06-01 14:47:46.716,2208806172,591716,1,0.74756,0.28271,0.68433,10.595,13.069,20.931
2026-06-01 14:47:46.716,2208806172,591716,2,0.98779,-0.00366,-0.2937,25.16,-57.939,28.336
2026-06-01 14:47:46.916,2208806372,591916,1,0.84033,0.13379,0.66992,8.374,-0.473,4.023
2026-06-01 14:47:46.916,2208806372,591916,2,1.0188,-0.1604,-0.28735,-0.809,-5.473,-12.595
2026-06-01 14:47:46.116,2208805572,592116,1,0.8186,0.11255,0.68042,7.656,-3.336,-6.29
2026-06-01 14:47:46.116,2208805572,592116,2,0.92163,-0.13599,-0.21582,25.763,-13.84,-4.053
2026-06-01 14:47:47.316,2208806772,592316,1,0.79419,0.45044,0.73804,30.061,19.634,40.992
2026-06-01 14:47:47.316,2208806772,592316,2,1.09204,0.09082,-0.35205,29.878,20.626,-10.176
2026-06-01 14:47:47.516,2208806972,592516,1,0.77124,0.30615,0.66162,15.122,2.557,0.679
2026-06-01 14:47:47.516,2208806972,592516,2,1.04102,0.00073,-0.31958,-6.695,-22.229,22.71
2026-06-01 14:47:47.716,2208807172,592716,1,0.8208,0.24951,0.65698,0.786,5.084,-11.847
2026-06-01 14:47:47.716,2208807172,592716,2,1.03638,-0.12378,-0.24902,-37.153,8.779,21.863
2026-06-01 14:47:47.916,2208807372,592916,1,0.74707,0.3208,0.75146,1.573,9.069,-3.282
2026-06-01 14:47:47.916,2208807372,592916,2,1.00293,-0.05273,-0.23999,16.435,17.336,8.672
2026-06-01 14:47:47.116,2208806572,593116,1,0.81665,0.27783,0.69775,-7.389,3.305,-4.969
2026-06-01 14:47:47.116,2208806572,593116,2,1.01074,-0.04297,-0.23828,-1.489,1.656,-1.382
2026-06-01 14:47:48.316,2208807772,593316,1,0.79053,0.28711,0.72266,-6.229,-1.298,-0.893
2026-06-01 14:47:48.316,2208807772,593316,2,1.01392,-0.04053,-0.24194,-1.504,-0.611,2.634
2026-06-01 14:47:48.516,2208807972,593516,1,0.78784,0.26587,0.71973,3.221,2.542,4.336
2026-06-01 14:47:48.516,2208807972,593516,2,1.0166,-0.02197,-0.25366,1.359,-2.13,-0.771
2026-06-01 14:47:48.716,2208808172,593716,1,0.81348,0.2793,0.70776,-0.519,1.565,0.473
2026-06-01 14:47:48.716,2208808172,593716,2,1.00586,-0.01147,-0.25317,-2.84,-0.282,5.122
2026-06-01 14:47:48.916,2208808372,593916,1,0.77588,0.25562,0.73145,-1.015,1.0,-1.336
2026-06-01 14:47:48.916,2208808372,593916,2,1.021,-0.02832,-0.26611,-7.145,-1.832,1.557
2026-06-01 14:47:48.116,2208807572,594116,1,0.76025,0.28931,0.72583,-13.557,-13.366,-2.435
2026-06-01 14:47:48.116,2208807572,594116,2,1.01221,-0.00635,-0.27734,-30.832,-13.435,10.901
2026-06-01 14:47:49.316,2208808772,594316,1,0.88135,0.26025,0.63989,-40.069,-20.351,-26.763
2026-06-01 14:47:49.316,2208808772,594316,2,1.00903,-0.0437,-0.34546,-51.58,-8.275,19.496
2026-06-01 14:47:49.516,2208808972,594516,1,0.85791,0.22485,0.64429,-36.901,-13.489,-34.603
2026-06-01 14:47:49.516,2208808972,594516,2,0.95679,-0.07129,-0.37207,-46.511,6.084,11.45
2026-06-01 14:47:49.716,2208809172,594716,1,0.87134,0.2063,0.65039,-37.282,-7.55,-20.252
2026-06-01 14:47:49.716,2208809172,594716,2,0.97217,-0.09106,-0.35767,-40.779,-4.275,11.969
2026-06-01 14:47:49.916,2208809372,594916,1,0.84668,0.23438,0.68604,-1.641,5.153,1.038
2026-06-01 14:47:49.916,2208809372,594916,2,0.99829,-0.06152,-0.33643,0.244,5.466,-0.763
2026-06-01 14:47:49.116,2208808572,595116,1,0.84595,0.24316,0.67456,4.832,5.618,4.885
2026-06-01 14:47:49.116,2208808572,595116,2,1.01587,-0.05151,-0.31104,8.84,2.031,-3.527
2026-06-01 14:47:50.316,2208809772,595316,1,0.86816,0.27734,0.67822,0.847,-2.687,-2.397
2026-06-01 14:47:50.316,2208809772,595316,2,1.02588,-0.0957,-0.27271,8.489,0.916,11.611
2026-06-01 14:47:50.516,2208809972,595516,1,0.82031,0.20532,0.69434,-1.115,5.084,3.977
2026-06-01 14:47:50.516,2208809972,595516,2,0.97363,-0.10571,-0.27612,4.252,7.42,-2.031
2026-06-01 14:47:50.716,2208810172,595716,1,0.85669,0.17773,0.7002,7.863,2.344,4.237
2026-06-01 14:47:50.716,2208810172,595716,2,0.99512,-0.10864,-0.31934,-2.107,8.893,-1.534
2026-06-01 14:47:50.916,2208810372,595916,1,0.85498,0.19287,0.65967,9.58,2.137,9.313
2026-06-01 14:47:50.916,2208810372,595916,2,1.00098,-0.06934,-0.30176,23.176,-0.924,-5.313
2026-06-01 14:47:50.116,2208809572,596116,1,0.87231,0.20313,0.66919,10.58,5.847,4.962
2026-06-01 14:47:50.116,2208809572,596116,2,1.02441,-0.09766,-0.32446,9.443,0.634,-3.962
2026-06-01 14:47:51.316,2208810772,596316,1,0.88525,0.15576,0.65381,15.153,11.221,2.374
2026-06-01 14:47:51.316,2208810772,596316,2,1.02271,-0.13843,-0.32227,38.718,16.595,-8.977
2026-06-01 14:47:51.516,2208810972,596516,1,0.85376,0.23071,0.69482,50.435,52.099,45.855
2026-06-01 14:47:51.516,2208810972,596516,2,1.05664,-0.03687,-0.24023,50.038,29.55,-3.939
2026-06-01 14:47:51.716,2208811172,596716,1,0.73901,0.2251,0.76294,11.458,24.214,25.359
2026-06-01 14:47:51.716,2208811172,596716,2,0.98682,0.0127,-0.0459,66.107,28.321,0.878
2026-06-01 14:47:51.916,2208811372,596916,1,0.48633,0.2041,0.62476,-15.962,90.786,32.573
2026-06-01 14:47:51.916,2208811372,596916,2,0.56104,0.07861,-0.12231,25.153,88.176,-0.321
2026-06-01 14:47:51.116,2208810572,597116,1,0.33203,0.06421,0.70776,-22.931,64.153,-9.725
2026-06-01 14:47:51.116,2208810572,597116,2,0.86914,-0.07178,0.24316,-36.786,32.611,8.137
2026-06-01 14:47:52.316,2208811772,597316,1,0.30786,0.04053,1.15869,-16.061,23.893,-15.649
2026-06-01 14:47:52.316,2208811772,597316,2,0.98364,-0.16211,0.47974,-17.748,21.542,6.023
2026-06-01 14:47:52.516,2208811972,597516,1,0.41138,0.00952,1.4856,-17.756,-15.412,-6.42
2026-06-01 14:47:52.516,2208811972,597516,2,1.42017,-0.13623,0.53735,-7.611,-14.305,15.099
2026-06-01 14:47:52.716,2208812172,597716,1,0.34668,-0.06226,1.17627,-3.573,13.29,10.405
2026-06-01 14:47:52.716,2208812172,597716,2,0.84619,-0.0354,0.34888,4.534,9.275,3.252
2026-06-01 14:47:52.916,2208812372,597916,1,0.34668,-0.06104,1.10596,-3.954,-14.901,-15.13
2026-06-01 14:47:52.916,2208812372,597916,2,1.13135,-0.29419,0.35596,-26.466,-5.595,-4.84
2026-06-01 14:47:52.116,2208811572,598116,1,0.38086,-0.10132,0.94019,0.489,22.29,-3.763
2026-06-01 14:47:52.116,2208811572,598116,2,0.83374,-0.14575,0.30688,11.718,15.55,-8.496
2026-06-01 14:47:53.316,2208812772,598316,1,0.30688,-0.04126,1.18677,8.489,-16.458,-2.901
2026-06-01 14:47:53.316,2208812772,598316,2,1.06055,-0.08032,0.48242,-10.099,-19.588,-7.687
2026-06-01 14:47:53.516,2208812972,598516,1,0.49902,0.24854,1.01221,21.779,23.45,14.84
2026-06-01 14:47:53.516,2208812972,598516,2,0.94116,-0.11011,0.36035,9.137,12.344,-8.954
2026-06-01 14:47:53.716,2208813172,598716,1,0.29272,0.07642,1.19116,-7.786,14.053,-6.611
2026-06-01 14:47:53.716,2208813172,598716,2,1.06201,-0.12329,0.33228,-7.809,6.092,-3.366
2026-06-01 14:47:53.916,2208813372,598916,1,0.21436,0.0293,1.17993,-1.687,16.519,-10.183
2026-06-01 14:47:53.916,2208813372,598916,2,0.9939,-0.05396,0.41357,21.191,11.824,12.015
2026-06-01 14:47:53.116,2208812572,599116,1,0.24146,0.04224,1.20435,14.863,-26.473,7.695
2026-06-01 14:47:53.116,2208812572,599116,2,0.97656,-0.14722,0.30225,-15.153,-42.527,1.397
2026-06-01 14:47:54.316,2208813772,599316,1,0.3335,0.1167,0.8147,34.473,-44.183,27.649
2026-06-01 14:47:54.316,2208813772,599316,2,0.71143,0.07422,0.01807,-16.267,-68.847,-3.252
2026-06-01 14:47:54.516,2208813972,599516,1,0.66919,0.15381,0.70435,-0.58,-99.664,-12.053
2026-06-01 14:47:54.516,2208813972,599516,2,1.08301,-0.00171,-0.07544,-24.359,-88.473,-1.008
2026-06-01 14:47:54.716,2208814172,599716,1,0.79175,0.41626,0.72485,12.481,-21.931,-4.611
2026-06-01 14:47:54.716,2208814172,599716,2,1.02832,-0.16431,-0.16455,-73.107,-17.45,18.924
2026-06-01 14:47:54.916,2208814372,599916,1,0.61011,0.27197,0.83618,1.221,20.122,3.107
2026-06-01 14:47:54.916,2208814372,599916,2,0.97412,-0.00269,-0.26074,13.153,10.519,12.511
2026-06-01 14:47:54.116,2208813572,600116,1,0.76172,0.27954,0.75708,2.87,-0.916,-1.313
2026-06-01 14:47:54.116,2208813572,600116,2,1.05933,-0.03345,-0.25757,0.962,-0.015,3.786
2026-06-01 14:47:55.316,2208814772,600316,1,0.78662,0.25293,0.76416,-3.427,18.809,5.099
2026-06-01 14:47:55.316,2208814772,600316,2,1.07349,-0.03394,-0.2229,18.878,22.053,4.641
2026-06-01 14:47:55.516,2208814972,600516,1,0.52734,0.15576,0.82837,-27.397,59.473,-3.443
2026-06-01 14:47:55.516,2208814972,600516,2,0.78857,-0.09009,0.01538,3.313,68.191,1.176
2026-06-01 14:47:55.716,2208815172,600716,1,0.26636,0.10449,1.15161,4.573,16.534,4.656
2026-06-01 14:47:55.716,2208815172,600716,2,1.15015,-0.04004,0.02588,22.183,5.153,-3.145
2026-06-01 14:47:55.916,2208815372,600916,1,0.44922,0.12354,0.82495,-12.786,55.763,-6.962
2026-06-01 14:47:55.916,2208815372,600916,2,0.84326,0.00024,0.19116,9.695,65.985,4.374
2026-06-01 14:47:55.116,2208814572,601116,1,0.16772,0.00977,1.0105,-5.58,19.115,7.672
2026-06-01 14:47:55.116,2208814572,601116,2,0.87329,-0.05127,0.33154,6.832,3.206,7.534
2026-06-01 14:47:56.316,2208815772,601316,1,0.28052,0.05591,1.23999,0.618,-6.802,3.26
2026-06-01 14:47:56.316,2208815772,601316,2,1.09326,-0.03369,0.32959,1.947,-4.702,-0.748
2026-06-01 14:47:56.516,2208815972,601516,1,0.28271,0.02905,1.26978,5.435,-17.298,6.573
2026-06-01 14:47:56.516,2208815972,601516,2,1.08179,-0.01904,0.37451,13.534,-23.664,4.176
2026-06-01 14:47:56.728,2208816184,601728,1,0.34448,0.12866,1.11475,4.626,4.71,7.542
2026-06-01 14:47:56.728,2208816184,601728,2,1.09741,0.03979,0.30664,7.061,-3.122,4.847
2026-06-01 14:47:56.928,2208816384,601928,1,0.37476,0.09448,1.13184,-13.061,13.931,-1.26
2026-06-01 14:47:56.928,2208816384,601928,2,0.99219,-0.03198,0.32617,3.107,17.267,4.641
2026-06-01 14:47:56.128,2208815584,602128,1,0.23584,0.01563,1.05542,-14.924,2.244,1.328
2026-06-01 14:47:56.128,2208815584,602128,2,0.90356,-0.02173,0.35571,-3.237,7.076,11.878
2026-06-01 14:47:57.332,2208816788,602332,1,0.23071,-0.05981,1.11157,-8.885,-3.374,-28.229
2026-06-01 14:47:57.332,2208816788,602332,2,0.9624,-0.11475,0.35938,-32.58,9.885,-12.115
2026-06-01 14:47:57.532,2208816988,602532,1,0.21826,-0.02734,1.10327,-6.046,11.87,-24.252
2026-06-01 14:47:57.532,2208816988,602532,2,0.95386,-0.19287,0.29419,-17.145,-5.252,-6.275
2026-06-01 14:47:57.760,2208817216,602760,1,0.31396,-0.03369,1.09863,-3.443,-8.588,-3.382
2026-06-01 14:47:57.760,2208817216,602760,2,0.91577,-0.1394,0.31372,5.832,5.458,-1.763
2026-06-01 14:47:57.180,2208816636,603180,1,0.38916,-0.02905,1.07349,14.076,1.519,-4.626
2026-06-01 14:47:57.180,2208816636,603180,2,1.31665,-0.08105,0.40503,15.847,-18.901,-5.962
2026-06-01 14:47:58.566,2208818022,603566,1,0.0918,0.06201,1.36206,13.298,26.405,21.382
2026-06-01 14:47:58.566,2208818022,603566,2,0.96387,-0.03149,0.36719,1.58,-24.962,4.366
2026-06-01 14:47:58.846,2208818302,603846,1,0.34912,0.06079,1.13477,31.0,-75.244,9.023
2026-06-01 14:47:58.846,2208818302,603846,2,1.03271,-0.05688,-0.021,-17.344,-66.473,-13.466
2026-06-01 14:47:58.182,2208817638,604182,1,0.43848,0.1001,0.54907,23.924,-42.374,10.748
2026-06-01 14:47:58.182,2208817638,604182,2,1.16553,-0.03833,-0.11279,-5.344,-40.237,-10.397
2026-06-01 14:47:59.488,2208818944,604488,1,0.73511,0.32642,0.76978,10.359,-8.198,16.534
2026-06-01 14:47:59.488,2208818944,604488,2,1.00903,0.01563,-0.27832,1.015,-1.092,-2.656
2026-06-01 14:47:59.819,2208819275,604819,1,0.78027,0.28271,0.73022,0.802,-4.779,4.519
2026-06-01 14:47:59.819,2208819275,604819,2,1.02222,-0.00415,-0.26001,-3.504,-4.0,-1.611
2026-06-01 14:48:03.444,2208822900,608444,1,-0.51318,-0.32495,1.0896,32.198,-72.947,-4.947
2026-06-01 14:48:03.444,2208822900,608444,2,0.59351,0.07861,0.67725,-17.855,-106.969,5.473
2026-06-01 14:48:03.644,2208823100,608644,1,-0.01978,-0.07666,0.91748,52.13,-115.29,-11.718
2026-06-01 14:48:03.644,2208823100,608644,2,0.90601,0.0415,0.10229,-36.885,-110.863,-14.023
2026-06-01 14:48:03.078,2208822534,609078,1,0.66064,0.27734,0.75781,-10.053,-70.733,-48.031
2026-06-01 14:48:03.078,2208822534,609078,2,1.07007,-0.06128,-0.26099,4.931,2.802,0.122
2026-06-01 14:48:04.303,2208823759,609302,1,0.73145,0.29468,0.74487,-3.374,-3.58,0.26
2026-06-01 14:48:04.303,2208823759,609302,2,1.01709,0.00488,-0.29712,-23.55,-8.29,9.672
2026-06-01 14:48:04.502,2208823958,609502,1,0.87891,0.29736,0.69849,-16.206,-11.435,-18.603
2026-06-01 14:48:04.502,2208823958,609502,2,0.98584,-0.07617,-0.3103,-18.931,7.275,14.527
2026-06-01 14:48:04.702,2208824158,609702,1,0.86108,0.23633,0.70581,-6.237,-2.969,3.527
2026-06-01 14:48:04.702,2208824158,609702,2,1.02759,-0.15601,-0.25317,12.504,18.092,1.351
2026-06-01 14:48:04.902,2208824358,609902,1,0.78418,0.17603,0.7439,9.55,28.74,22.053
2026-06-01 14:48:04.902,2208824358,609902,2,1.03052,-0.11328,-0.17822,45.679,26.863,-3.84
2026-06-01 14:48:04.102,2208823558,610102,1,0.73779,0.20068,0.80859,7.092,44.74,31.046
2026-06-01 14:48:04.102,2208823558,610102,2,1.07568,-0.06689,-0.07471,32.519,39.489,-4.145
2026-06-01 14:48:05.302,2208824758,610302,1,0.59473,0.14868,0.84814,-14.878,104.061,33.672
2026-06-01 14:48:05.302,2208824758,610302,2,1.021,-0.00659,0.22046,43.87,106.397,5.305
2026-06-01 14:48:05.529,2208824985,610529,1,-0.03369,-0.10303,1.00293,-36.496,118.695,7.344
2026-06-01 14:48:05.529,2208824985,610529,2,0.76343,-0.04858,0.42261,31.16,117.893,-1.595
2026-06-01 14:48:05.729,2208825185,610729,1,-0.4187,-0.10596,0.92188,-30.55,83.74,4.954
2026-06-01 14:48:05.729,2208825185,610729,2,0.57935,0.08667,0.70459,3.069,85.176,-9.664
2026-06-01 14:48:05.929,2208825385,610929,1,-0.6687,-0.25464,0.99951,-16.969,48.763,-1.969
2026-06-01 14:48:05.929,2208825385,610929,2,0.35156,0.13208,0.99463,2.29,41.275,-0.443
2026-06-01 14:48:05.134,2208824590,611134,1,-0.6665,-0.28369,0.88843,5.496,11.252,2.16
2026-06-01 14:48:05.134,2208824590,611134,2,0.20508,0.08667,1.02905,3.992,1.931,1.0
2026-06-01 14:48:06.334,2208825790,611334,1,-0.62183,-0.2605,0.95215,0.519,-13.137,1.962
2026-06-01 14:48:06.334,2208825790,611334,2,0.30127,0.08643,0.93286,-4.565,-12.214,4.046
2026-06-01 14:48:06.554,2208826010,611553,1,-0.63501,-0.21118,0.95703,16.321,-35.382,0.885
2026-06-01 14:48:06.554,2208826010,611553,2,0.46191,0.09692,0.98438,2.504,-61.336,7.427
2026-06-01 14:48:06.767,2208826223,611767,1,-0.55176,-0.14966,1.2395,37.008,-85.809,5.115
2026-06-01 14:48:06.767,2208826223,611767,2,0.83618,0.0022,0.27466,-36.702,-148.649,-0.008
2026-06-01 14:48:06.097,2208825553,612097,1,0.3772,0.13232,0.6626,56.252,-104.908,15.725
2026-06-01 14:48:06.097,2208825553,612097,2,1.0061,0.05566,-0.02612,19.061,-85.71,-13.237
2026-06-01 14:48:07.297,2208826753,612297,1,0.71606,0.34937,0.69873,11.198,-22.626,2.153
2026-06-01 14:48:07.297,2208826753,612297,2,1.09058,-0.01318,-0.177,-1.176,-14.023,8.412
2026-06-01 14:48:07.553,2208827009,612553,1,0.67456,0.30029,0.83984,8.939,-6.137,1.656
2026-06-01 14:48:07.553,2208827009,612553,2,1.01831,0.02393,-0.19946,-8.511,-7.397,-0.962
2026-06-01 14:48:07.855,2208827311,612855,1,0.69336,0.28979,0.82129,-6.076,-5.046,-9.313
2026-06-01 14:48:07.855,2208827311,612855,2,1.01123,0.02808,-0.2334,-2.603,-1.656,1.954
2026-06-01 14:48:08.327,2208827783,613327,1,0.69336,0.33081,0.77881,-11.092,-15.344,-10.405
2026-06-01 14:48:08.327,2208827783,613327,2,1.03589,0.0437,-0.30469,-56.252,-12.412,5.779
2026-06-01 14:48:08.527,2208827983,613527,1,0.74731,0.33716,0.7561,-47.038,-19.366,-28.603
2026-06-01 14:48:08.527,2208827983,613527,2,1.00317,0.04028,-0.30957,-70.405,1.321,14.695
2026-06-01 14:48:08.794,2208828250,613794,1,0.79395,0.34399,0.75269,-41.359,-29.015,-46.885
2026-06-01 14:48:08.794,2208828250,613794,2,1.02954,-0.09595,-0.29858,-61.611,0.611,20.0
2026-06-01 14:48:08.028,2208827484,614028,1,0.77002,0.31323,0.7146,-32.573,-8.718,-21.969
2026-06-01 14:48:08.028,2208827484,614028,2,1.08789,-0.03711,-0.26245,-44.908,18.947,18.321
2026-06-01 14:48:08.244,2208827700,614244,1,0.7522,0.17603,0.65039,-40.473,-14.847,-39.947
2026-06-01 14:48:08.244,2208827700,614244,2,0.94263,-0.15112,-0.28882,-57.962,7.298,20.977
2026-06-01 14:48:09.444,2208828900,614444,1,0.85083,0.15942,0.73584,2.107,7.489,2.779
2026-06-01 14:48:09.444,2208828900,614444,2,1.03076,-0.15747,-0.2915,48.824,-1.756,-3.099
2026-06-01 14:48:09.662,2208829118,614662,1,0.86157,0.20288,0.70776,44.817,37.191,46.962
2026-06-01 14:48:09.662,2208829118,614662,2,1.04688,-0.01953,-0.26587,36.771,23.412,-37.733
2026-06-01 14:48:09.862,2208829318,614862,1,0.76733,0.23608,0.73853,43.969,28.16,36.305
2026-06-01 14:48:09.862,2208829318,614862,2,0.97632,-0.03516,-0.28394,56.908,0.916,-10.282
2026-06-01 14:48:09.062,2208828518,615062,1,0.79956,0.18091,0.73804,22.389,10.588,19.427
2026-06-01 14:48:09.062,2208828518,615062,2,1.01172,-0.09131,-0.25903,54.26,3.74,-6.939
2026-06-01 14:48:10.262,2208829718,615262,1,0.84155,0.23804,0.79858,44.511,16.718,37.038
2026-06-01 14:48:10.262,2208829718,615262,2,1.1167,0.03027,-0.25024,52.664,-48.481,-13.397
2026-06-01 14:48:10.547,2208830003,615547,1,0.82251,0.36206,0.76196,39.817,11.137,38.069
2026-06-01 14:48:10.547,2208830003,615547,2,0.99316,0.09473,-0.24878,28.855,8.618,-19.298
2026-06-01 14:48:10.747,2208830203,615747,1,0.84644,0.28882,0.7085,15.137,2.55,12.855
2026-06-01 14:48:10.747,2208830203,615747,2,0.99414,0.02173,-0.36743,15.504,-6.511,6.069
2026-06-01 14:48:10.947,2208830403,615947,1,0.81982,0.29224,0.70459,17.649,7.901,13.122
2026-06-01 14:48:10.947,2208830403,615947,2,0.99731,0.0625,-0.32471,-4.702,3.061,0.183
2026-06-01 14:48:11.295,2208830751,616295,1,0.8252,0.38794,0.63672,-19.427,0.351,-9.779
2026-06-01 14:48:11.295,2208830751,616295,2,0.98608,-0.12183,-0.32568,-73.534,-2.634,23.191
2026-06-01 14:48:11.029,2208830485,617029,1,0.77271,0.11328,0.77124,-4.519,10.908,2.634
2026-06-01 14:48:11.029,2208830485,617029,2,0.97925,-0.0979,-0.29688,43.58,-9.298,-0.809
2026-06-01 14:48:12.371,2208831827,617371,1,0.87109,0.15576,0.72461,9.565,-0.58,9.947
2026-06-01 14:48:12.371,2208831827,617371,2,0.9978,-0.12817,-0.33594,26.061,9.756,-19.008
2026-06-01 14:48:12.586,2208832042,617586,1,0.8147,0.10498,0.75854,32.191,13.038,30.802
2026-06-01 14:48:12.586,2208832042,617586,2,1.04199,-0.09082,-0.31738,49.084,-1.328,-17.206
2026-06-01 14:48:12.819,2208832275,617818,1,0.79468,0.18872,0.74146,50.695,46.55,30.321
2026-06-01 14:48:12.819,2208832275,617818,2,0.95874,0.03223,-0.1416,89.084,19.153,-8.336
2026-06-01 14:48:12.113,2208831569,618113,1,0.67407,0.30469,0.85718,42.183,20.061,43.626
2026-06-01 14:48:12.113,2208831569,618113,2,1.01147,0.18555,-0.12793,57.16,7.168,-15.733
2026-06-01 14:48:13.313,2208832769,618313,1,0.65967,0.2998,0.84814,-3.13,-4.511,0.992
2026-06-01 14:48:13.313,2208832769,618313,2,1.03491,0.09399,-0.1438,-8.252,-9.679,5.282
2026-06-01 14:48:13.513,2208832969,618513,1,0.73242,0.25854,0.82593,6.046,-1.313,-4.069
2026-06-01 14:48:13.513,2208832969,618513,2,1.01025,0.11743,-0.15845,4.321,2.939,-8.42
2026-06-01 14:48:13.713,2208833169,618713,1,0.62939,0.35327,0.85449,5.069,3.008,-0.168
2026-06-01 14:48:13.713,2208833169,618713,2,1.04785,0.15137,-0.14063,-19.84,-5.58,14.282
2026-06-01 14:48:13.913,2208833369,618913,1,0.69116,0.32251,0.80737,-33.435,-10.679,-31.962
2026-06-01 14:48:13.913,2208833369,618913,2,1.02026,0.06812,-0.11743,-24.969,1.649,6.977
2026-06-01 14:48:13.171,2208832627,619171,1,0.53931,0.22583,0.83057,-16.42,-6.458,-21.947
2026-06-01 14:48:13.171,2208832627,619171,2,1.08057,-0.01489,-0.16406,-11.931,-19.511,22.794
2026-06-01 14:48:14.371,2208833827,619371,1,0.68604,0.1748,0.81006,-2.298,-7.885,-0.832
2026-06-01 14:48:14.371,2208833827,619371,2,1.04468,-0.07568,-0.2981,-18.313,8.573,3.786
2026-06-01 14:48:14.571,2208834027,619571,1,0.72632,0.23608,0.78198,6.29,-0.344,-3.344
2026-06-01 14:48:14.571,2208834027,619571,2,1.00781,-0.0791,-0.24023,-2.382,-16.901,-2.069
2026-06-01 14:48:14.771,2208834227,619771,1,0.77148,0.20825,0.7854,7.908,-4.443,4.656
2026-06-01 14:48:14.771,2208834227,619771,2,1.06519,0.00415,-0.19751,28.748,-0.649,-5.092
2026-06-01 14:48:14.065,2208833521,620065,1,0.74561,0.31787,0.80933,5.802,-3.389,2.214
2026-06-01 14:48:14.065,2208833521,620065,2,0.9834,-0.10742,-0.31494,-35.412,-0.802,14.725
2026-06-01 14:48:15.504,2208834960,620504,1,0.8313,0.21167,0.7937,4.092,-11.458,-15.87
2026-06-01 14:48:15.504,2208834960,620504,2,0.97314,-0.03149,-0.18628,-0.718,-0.26,-7.733
2026-06-01 14:48:15.723,2208835179,620723,1,0.75684,0.29639,0.75415,9.092,-2.069,7.298
2026-06-01 14:48:15.723,2208835179,620723,2,1.05322,0.00659,-0.20923,5.321,10.42,0.641
2026-06-01 14:48:15.923,2208835379,620923,1,0.66211,0.29834,0.7771,6.183,0.916,0.794
2026-06-01 14:48:15.923,2208835379,620923,2,1.07666,-0.03345,-0.20728,-9.878,-5.672,-6.679
2026-06-01 14:48:15.123,2208834579,621123,1,0.74268,0.28613,0.75732,0.015,0.466,2.069
2026-06-01 14:48:15.123,2208834579,621123,2,1.01978,-0.00806,-0.25977,5.939,3.565,-2.412
2026-06-01 14:48:16.323,2208835779,621323,1,0.74487,0.23438,0.75781,9.282,5.458,7.634
2026-06-01 14:48:16.323,2208835779,621323,2,0.99292,0.0083,-0.24219,12.603,3.847,-7.0
2026-06-01 14:48:16.523,2208835979,621523,1,0.70898,0.30029,0.7478,6.252,8.863,1.466
2026-06-01 14:48:16.523,2208835979,621523,2,1.02783,0.08789,-0.22168,6.351,0.519,1.863
2026-06-01 14:48:16.723,2208836179,621723,1,0.76196,0.32324,0.76392,-1.977,-3.29,-0.748
2026-06-01 14:48:16.723,2208836179,621723,2,1.00293,0.0647,-0.21924,-8.13,-5.893,-1.779
2026-06-01 14:48:16.923,2208836379,621923,1,0.76074,0.41699,0.72388,3.588,-8.389,26.412
2026-06-01 14:48:16.923,2208836379,621923,2,1.09912,0.03223,-0.24341,0.16,-17.076,20.137
2026-06-01 14:48:16.123,2208835579,622123,1,0.80493,0.18701,0.71387,-30.023,-22.656,-36.855
2026-06-01 14:48:16.123,2208835579,622123,2,1.04175,-0.07959,-0.25806,-38.26,-5.55,16.198
2026-06-01 14:48:17.323,2208836779,622323,1,0.78589,0.19653,0.73853,-17.313,-6.137,-13.947
2026-06-01 14:48:17.323,2208836779,622323,2,0.98877,-0.0603,-0.33057,-25.145,-0.16,5.206
2026-06-01 14:48:17.523,2208836979,622523,1,0.8374,0.21924,0.67383,5.084,4.832,-6.954
2026-06-01 14:48:17.523,2208836979,622523,2,1.01685,-0.05884,-0.31836,-4.679,6.534,-2.13
2026-06-01 14:48:17.723,2208837179,622723,1,0.87939,0.26709,0.70288,10.992,26.588,25.382
2026-06-01 14:48:17.723,2208837179,622723,2,1.08252,-0.08398,-0.2168,26.611,25.45,1.344
2026-06-01 14:48:17.923,2208837379,622923,1,0.67041,0.13403,0.80713,-4.672,44.58,9.275
2026-06-01 14:48:17.923,2208837379,622923,2,0.98145,-0.11597,-0.07471,23.504,46.641,-1.756
2026-06-01 14:48:17.123,2208836579,623123,1,0.35596,0.03223,0.55835,-22.931,115.366,24.672
2026-06-01 14:48:17.123,2208836579,623123,2,0.46826,0.07471,0.14526,14.298,88.87,10.893
2026-06-01 14:48:18.323,2208837779,623323,1,0.1748,-0.00024,0.7876,-32.763,33.031,-33.893
2026-06-01 14:48:18.323,2208837779,623323,2,0.70435,-0.09204,0.35205,17.458,69.809,11.725
2026-06-01 14:48:18.523,2208837979,623523,1,0.11035,0.02295,1.43457,-12.313,-10.802,-5.863
2026-06-01 14:48:18.523,2208837979,623523,2,1.25806,-0.02295,0.52319,-5.229,-23.389,-1.618
2026-06-01 14:48:18.723,2208838179,623723,1,0.46899,-0.03711,1.58374,1.885,-5.053,-4.931
2026-06-01 14:48:18.723,2208838179,623723,2,1.27808,-0.09058,0.58374,14.656,24.405,0.802
2026-06-01 14:48:18.923,2208838379,623923,1,0.14478,-0.09937,0.97485,-5.511,26.122,6.214
2026-06-01 14:48:18.923,2208838379,623923,2,0.67383,-0.00903,0.37915,3.198,10.092,-5.336
2026-06-01 14:48:18.123,2208837579,624123,1,0.15015,0.00146,1.39404,12.71,-19.359,-4.023
2026-06-01 14:48:18.123,2208837579,624123,2,1.198,-0.052,0.63403,-19.198,-27.092,0.748
2026-06-01 14:48:19.323,2208838779,624323,1,0.17603,-0.06104,1.24561,-16.779,26.947,-3.031
2026-06-01 14:48:19.323,2208838779,624323,2,0.97144,-0.073,0.46094,1.298,31.725,0.328
2026-06-01 14:48:19.523,2208838979,624523,1,0.02588,-0.09106,1.2998,-4.275,27.481,3.733
2026-06-01 14:48:19.523,2208838979,624523,2,0.91431,0.02271,0.69971,10.359,21.939,-3.542
2026-06-01 14:48:19.723,2208839179,624723,1,-0.12305,-0.09985,1.18066,22.771,-30.634,13.206
2026-06-01 14:48:19.723,2208839179,624723,2,0.75488,0.03027,0.3147,-11.015,-54.71,8.328
2026-06-01 14:48:19.923,2208839379,624923,1,0.17139,-0.00879,0.87842,22.908,-79.878,7.565
2026-06-01 14:48:19.923,2208839379,624923,2,0.69458,-0.09082,0.08911,-40.023,-91.977,2.511
2026-06-01 14:48:19.123,2208838579,625123,1,0.48022,0.06665,0.74951,31.298,-89.489,7.084
2026-06-01 14:48:19.123,2208838579,625123,2,1.06494,0.0166,0.01929,5.351,-83.58,-10.29
2026-06-01 14:48:20.323,2208839779,625323,1,0.80493,0.25513,0.77441,12.649,-40.473,-23.565
2026-06-01 14:48:20.323,2208839779,625323,2,1.09814,-0.04565,-0.1897,-5.794,-2.435,4.069
2026-06-01 14:48:20.523,2208839979,625523,1,0.77588,0.25977,0.76587,-9.588,3.344,-8.053
2026-06-01 14:48:20.523,2208839979,625523,2,1.02344,-0.04517,-0.20898,-4.565,4.405,1.74
2026-06-01 14:48:20.723,2208840179,625723,1,0.77441,0.21875,0.79199,-9.015,17.061,-1.939
2026-06-01 14:48:20.723,2208840179,625723,2,1.0376,-0.05542,-0.19165,4.076,17.458,4.26
2026-06-01 14:48:20.923,2208840379,625923,1,0.73438,0.22778,0.82031,-15.13,35.153,0.214
2026-06-01 14:48:20.923,2208840379,625923,2,1.02588,-0.09229,-0.03809,-10.16,32.389,3.229
2026-06-01 14:48:20.123,2208839579,626123,1,0.27979,0.06445,0.79761,-26.145,62.229,-1.45
2026-06-01 14:48:20.123,2208839579,626123,2,0.72559,-0.13013,0.10107,-17.595,55.099,1.802
2026-06-01 14:48:21.323,2208840779,626323,1,0.16748,-0.03271,0.85132,-23.427,63.176,5.176
2026-06-01 14:48:21.323,2208840779,626323,2,0.80005,-0.07178,0.27637,42.214,41.328,-9.092
2026-06-01 14:48:21.523,2208840979,626523,1,0.08447,0.01123,1.29614,3.16,10.992,4.832
2026-06-01 14:48:21.523,2208840979,626523,2,1.04126,0.05811,0.37354,13.595,-13.374,3.092
2026-06-01 14:48:21.723,2208841179,626723,1,0.2771,0.16016,1.24731,17.84,-18.534,-1.214
2026-06-01 14:48:21.723,2208841179,626723,2,1.23853,0.04565,0.38037,-1.489,-26.107,4.137
2026-06-01 14:48:21.923,2208841379,626923,1,0.2605,-0.00635,1.29321,0.527,-3.069,3.565
2026-06-01 14:48:21.923,2208841379,626923,2,1.07031,0.05591,0.2998,-29.794,-6.305,8.16
2026-06-01 14:48:21.123,2208840579,627123,1,0.29468,0.05957,1.11768,-6.969,12.168,-8.244
2026-06-01 14:48:21.123,2208840579,627123,2,0.98901,-0.02295,0.26904,-14.221,15.496,-0.893
2026-06-01 14:48:22.323,2208841779,627323,1,0.25806,0.05493,1.14575,-4.603,9.634,-10.45
2026-06-01 14:48:22.323,2208841779,627323,2,1.18359,-0.03442,0.44019,-11.405,10.321,-0.557
2026-06-01 14:48:22.523,2208841979,627523,1,0.14087,0.02026,1.42017,-11.664,14.359,-1.847
2026-06-01 14:48:22.523,2208841979,627523,2,1.06152,-0.07373,0.43945,-14.16,-5.031,4.183
2026-06-01 14:48:22.723,2208842179,627723,1,0.12622,0.01733,1.32642,28.756,-31.191,9.618
2026-06-01 14:48:22.723,2208842179,627723,2,1.00879,0.01147,0.29907,-9.809,-60.718,-4.183
2026-06-01 14:48:22.923,2208842379,627923,1,0.38135,0.10205,0.81592,29.176,-60.198,0.076
2026-06-01 14:48:22.923,2208842379,627923,2,0.71069,-0.0437,0.04102,-19.649,-47.214,-9.809
2026-06-01 14:48:22.123,2208841579,628123,1,0.38428,0.14331,0.53516,26.496,-48.626,12.45
2026-06-01 14:48:22.123,2208841579,628123,2,0.78564,-0.03613,-0.08447,16.26,-35.214,1.313
2026-06-01 14:48:23.323,2208842779,628323,1,0.74487,0.27319,0.7627,16.0,-24.336,4.053
2026-06-01 14:48:23.323,2208842779,628323,2,1.24048,-0.05615,-0.1333,13.084,-16.221,-3.076
2026-06-01 14:48:23.523,2208842979,628523,1,0.72729,0.31445,0.78271,-0.618,11.366,3.351
2026-06-01 14:48:23.523,2208842979,628523,2,1.02197,0.02515,-0.23145,58.725,-12.672,18.458
2026-06-01 14:48:23.723,2208843179,628723,1,0.77222,0.2832,0.77637,-6.855,-11.145,-3.84
2026-06-01 14:48:23.723,2208843179,628723,2,1.00146,-0.16748,-0.24438,-45.519,-23.557,-0.763
2026-06-01 14:48:23.923,2208843379,628923,1,0.73096,0.2854,0.80127,-2.382,4.893,3.16
2026-06-01 14:48:23.923,2208843379,628923,2,1.05664,-0.0437,-0.17065,14.786,20.206,8.695
2026-06-01 14:48:23.123,2208842579,629123,1,0.64917,0.19116,0.7124,-20.076,59.863,4.527
2026-06-01 14:48:23.123,2208842579,629123,2,0.92725,-0.05908,-0.02856,1.84,56.328,0.71
2026-06-01 14:48:24.323,2208843779,629323,1,0.22388,0.05347,0.65649,-36.695,80.221,-3.756
2026-06-01 14:48:24.323,2208843779,629323,2,0.63989,-0.04346,0.04443,22.817,80.519,13.42
2026-06-01 14:48:24.523,2208843979,629523,1,0.12085,0.01758,1.09229,-8.916,30.771,3.763
2026-06-01 14:48:24.523,2208843979,629523,2,0.85718,-0.07373,0.30469,-2.779,22.626,5.519
2026-06-01 14:48:24.723,2208844179,629723,1,0.29175,0.06348,1.3584,-5.008,-11.229,-6.221
2026-06-01 14:48:24.723,2208844179,629723,2,1.24731,-0.10278,0.49683,-15.443,0.427,3.305
2026-06-01 14:48:24.923,2208844379,629923,1,0.31812,0.04321,1.4248,-10.412,8.725,3.092
2026-06-01 14:48:24.923,2208844379,629923,2,1.22168,-0.04883,0.51196,-0.771,10.206,2.511
2026-06-01 14:48:24.123,2208843579,630123,1,0.21704,-0.04761,1.04565,1.733,12.466,-4.382
2026-06-01 14:48:24.123,2208843579,630123,2,0.82031,-0.08496,0.38037,7.443,7.977,-10.046
2026-06-01 14:48:25.323,2208844779,630323,1,0.07764,0.0144,1.09546,0.168,-4.298,-5.893
2026-06-01 14:48:25.323,2208844779,630323,2,1.09009,-0.1001,0.54395,-5.458,-27.855,-4.748
2026-06-01 14:48:25.523,2208844979,630523,1,0.49438,0.15601,1.26343,-8.351,36.244,13.382
2026-06-01 14:48:25.523,2208844979,630523,2,1.07129,0.00537,0.33813,3.603,44.763,6.695
2026-06-01 14:48:25.723,2208845179,630723,1,0.06641,-0.06982,1.20386,-7.618,13.664,-8.366
2026-06-01 14:48:25.723,2208845179,630723,2,0.94141,-0.06494,0.48315,-7.282,14.412,-10.626
2026-06-01 14:48:25.923,2208845379,630923,1,-0.04419,-0.10303,1.25122,15.534,-20.687,4.878
2026-06-01 14:48:25.923,2208845379,630923,2,0.75342,-0.00073,0.3999,-8.252,-40.634,-0.206
2026-06-01 14:48:25.123,2208844579,631123,1,0.19604,-0.06885,0.84863,38.763,-57.641,15.26
2026-06-01 14:48:25.123,2208844579,631123,2,0.77783,-0.02002,0.04297,-10.931,-70.0,-6.687
2026-06-01 14:48:26.323,2208845779,631323,1,0.31812,0.08789,0.8208,26.588,-76.641,5.038
2026-06-01 14:48:26.323,2208845779,631323,2,0.91846,-0.02881,-0.02661,-11.008,-63.931,-9.0
2026-06-01 14:48:26.523,2208845979,631523,1,0.71069,0.2644,0.80322,9.336,-28.214,-9.611
2026-06-01 14:48:26.523,2208845979,631523,2,1.02734,0.01904,-0.21362,-7.13,-17.511,2.763
2026-06-01 14:48:26.723,2208846179,631723,1,0.83789,0.24023,0.75293,3.359,-7.137,-1.229
2026-06-01 14:48:26.723,2208846179,631723,2,1.04053,0.02441,-0.23511,0.122,-2.176,-1.008
2026-06-01 14:48:26.923,2208846379,631923,1,0.71997,0.23901,0.82275,-0.168,3.817,-6.099
2026-06-01 14:48:26.923,2208846379,631923,2,1.03223,-0.03247,-0.19922,-0.573,5.969,0.863
2026-06-01 14:48:26.123,2208845579,632123,1,0.73535,0.23853,0.79736,-2.885,14.725,1.107
2026-06-01 14:48:26.123,2208845579,632123,2,1.03052,-0.02295,-0.22437,1.87,12.275,1.366
2026-06-01 14:48:27.323,2208846779,632323,1,0.71118,0.23608,0.81738,-7.496,21.313,2.275
2026-06-01 14:48:27.323,2208846779,632323,2,1.06079,-0.02856,-0.14063,1.863,22.573,3.748
2026-06-01 14:48:27.523,2208846979,632523,1,0.56445,0.17456,0.87231,-27.313,52.092,-2.336
2026-06-01 14:48:27.523,2208846979,632523,2,0.9353,-0.03589,0.13525,-18.366,52.794,5.153
2026-06-01 14:48:27.723,2208847179,632723,1,0.1189,-0.01904,0.78296,-33.695,82.053,-5.183
2026-06-01 14:48:27.723,2208847179,632723,2,0.58594,-0.03931,0.09814,3.74,68.908,0.786
2026-06-01 14:48:27.923,2208847379,632923,1,0.09058,-0.01587,1.09473,-11.527,34.626,11.779
2026-06-01 14:48:27.923,2208847379,632923,2,0.87036,0.02637,0.31812,29.008,31.023,-1.099
2026-06-01 14:48:27.123,2208846579,633123,1,0.09644,0.00562,1.20386,-8.405,3.427,-1.885
2026-06-01 14:48:27.123,2208846579,633123,2,0.93506,0.0127,0.45752,-13.221,-12.305,5.046
2026-06-01 14:48:28.323,2208847779,633323,1,0.22168,0.03003,1.29907,6.985,-19.099,3.176
2026-06-01 14:48:28.323,2208847779,633323,2,1.19995,-0.08032,0.42944,5.855,-17.038,-0.183
2026-06-01 14:48:28.523,2208847979,633523,1,0.26147,0.05029,1.1604,-5.351,-4.336,2.206
2026-06-01 14:48:28.523,2208847979,633523,2,1.05713,0.00488,0.39136,8.779,8.87,4.634
2026-06-01 14:48:28.723,2208848179,633723,1,0.28223,0.00293,1.14453,-11.389,14.511,-6.511
2026-06-01 14:48:28.723,2208848179,633723,2,0.96069,0.00342,0.36743,-11.107,22.809,-7.405
2026-06-01 14:48:28.923,2208848379,633923,1,0.14209,-0.04053,1.09521,-3.916,15.374,-8.466
2026-06-01 14:48:28.923,2208848379,633923,2,0.89038,-0.00659,0.41919,-6.412,19.008,-0.595
2026-06-01 14:48:28.123,2208847579,634123,1,0.06299,-0.0105,1.40161,-3.969,15.641,-5.687
2026-06-01 14:48:28.123,2208847579,634123,2,1.06567,0.02148,0.63281,-8.611,14.13,0.588
2026-06-01 14:48:29.323,2208848779,634323,1,0.01147,-0.18945,1.34766,2.038,-18.13,-14.229
2026-06-01 14:48:29.323,2208848779,634323,2,0.92847,-0.11841,0.53394,-9.405,-24.763,-5.198
2026-06-01 14:48:29.523,2208848979,634523,1,0.07422,-0.01929,1.19653,34.122,-61.084,-1.718
2026-06-01 14:48:29.523,2208848979,634523,2,0.9729,-0.00635,0.21338,-49.611,-85.076,-1.702
2026-06-01 14:48:29.723,2208849179,634723,1,0.36914,0.05566,0.68652,41.26,-58.107,2.702
2026-06-01 14:48:29.723,2208849179,634723,2,0.70288,-0.05615,0.02295,0.977,-49.16,-8.496
2026-06-01 14:48:29.923,2208849379,634923,1,0.51123,0.14233,0.6897,18.412,-34.069,1.26
2026-06-01 14:48:29.923,2208849379,634923,2,0.89673,-0.03687,-0.0647,7.122,-22.076,-9.13
2026-06-01 14:48:29.123,2208848579,635123,1,0.73169,0.25269,0.84692,3.29,-22.29,-1.321
2026-06-01 14:48:29.123,2208848579,635123,2,1.01147,-0.02271,-0.15918,27.29,6.145,6.435
2026-06-01 14:48:30.323,2208849779,635323,1,0.71997,0.31274,0.81714,-10.092,-1.916,-13.427
2026-06-01 14:48:30.323,2208849779,635323,2,1.10571,-0.03516,-0.15112,39.183,-31.863,9.809
2026-06-01 14:48:30.523,2208849979,635523,1,0.72412,0.28564,0.76343,-1.496,5.115,17.557
2026-06-01 14:48:30.523,2208849979,635523,2,1.07397,0.0105,-0.22949,-82.099,-1.55,-31.069
2026-06-01 14:48:30.723,2208850179,635723,1,0.57129,0.30737,0.72583,-21.237,79.252,21.84
2026-06-01 14:48:30.723,2208850179,635723,2,0.91772,0.13916,-0.13867,43.794,93.267,6.802
2026-06-01 14:48:30.923,2208850379,635923,1,0.1123,-0.04712,0.6626,-54.87,72.458,-45.206
2026-06-01 14:48:30.923,2208850379,635923,2,0.41699,-0.19971,0.05078,-46.282,86.565,21.382
2026-06-01 14:48:30.123,2208849579,636123,1,-0.03296,-0.13672,1.0708,-8.405,38.802,15.863
2026-06-01 14:48:30.123,2208849579,636123,2,0.7915,-0.13916,0.55078,17.527,11.695,3.099
2026-06-01 14:48:31.323,2208850779,636323,1,0.04077,-0.00391,1.30542,7.855,-13.977,3.84
2026-06-01 14:48:31.323,2208850779,636323,2,1.08569,-0.03198,0.56104,-1.0,-19.573,7.802
2026-06-01 14:48:31.523,2208850979,636523,1,0.19385,-0.04077,1.33447,6.397,-28.695,-15.947
2026-06-01 14:48:31.523,2208850979,636523,2,1.13525,-0.12524,0.49487,-16.908,-28.29,1.893
2026-06-01 14:48:31.723,2208851179,636723,1,0.42554,-0.08618,1.39502,12.916,-13.695,-8.29
2026-06-01 14:48:31.723,2208851179,636723,2,1.25635,-0.21533,0.41699,3.878,-3.519,-13.344
2026-06-01 14:48:31.923,2208851379,636923,1,0.18384,0.0481,0.88574,11.351,8.42,9.252
2026-06-01 14:48:31.923,2208851379,636923,2,0.73169,-0.02637,0.18604,1.618,-11.366,-5.802
2026-06-01 14:48:31.123,2208850579,637123,1,0.44189,-0.0415,0.94043,12.221,1.74,-8.977
2026-06-01 14:48:31.123,2208850579,637123,2,1.02515,0.01831,0.3374,2.779,-5.679,-4.527
2026-06-01 14:48:32.323,2208851779,637323,1,0.47583,0.16162,1.30542,6.756,6.679,3.725
2026-06-01 14:48:32.323,2208851779,637323,2,1.22339,-0.02295,0.22705,9.565,32.977,4.237
2026-06-01 14:48:32.523,2208851979,637523,1,0.2561,0.1416,1.19629,-3.641,43.618,8.885
2026-06-01 14:48:32.523,2208851979,637523,2,0.95654,-0.0542,0.50195,1.336,33.84,-3.931
2026-06-01 14:48:32.723,2208852179,637723,1,-0.06055,-0.09692,1.25659,6.458,-5.198,15.328
2026-06-01 14:48:32.723,2208852179,637723,2,0.90674,0.09766,0.40845,18.885,-36.611,3.702
2026-06-01 14:48:32.923,2208852379,637923,1,0.20752,0.06812,1.00562,45.221,-72.656,10.275
2026-06-01 14:48:32.923,2208852379,637923,2,0.71655,-0.04077,0.0647,7.481,-72.038,7.084
2026-06-01 14:48:32.123,2208851579,638123,1,0.44971,0.15918,0.65039,33.863,-87.382,21.168
2026-06-01 14:48:32.123,2208851579,638123,2,0.9353,-0.03271,-0.05713,33.702,-49.87,2.832
2026-06-01 14:48:33.323,2208852779,638323,1,0.7749,0.29785,0.73779,6.947,-28.985,-6.359
2026-06-01 14:48:33.323,2208852779,638323,2,1.09009,-0.01758,-0.18872,-33.71,-12.443,-7.74
2026-06-01 14:48:33.523,2208852979,638523,1,0.71265,0.26733,0.78418,-12.435,-3.855,-14.565
2026-06-01 14:48:33.523,2208852979,638523,2,1.01929,-0.02661,-0.22363,-16.84,2.107,4.87
2026-06-01 14:48:33.723,2208853179,638723,1,0.79004,0.2832,0.78296,-9.511,12.511,-1.061
2026-06-01 14:48:33.723,2208853179,638723,2,1.07739,-0.00806,-0.21582,1.649,13.626,4.618
2026-06-01 14:48:33.923,2208853379,638923,1,0.64502,0.2666,0.77661,-25.382,69.282,4.122
2026-06-01 14:48:33.923,2208853379,638923,2,0.98096,0.00024,-0.0105,1.038,61.618,6.489
2026-06-01 14:48:33.123,2208852579,639123,1,0.14551,0.00073,0.79419,-41.145,75.336,-20.55
2026-06-01 14:48:33.123,2208852579,639123,2,0.62183,-0.07568,0.18848,-9.992,68.427,4.038
2026-06-01 14:48:34.323,2208853779,639323,1,-0.00146,-0.1084,1.03174,-10.061,48.0,2.16
2026-06-01 14:48:34.323,2208853779,639323,2,0.72949,-0.04028,0.30688,26.382,35.641,-7.015
2026-06-01 14:48:34.523,2208853979,639523,1,0.11499,0.03149,1.31396,-2.84,-7.969,-6.611
2026-06-01 14:48:34.523,2208853979,639523,2,1.16577,0.03125,0.50562,22.092,-0.374,0.893
2026-06-01 14:48:34.723,2208854179,639723,1,0.13989,0.00073,1.21484,2.466,-4.885,2.191
2026-06-01 14:48:34.723,2208854179,639723,2,1.03125,-0.03052,0.41699,-5.298,-8.71,4.252
2026-06-01 14:48:34.923,2208854379,639923,1,0.07813,0.04736,1.30762,3.099,0.313,3.427
2026-06-01 14:48:34.923,2208854379,639923,2,1.13672,-0.00659,0.38354,-3.74,-15.481,3.893
2026-06-01 14:48:34.123,2208853579,640123,1,0.20142,0.00024,1.08301,-0.427,8.038,1.466
2026-06-01 14:48:34.123,2208853579,640123,2,0.9834,0.03076,0.35181,-4.374,12.786,-3.733
2026-06-01 14:48:35.323,2208854779,640323,1,0.13403,0.01782,1.34399,4.74,18.718,-6.42
2026-06-01 14:48:35.323,2208854779,640323,2,0.95508,-0.00391,0.4502,-5.779,8.71,-0.382
2026-06-01 14:48:35.523,2208854979,640523,1,0.12744,0.01636,0.94189,16.924,-14.679,-1.031
2026-06-01 14:48:35.523,2208854979,640523,2,0.83911,0.02319,0.35449,-4.878,-1.916,-10.763
2026-06-01 14:48:35.723,2208855179,640723,1,0.05444,0.10571,0.93726,-0.496,0.481,-11.183
2026-06-01 14:48:35.723,2208855179,640723,2,0.81177,-0.00586,0.36768,-4.634,7.0,1.916
2026-06-01 14:48:35.923,2208855379,640923,1,0.08496,0.07764,1.03735,-4.878,6.947,-2.802
2026-06-01 14:48:35.923,2208855379,640923,2,0.88501,0.0105,0.44482,-14.046,12.458,5.427
2026-06-01 14:48:35.123,2208854579,641123,1,0.14966,0.05933,1.58105,-8.26,-6.962,-7.336
2026-06-01 14:48:35.123,2208854579,641123,2,1.24072,0.00952,0.67871,1.389,7.305,-2.031
2026-06-01 14:48:36.323,2208855779,641323,1,0.02637,-0.07349,1.32788,10.282,-23.137,7.328
2026-06-01 14:48:36.323,2208855779,641323,2,0.92017,0.00757,0.44849,-7.71,-49.382,1.099
2026-06-01 14:48:36.523,2208855979,641523,1,0.33667,0.11768,1.06567,32.13,-62.023,9.427
2026-06-01 14:48:36.523,2208855979,641523,2,1.01758,-0.03345,0.09009,-17.664,-71.702,-1.29
2026-06-01 14:48:36.723,2208856179,641723,1,0.50024,0.16211,0.76904,18.244,-40.504,2.847
2026-06-01 14:48:36.723,2208856179,641723,2,0.82422,-0.04785,-0.05493,-8.977,-25.603,2.763
2026-06-01 14:48:36.923,2208856379,641923,1,0.39087,0.11182,0.59448,10.321,-24.16,0.573
2026-06-01 14:48:36.923,2208856379,641923,2,0.80835,-0.00317,-0.06421,15.328,-22.282,-13.603
2026-06-01 14:48:36.123,2208855579,642123,1,0.6062,0.27808,0.87256,-11.015,6.084,-11.565
2026-06-01 14:48:36.123,2208855579,642123,2,0.91748,-0.03345,-0.21362,-1.237,-6.71,-3.336
2026-06-01 14:48:37.323,2208856779,642323,1,0.6604,0.25488,0.84375,12.557,-4.137,0.802
2026-06-01 14:48:37.323,2208856779,642323,2,1.03491,-0.02808,-0.13818,6.29,-7.359,-3.275
2026-06-01 14:48:37.523,2208856979,642523,1,0.73438,0.33081,0.80005,2.359,5.031,2.267
2026-06-01 14:48:37.523,2208856979,642523,2,1.06128,0.01392,-0.20264,10.382,6.87,5.939
2026-06-01 14:48:37.723,2208857179,642723,1,0.6709,0.24878,0.75293,-22.237,35.046,-4.145
2026-06-01 14:48:37.723,2208857179,642723,2,0.97998,-0.02563,-0.07935,-1.672,47.397,8.588
2026-06-01 14:48:37.923,2208857379,642923,1,0.24951,0.06128,0.61987,-32.29,90.885,2.656
2026-06-01 14:48:37.923,2208857379,642923,2,0.64038,-0.12451,0.04004,-17.42,69.878,7.191
2026-06-01 14:48:37.123,2208856579,643123,1,0.09863,-0.00366,1.07324,-10.298,45.298,11.443
2026-06-01 14:48:37.123,2208856579,643123,2,0.95605,-0.04785,0.24194,12.573,44.13,5.229
2026-06-01 14:48:38.323,2208857779,643323,1,0.1897,-0.021,1.2561,-4.58,1.198,-5.214
2026-06-01 14:48:38.323,2208857779,643323,2,1.07397,-0.05957,0.41187,18.87,4.748,-3.397
2026-06-01 14:48:38.523,2208857979,643523,1,0.23535,0.08374,1.49194,4.344,-12.985,-7.496
2026-06-01 14:48:38.523,2208857979,643523,2,1.38892,0.00903,0.52344,-4.237,1.153,-0.695
2026-06-01 14:48:38.723,2208858179,643723,1,0.1875,0.00854,1.1355,-7.336,15.053,-10.679
2026-06-01 14:48:38.723,2208858179,643723,2,0.8374,-0.07983,0.36938,-8.756,6.603,-0.092
2026-06-01 14:48:38.923,2208858379,643923,1,0.33374,0.03369,1.19922,-14.626,-5.962,-11.466
2026-06-01 14:48:38.923,2208858379,643923,2,1.09888,-0.15747,0.37793,-4.527,10.092,-6.481
2026-06-01 14:48:38.123,2208857579,644123,1,0.17456,0.00439,1.20093,-9.641,16.115,-7.725
2026-06-01 14:48:38.123,2208857579,644123,2,0.96021,-0.02905,0.49756,-0.344,8.382,-0.473
2026-06-01 14:48:39.323,2208858779,644323,1,0.03369,0.04956,1.18945,-17.718,16.221,2.679
2026-06-01 14:48:39.323,2208858779,644323,2,0.97656,-0.04346,0.35962,-3.137,20.519,7.351
2026-06-01 14:48:39.523,2208858979,644523,1,0.05029,-0.02222,1.28833,-8.748,4.84,3.718
2026-06-01 14:48:39.523,2208858979,644523,2,0.99561,0.05737,0.56836,2.924,12.053,8.099
2026-06-01 14:48:39.723,2208859179,644723,1,-0.11914,-0.16919,1.1709,0.076,3.885,2.496
2026-06-01 14:48:39.723,2208859179,644723,2,0.62134,-0.04663,0.42749,-5.504,-28.443,3.389
2026-06-01 14:48:39.923,2208859379,644923,1,0.0144,-0.04272,0.90552,45.817,-76.336,3.313
2026-06-01 14:48:39.923,2208859379,644923,2,0.75757,-0.09644,0.15576,-19.466,-96.168,-1.511
2026-06-01 14:48:39.123,2208858579,645123,1,0.42041,0.1189,0.81128,34.924,-75.672,14.916
2026-06-01 14:48:39.123,2208858579,645123,2,0.99121,0.05371,0.03564,8.863,-73.42,-7.313
2026-06-01 14:48:40.323,2208859779,645323,1,0.64819,0.18628,0.82129,-8.328,-26.053,-13.214
2026-06-01 14:48:40.323,2208859779,645323,2,1.05811,-0.01221,-0.02612,-0.947,-18.137,9.634
2026-06-01 14:48:40.523,2208859979,645523,1,0.63525,0.19507,0.8562,3.725,-3.595,-2.229
2026-06-01 14:48:40.523,2208859979,645523,2,1.03369,-0.00415,-0.21704,-1.458,-1.023,1.031
2026-06-01 14:48:40.723,2208860179,645723,1,0.7395,0.25415,0.81274,1.87,-3.511,-5.687
2026-06-01 14:48:40.723,2208860179,645723,2,1.06274,-0.02515,-0.17017,-5.046,4.817,1.756
2026-06-01 14:48:40.923,2208860379,645923,1,0.72925,0.28101,0.78687,-4.351,26.42,5.771
2026-06-01 14:48:40.923,2208860379,645923,2,1.09131,0.00439,-0.07544,18.557,34.328,7.534
2026-06-01 14:48:40.123,2208859579,646123,1,0.42993,0.11743,0.87109,-35.511,65.107,-6.794
2026-06-01 14:48:40.123,2208859579,646123,2,0.87476,-0.01953,0.09937,-24.527,69.061,3.038
2026-06-01 14:48:41.323,2208860779,646323,1,0.14355,-0.05322,0.84521,-32.519,65.55,-8.725
2026-06-01 14:48:41.323,2208860779,646323,2,0.70996,-0.14282,0.25879,18.336,43.29,-4.809
2026-06-01 14:48:41.523,2208860979,646523,1,0.12939,-0.03516,1.07617,0.176,18.29,6.809
2026-06-01 14:48:41.523,2208860979,646523,2,0.95679,0.00244,0.36108,16.718,-1.023,2.771
2026-06-01 14:48:41.723,2208861179,646723,1,0.13965,0.03052,1.29541,1.489,4.832,6.985
2026-06-01 14:48:41.723,2208861179,646723,2,1.08252,0.07324,0.43311,9.58,-5.504,5.244
2026-06-01 14:48:41.923,2208861379,646923,1,0.19604,0.05127,1.23145,5.397,0.183,-2.901
2026-06-01 14:48:41.923,2208861379,646923,2,1.06104,0.03369,0.36743,-3.809,-11.046,-6.679
2026-06-01 14:48:41.123,2208860579,647123,1,0.06689,-0.00854,1.31152,2.794,2.458,-2.298
2026-06-01 14:48:41.123,2208860579,647123,2,1.15405,0.00806,0.37891,-8.679,-2.008,2.74
2026-06-01 14:48:42.323,2208861779,647323,1,0.16748,0.03589,1.16235,-7.008,14.809,-1.366
2026-06-01 14:48:42.323,2208861779,647323,2,1.13184,0.0459,0.49121,-3.916,23.786,1.885
2026-06-01 14:48:42.523,2208861979,647523,1,-0.0459,-0.03394,1.3833,-11.183,12.756,-8.42
2026-06-01 14:48:42.523,2208861979,647523,2,0.98535,0.0127,0.57153,-18.626,4.557,4.344
2026-06-01 14:48:42.723,2208862179,647723,1,0.0022,-0.09229,1.31372,16.534,-26.237,2.977
2026-06-01 14:48:42.723,2208862179,647723,2,0.94604,-0.0249,0.42798,5.359,-37.962,4.252
2026-06-01 14:48:42.923,2208862379,647923,1,0.22729,0.05444,1.08911,32.855,-70.176,3.489
2026-06-01 14:48:42.923,2208862379,647923,2,0.85449,-0.04297,0.12329,-17.145,-64.183,0.122
2026-06-01 14:48:42.123,2208861579,648123,1,0.3584,0.10913,0.66016,30.008,-59.267,-1.183
2026-06-01 14:48:42.123,2208861579,648123,2,0.75439,-0.05103,-0.03174,-6.244,-54.634,0.382
2026-06-01 14:48:43.323,2208862779,648323,1,0.71509,0.20239,0.677,5.794,-48.794,-11.618
2026-06-01 14:48:43.323,2208862779,648323,2,1.15088,-0.0686,-0.08569,-3.802,-46.244,-17.771
2026-06-01 14:48:43.523,2208862979,648523,1,0.73193,0.27393,0.81543,21.45,7.649,16.336
2026-06-01 14:48:43.523,2208862979,648523,2,1.02173,-0.04224,-0.26025,13.115,0.458,-3.817
2026-06-01 14:48:43.723,2208863179,648723,1,0.75098,0.28149,0.83276,-4.656,-1.397,-3.771
2026-06-01 14:48:43.723,2208863179,648723,2,1.02563,-0.04761,-0.26929,30.725,-20.244,-1.763
2026-06-01 14:48:43.923,2208863379,648923,1,0.74756,0.30664,0.75781,4.45,5.298,-4.26
2026-06-01 14:48:43.923,2208863379,648923,2,1.0769,-0.0127,-0.21484,24.748,22.893,7.069
2026-06-01 14:48:43.123,2208862579,649123,1,0.67017,0.24756,0.7605,-26.336,54.824,0.198
2026-06-01 14:48:43.123,2208862579,649123,2,0.87549,-0.02441,-0.07373,-5.962,67.588,7.863
2026-06-01 14:48:44.323,2208863779,649323,1,0.2085,0.03174,0.61133,-35.466,86.664,5.397
2026-06-01 14:48:44.323,2208863779,649323,2,0.5752,-0.06079,0.06982,-9.107,53.267,10.13
2026-06-01 14:48:44.523,2208863979,649523,1,0.15796,-0.02368,1.00415,-7.382,26.985,0.565
2026-06-01 14:48:44.523,2208863979,649523,2,0.92017,-0.05566,0.16553,1.16,30.863,2.084
2026-06-01 14:48:44.723,2208864179,649723,1,0.30103,0.0105,1.34814,-2.466,-11.763,-17.504
2026-06-01 14:48:44.723,2208864179,649723,2,1.29053,-0.13916,0.4624,-7.0,-9.481,3.71
2026-06-01 14:48:44.923,2208864379,649923,1,0.37549,0.09595,1.50317,0.679,3.504,-5.321
2026-06-01 14:48:44.923,2208864379,649923,2,1.20044,-0.10645,0.3623,-6.87,7.855,0.069
2026-06-01 14:48:44.123,2208863579,650123,1,0.22461,0.01733,1.05566,-3.061,4.626,-8.649
2026-06-01 14:48:44.123,2208863579,650123,2,0.8938,-0.04614,0.27905,-8.252,-3.802,-0.924
2026-06-01 14:48:45.323,2208864779,650323,1,0.33887,0.11377,1.09253,-1.855,-10.908,-13.069
2026-06-01 14:48:45.323,2208864779,650323,2,1.09888,-0.13184,0.34058,-7.817,-6.832,-0.305
2026-06-01 14:48:45.523,2208864979,650523,1,0.30859,0.01978,1.2207,-14.031,15.069,1.58
2026-06-01 14:48:45.523,2208864979,650523,2,1.052,-0.07324,0.28809,-0.42,2.282,-1.076
2026-06-01 14:48:45.723,2208865179,650723,1,0.4729,-0.12744,1.11816,-0.87,21.511,0.153
2026-06-01 14:48:45.723,2208865179,650723,2,1.03784,-0.03223,0.23462,32.359,56.176,-16.45
2026-06-01 14:48:45.923,2208865379,650923,1,0.08032,-0.03516,1.19287,-9.84,19.901,-12.076
2026-06-01 14:48:45.923,2208865379,650923,2,0.92773,-0.05933,0.45898,-9.756,18.221,-6.29
2026-06-01 14:48:45.123,2208864579,651123,1,-0.10278,-0.11499,1.23999,8.542,-22.122,1.13
2026-06-01 14:48:45.123,2208864579,651123,2,0.7915,,0.396,-11.977,-48.603,-2.023
2026-06-01 14:48:46.323,2208865779,651323,1,0.19116,0.10498,0.94141,37.969,-73.763,21.763
2026-06-01 14:48:46.323,2208865779,651323,2,0.90771,-0.00537,-0.06885,-14.527,-94.588,-12.489
2026-06-01 14:48:46.523,2208865979,651523,1,0.44409,0.16333,0.70435,5.947,-66.763,-10.702
2026-06-01 14:48:46.523,2208865979,651523,2,0.86328,-0.021,-0.08887,-18.519,-40.947,9.191
2026-06-01 14:48:46.723,2208866179,651723,1,0.67871,0.20068,0.7627,16.046,-48.908,-14.763
2026-06-01 14:48:46.723,2208866179,651723,2,1.12378,-0.35303,0.02148,-26.756,-47.084,-11.412
2026-06-01 14:48:46.923,2208866379,651923,1,0.771,0.27051,0.7395,-3.374,-20.809,-7.435
2026-06-01 14:48:46.923,2208866379,651923,2,1.0332,-0.01855,-0.27515,-35.298,-23.679,-6.901
2026-06-01 14:48:46.123,2208865579,652123,1,0.81348,0.31226,0.73145,-8.55,1.511,2.626
2026-06-01 14:48:46.123,2208865579,652123,2,1.05225,-0.05933,-0.26392,-8.099,3.748,2.695
2026-06-01 14:48:47.323,2208866779,652323,1,0.75708,0.25317,0.73267,-19.763,35.489,1.756
2026-06-01 14:48:47.323,2208866779,652323,2,0.96924,-0.0686,-0.2063,-17.557,25.87,-0.511
2026-06-01 14:48:47.523,2208866979,652523,1,0.41064,0.0708,0.66797,-14.336,77.435,13.901
2026-06-01 14:48:47.523,2208866979,652523,2,0.80762,-0.06323,0.0083,32.916,58.305,2.84
2026-06-01 14:48:47.753,2208867209,652753,1,0.26953,0.05933,0.90991,-19.115,59.641,-0.832
2026-06-01 14:48:47.753,2208867209,652753,2,0.91333,-0.04639,0.27466,24.405,59.947,0.198
2026-06-01 14:48:47.953,2208867409,652953,1,0.146,0.07495,1.20435,-15.305,26.824,-5.595
2026-06-01 14:48:47.953,2208867409,652953,2,0.97339,-0.04663,0.24438,-6.45,25.42,11.092
2026-06-01 14:48:47.153,2208866609,653153,1,0.17944,0.02417,1.3667,-31.214,-7.168,-5.076
2026-06-01 14:48:47.153,2208866609,653153,2,1.42114,0.14429,0.37769,-5.74,7.702,13.305
2026-06-01 14:48:48.353,2208867809,653353,1,0.10181,0.01489,1.30615,-5.382,37.237,15.359
2026-06-01 14:48:48.353,2208867809,653353,2,0.94019,-0.07642,0.54248,4.092,12.496,13.901
2026-06-01 14:48:48.553,2208868009,653553,1,0.10449,-0.08936,1.08691,3.893,9.458,4.351
2026-06-01 14:48:48.553,2208868009,653553,2,0.84619,-0.09521,0.5083,5.557,-0.626,-0.565
2026-06-01 14:48:48.753,2208868209,653753,1,0.04858,-0.04272,1.18164,8.382,15.634,-2.924
2026-06-01 14:48:48.753,2208868209,653753,2,0.83228,0.00122,0.57397,-6.16,7.366,-4.069
2026-06-01 14:48:48.953,2208868409,653953,1,0.02026,-0.08301,1.15381,-2.71,10.527,-12.122
2026-06-01 14:48:48.953,2208868409,653953,2,0.84155,-0.07959,0.54468,-7.023,2.916,-8.137
2026-06-01 14:48:48.153,2208867609,654153,1,0.04443,-0.03003,1.10425,3.534,4.366,1.611
2026-06-01 14:48:48.153,2208867609,654153,2,0.82983,-0.05029,0.55396,4.916,3.542,0.061
2026-06-01 14:48:49.353,2208868809,654353,1,-0.00122,-0.02686,1.10742,-2.053,6.336,-3.908
2026-06-01 14:48:49.353,2208868809,654353,2,0.79785,-0.00293,0.54712,-4.74,2.939,-1.298
2026-06-01 14:48:49.553,2208869009,654553,1,-0.00806,-0.02368,1.12085,-5.13,7.687,-2.382
2026-06-01 14:48:49.553,2208869009,654553,2,0.78857,-0.04199,0.58691,-6.695,2.519,-0.443
2026-06-01 14:48:49.753,2208869209,654753,1,-0.01807,-0.08911,1.11255,-6.061,5.908,6.351
2026-06-01 14:48:49.753,2208869209,654753,2,0.81079,-0.05957,0.56787,4.008,5.031,3.336
2026-06-01 14:48:49.953,2208869409,654953,1,-0.02173,-0.11499,1.0835,-6.702,10.985,7.58
2026-06-01 14:48:49.953,2208869409,654953,2,0.79346,-0.04248,0.60425,0.809,13.115,3.855
2026-06-01 14:48:49.153,2208868609,655153,1,-0.12256,-0.17017,1.10352,5.244,9.321,-0.237
2026-06-01 14:48:49.153,2208868609,655153,2,0.73413,-0.05176,0.64551,-0.046,4.916,3.038
2026-06-01 14:48:50.353,2208869809,655353,1,-0.07764,-0.0188,1.04248,27.099,7.443,19.71
2026-06-01 14:48:50.353,2208869809,655353,2,0.8335,0.02637,0.64648,-3.687,9.489,14.588
2026-06-01 14:48:50.553,2208870009,655553,1,-0.07056,-0.10254,1.19214,-17.122,7.252,0.397
2026-06-01 14:48:50.553,2208870009,655553,2,0.82959,-0.00684,0.69922,-0.519,16.29,5.092
2026-06-01 14:48:50.753,2208870209,655753,1,-0.16821,-0.18115,0.96313,-22.496,-0.664,-4.786
2026-06-01 14:48:50.753,2208870209,655753,2,0.5022,-0.073,0.5249,-4.015,-5.611,10.824
2026-06-01 14:48:50.953,2208870409,655953,1,-0.09741,-0.21509,1.06836,16.069,-22.786,-9.947
2026-06-01 14:48:50.953,2208870409,655953,2,0.875,0.00903,0.69434,-12.771,-25.565,-9.58
2026-06-01 14:48:50.153,2208869609,656153,1,0.04443,-0.19434,1.40991,-13.214,17.092,-16.794
2026-06-01 14:48:50.153,2208869609,656153,2,0.94287,-0.15503,0.8186,-3.351,34.634,-10.504
2026-06-01 14:48:51.353,2208870809,656353,1,-0.18774,-0.28589,1.32935,23.672,-24.656,1.702
2026-06-01 14:48:51.353,2208870809,656353,2,0.76611,-0.05737,0.65381,3.237,-68.595,-1.267
2026-06-01 14:48:51.553,2208871009,656553,1,0.06592,-0.10254,1.21191,46.985,-92.076,6.0
2026-06-01 14:48:51.553,2208871009,656553,2,0.97729,-0.04468,0.19263,-37.435,-116.939,-9.053
2026-06-01 14:48:51.753,2208871209,656753,1,0.30737,0.12817,0.49561,34.901,-67.229,11.137
2026-06-01 14:48:51.753,2208871209,656753,2,0.65576,-0.05542,-0.01099,-18.275,-77.237,-4.092
2026-06-01 14:48:51.953,2208871409,656953,1,0.65894,0.16089,0.7334,24.115,-33.137,2.267
2026-06-01 14:48:51.953,2208871409,656953,2,1.04395,-0.03979,-0.16748,5.527,-14.008,-18.191
2026-06-01 14:48:51.153,2208870609,657153,1,0.66821,0.30298,0.80542,13.244,4.115,6.595
2026-06-01 14:48:51.153,2208870609,657153,2,1.01855,-0.00903,-0.20703,10.664,3.13,3.229
2026-06-01 14:48:52.353,2208871809,657353,1,0.66919,0.25903,0.82153,8.55,-0.695,-4.595
2026-06-01 14:48:52.353,2208871809,657353,2,1.02881,-0.02441,-0.19971,5.107,-6.015,-3.076
2026-06-01 14:48:52.553,2208872009,657553,1,0.66919,0.29126,0.83179,0.84,-6.74,-3.031
2026-06-01 14:48:52.553,2208872009,657553,2,1.01538,-0.00879,-0.22729,-8.206,-15.977,-5.344
2026-06-01 14:48:52.753,2208872209,657753,1,0.7522,0.30249,0.76416,3.802,-15.206,1.824
2026-06-01 14:48:52.753,2208872209,657753,2,1.04126,0.02417,-0.28638,-3.221,-13.298,8.611
2026-06-01 14:48:52.953,2208872409,657953,1,0.81226,0.26782,0.74341,3.565,11.947,6.534
2026-06-01 14:48:52.953,2208872409,657953,2,1.00342,-0.00098,-0.28979,15.962,15.145,-1.641
2026-06-01 14:48:52.153,2208871609,658153,1,0.70972,0.3479,0.77222,3.443,25.076,-0.351
2026-06-01 14:48:52.153,2208871609,658153,2,1.0166,0.07178,-0.25781,0.595,10.985,-2.794
2026-06-01 14:48:53.353,2208872809,658353,1,0.65601,0.33081,0.83081,-12.107,6.092,-7.344
2026-06-01 14:48:53.353,2208872809,658353,2,0.96631,0.0498,-0.18384,-10.496,12.679,6.053
2026-06-01 14:48:53.553,2208873009,658553,1,0.72046,0.32153,0.84912,-18.817,-1.214,-10.038
2026-06-01 14:48:53.553,2208873009,658553,2,0.96777,-0.03345,-0.11841,-15.664,15.611,8.748
2026-06-01 14:48:53.753,2208873209,658753,1,0.67041,0.23145,0.87134,-15.786,1.237,-8.588
2026-06-01 14:48:53.753,2208873209,658753,2,0.99707,-0.1167,-0.15112,-16.237,2.275,9.534
2026-06-01 14:48:53.953,2208873409,658953,1,0.69775,0.23047,0.81299,-13.229,10.595,0.275
2026-06-01 14:48:53.953,2208873409,658953,2,1.09888,-0.1145,-0.10498,-13.748,22.947,8.305
2026-06-01 14:48:53.153,2208872609,659153,1,0.69751,0.04248,0.76489,-69.947,72.099,-24.046
2026-06-01 14:48:53.153,2208872609,659153,2,0.95654,-0.20825,-0.14648,-34.26,71.511,8.053
2026-06-01 14:48:54.353,2208873809,659353,1,0.23364,-0.12646,1.0542,-42.977,82.26,2.916
2026-06-01 14:48:54.353,2208873809,659353,2,0.9043,-0.19824,0.22607,-2.092,77.878,8.87
2026-06-01 14:48:54.553,2208874009,659553,1,0.05078,-0.25464,1.16724,-21.29,47.244,8.527
2026-06-01 14:48:54.553,2208874009,659553,2,0.82349,-0.20996,0.45679,13.13,45.466,-1.443
2026-06-01 14:48:54.753,2208874209,659753,1,-0.03955,-0.23633,1.13721,4.26,21.046,17.557
2026-06-01 14:48:54.753,2208874209,659753,2,0.80151,-0.12158,0.57959,18.046,13.26,-10.397
2026-06-01 14:48:54.953,2208874409,659953,1,-0.08984,-0.1582,1.10449,9.802,8.153,15.229
2026-06-01 14:48:54.953,2208874409,659953,2,0.79541,-0.02393,0.60132,13.603,5.122,-0.672
2026-06-01 14:48:54.153,2208873609,660153,1,-0.07373,-0.13281,1.09546,11.527,7.786,11.145
2026-06-01 14:48:54.153,2208873609,660153,2,0.75122,-0.01782,0.59277,5.832,2.153,-2.115
2026-06-01 14:48:55.353,2208874809,660353,1,-0.04224,-0.11719,1.10718,7.916,1.275,10.695
2026-06-01 14:48:55.353,2208874809,660353,2,0.81543,-0.01489,0.56519,14.168,0.863,-3.229
2026-06-01 14:48:55.553,2208875009,660553,1,0.00244,-0.10352,1.10254,-5.71,9.427,-1.374
2026-06-01 14:48:55.553,2208875009,660553,2,0.77686,-0.09229,0.56812,-2.351,12.458,7.298
2026-06-01 14:48:55.753,2208875209,660753,1,-0.11865,-0.22339,1.13647,-9.069,14.466,5.916
2026-06-01 14:48:55.753,2208875209,660753,2,0.72144,-0.03442,0.67798,11.412,11.229,7.802
2026-06-01 14:48:55.953,2208875409,660953,1,-0.23389,-0.2251,1.13428,21.29,-36.832,11.412
2026-06-01 14:48:55.953,2208875409,660953,2,0.69116,0.04541,0.59058,5.282,-42.84,7.847
2026-06-01 14:48:55.153,2208874609,661153,1,0.09204,0.03955,1.09766,12.328,-40.664,7.947
2026-06-01 14:48:55.153,2208874609,661153,2,0.96924,-0.02686,0.43726,-8.069,-39.969,6.45
2026-06-01 14:48:56.353,2208875809,661353,1,0.08374,0.02856,1.20654,37.565,-50.618,9.878
2026-06-01 14:48:56.353,2208875809,661353,2,0.85864,-0.04761,0.14526,-3.595,-70.603,-7.573
2026-06-01 14:48:56.553,2208876009,661553,1,0.47363,0.16406,0.90234,34.847,-66.275,5.183
2026-06-01 14:48:56.553,2208876009,661553,2,1.19604,0.04883,0.06055,-26.191,-44.099,-11.916
2026-06-01 14:48:56.753,2208876209,661753,1,0.4458,0.33521,0.85815,7.756,-69.527,-13.763
2026-06-01 14:48:56.753,2208876209,661753,2,1.04858,-0.00122,-0.07178,-60.435,-50.405,11.817
2026-06-01 14:48:56.953,2208876409,661953,1,0.69482,0.1355,0.78076,-33.122,-35.58,-37.687
2026-06-01 14:48:56.953,2208876409,661953,2,0.99902,-0.07446,-0.15405,-52.29,-18.74,7.267
2026-06-01 14:48:56.153,2208875609,662153,1,0.75439,0.27368,0.73779,-1.473,-17.076,-3.351
2026-06-01 14:48:56.153,2208875609,662153,2,1.02197,-0.06763,-0.28394,-15.656,-19.015,9.412
2026-06-01 14:48:57.353,2208876809,662353,1,0.87646,0.28491,0.65405,5.206,-3.061,4.389
2026-06-01 14:48:57.353,2208876809,662353,2,1.00977,-0.03589,-0.31421,1.244,-2.336,4.481
2026-06-01 14:48:57.553,2208877009,662553,1,0.83423,0.23779,0.70972,-14.496,-4.748,-15.641
2026-06-01 14:48:57.553,2208877009,662553,2,0.99976,-0.07813,-0.29663,-19.771,2.405,2.947
2026-06-01 14:48:57.753,2208877209,662753,1,0.80542,0.24023,0.71704,-4.733,-2.466,-8.893
2026-06-01 14:48:57.753,2208877209,662753,2,1.00854,-0.07959,-0.30029,-7.405,-1.87,1.878
2026-06-01 14:48:57.953,2208877409,662953,1,0.80298,0.27271,0.72192,-2.282,3.183,-4.405
2026-06-01 14:48:57.953,2208877409,662953,2,1.00366,-0.07104,-0.28247,2.603,6.847,1.534
2026-06-01 14:48:57.153,2208876609,663153,1,0.81885,0.28516,0.72241,2.618,11.42,3.672
2026-06-01 14:48:57.153,2208876609,663153,2,1.01904,-0.09473,-0.26855,12.695,12.55,-0.71
2026-06-01 14:48:58.353,2208877809,663353,1,0.81885,0.27368,0.69678,9.168,56.985,21.924
2026-06-01 14:48:58.353,2208877809,663353,2,1.06616,-0.08789,-0.18237,25.313,53.191,-5.115
2026-06-01 14:48:58.553,2208878009,663553,1,0.57178,0.25244,0.80542,-11.176,81.29,26.466
2026-06-01 14:48:58.553,2208878009,663553,2,1.0415,-0.04053,0.00781,47.817,51.817,6.824
2026-06-01 14:48:58.753,2208878209,663753,1,0.20874,0.04883,0.98389,-31.443,66.511,1.634
2026-06-01 14:48:58.753,2208878209,663753,2,0.96216,-0.02954,0.22998,24.153,69.107,7.565
2026-06-01 14:48:58.953,2208878409,663953,1,0.02466,0.04956,1.146,-16.374,61.214,1.603
2026-06-01 14:48:58.953,2208878409,663953,2,0.87939,-0.00757,0.41699,31.84,50.832,7.183
2026-06-01 14:48:58.153,2208877609,664153,1,-0.08228,-0.00024,1.25,1.031,14.878,4.863
2026-06-01 14:48:58.153,2208877609,664153,2,0.89624,-0.01367,0.48413,-12.137,-4.954,-0.115
2026-06-01 14:48:59.353,2208878809,664353,1,-0.06494,-0.00244,1.1311,2.015,11.802,4.756
2026-06-01 14:48:59.353,2208878809,664353,2,0.81812,0.02856,0.53979,9.191,6.008,-2.099
2026-06-01 14:48:59.553,2208879009,664553,1,-0.03906,-0.00415,1.10107,8.29,-7.534,0.183
2026-06-01 14:48:59.553,2208879009,664553,2,0.85425,0.0271,0.49048,-2.611,-9.595,-2.924
2026-06-01 14:48:59.753,2208879209,664753,1,-0.04346,0.06445,1.15942,7.641,-7.649,10.023
2026-06-01 14:48:59.753,2208879209,664753,2,0.92529,0.00635,0.44263,-4.931,-21.672,7.58
2026-06-01 14:48:59.953,2208879409,664953,1,0.07764,0.01978,1.09277,-5.84,-24.809,12.939
2026-06-01 14:48:59.953,2208879409,664953,2,0.94775,-0.00391,0.38892,-10.588,-24.0,12.969
2026-06-01 14:48:59.153,2208878609,665153,1,0.23682,-0.01709,1.05713,0.611,-5.214,-1.885
2026-06-01 14:48:59.153,2208878609,665153,2,0.96167,-0.10181,0.32715,-0.649,0.176,-2.038
2026-06-01 14:49:00.353,2208879809,665353,1,0.16919,0.07178,1.09302,5.344,20.481,5.756
2026-06-01 14:49:00.353,2208879809,665353,2,0.91406,-0.03833,0.34595,15.336,14.603,-4.145
2026-06-01 14:49:00.553,2208880009,665553,1,0.06958,0.09424,1.09961,4.695,25.069,2.397
2026-06-01 14:49:00.553,2208880009,665553,2,0.92847,0.04468,0.43359,12.107,18.511,-13.191
2026-06-01 14:49:00.753,2208880209,665753,1,-0.021,0.07617,1.09229,-5.641,19.931,-18.756
2026-06-01 14:49:00.753,2208880209,665753,2,0.86035,0.12158,0.46924,-10.244,19.092,-8.305
2026-06-01 14:49:00.953,2208880409,665953,1,-0.09766,0.0166,1.10034,-4.237,20.366,-25.153
2026-06-01 14:49:00.953,2208880409,665953,2,0.82227,0.09644,0.5481,-17.305,15.565,-13.924
2026-06-01 14:49:00.153,2208879609,666153,1,-0.15552,-0.05493,1.08521,-4.725,16.779,-31.763
2026-06-01 14:49:00.153,2208879609,666153,2,0.77588,0.06567,0.60815,-21.771,15.939,-14.626
2026-06-01 14:49:01.353,2208880809,666353,1,-0.22534,-0.06396,1.10718,-1.542,9.908,-21.603
2026-06-01 14:49:01.353,2208880809,666353,2,0.72705,0.05615,0.62817,-12.901,9.687,-3.55
2026-06-01 14:49:01.553,2208881009,666553,1,-0.22437,-0.08008,1.06055,-2.855,5.969,-14.122
2026-06-01 14:49:01.553,2208881009,666553,2,0.74268,0.02783,0.64893,-3.344,4.779,-1.634
2026-06-01 14:49:01.753,2208881209,666753,1,-0.31519,-0.07056,1.0647,-8.275,5.794,-1.122
2026-06-01 14:49:01.753,2208881209,666753,2,0.72046,0.10815,0.69482,1.534,3.809,4.55
2026-06-01 14:49:01.953,2208881409,666953,1,-0.36914,-0.05322,1.24097,17.0,-29.473,12.695
2026-06-01 14:49:01.953,2208881409,666953,2,0.73633,0.05981,0.62256,-10.939,-49.053,22.374
2026-06-01 14:49:01.153,2208880609,667153,1,-0.06201,-0.10718,1.05542,12.229,-66.565,1.924
2026-06-01 14:49:01.153,2208880609,667153,2,0.85522,-0.1377,0.4458,-13.595,-49.84,11.244
2026-06-01 14:49:02.353,2208881809,667353,1,0.36719,0.12354,0.92334,6.458,-33.45,8.847
2026-06-01 14:49:02.353,2208881809,667353,2,1.05835,-0.08594,0.24463,-4.992,-12.519,20.328
2026-06-01 14:49:02.553,2208882009,667553,1,0.18677,0.05151,1.0,-33.802,42.244,-2.855
2026-06-01 14:49:02.553,2208882009,667553,2,0.95898,-0.10913,0.35181,-1.092,52.473,14.321
2026-06-01 14:49:02.753,2208882209,667753,1,0.12964,-0.21436,1.07739,2.313,50.84,28.031
2026-06-01 14:49:02.753,2208882209,667753,2,0.79492,-0.01782,0.52197,44.473,60.221,-1.809
2026-06-01 14:49:02.953,2208882409,667953,1,-0.12354,-0.27759,0.89429,4.427,84.626,23.237
2026-06-01 14:49:02.953,2208882409,667953,2,0.4978,-0.21558,0.61719,39.282,59.053,-20.595
2026-06-01 14:49:02.153,2208881609,668153,1,-0.47607,0.00586,0.89673,46.672,108.84,58.656
2026-06-01 14:49:02.153,2208881609,668153,2,0.41772,0.37646,0.8252,61.664,71.42,-28.107
2026-06-01 14:49:03.353,2208882809,668353,1,-0.88867,0.05127,0.9397,-6.809,49.557,-6.473
2026-06-01 14:49:03.353,2208882809,668353,2,0.24023,0.4375,0.95166,-23.099,35.863,-3.298
2026-06-01 14:49:03.553,2208883009,668553,1,-0.7876,-0.03906,0.73291,15.237,30.595,3.725
2026-06-01 14:49:03.553,2208883009,668553,2,0.12036,0.39575,0.83252,0.763,5.336,-15.16
2026-06-01 14:49:03.753,2208883209,668753,1,-0.70654,0.02222,0.62256,6.435,5.443,-25.359
2026-06-01 14:49:03.753,2208883209,668753,2,0.11401,0.35718,0.86108,-2.137,14.71,-11.382
2026-06-01 14:49:03.953,2208883409,668953,1,-0.90967,0.06177,0.69263,-2.267,7.115,0.969
2026-06-01 14:49:03.953,2208883409,668953,2,0.05298,0.42529,0.95508,-7.359,-1.71,4.847
2026-06-01 14:49:03.153,2208882609,669153,1,-0.76025,-0.14429,0.58496,-23.87,-35.565,-6.084
2026-06-01 14:49:03.153,2208882609,669153,2,0.13892,0.19702,0.81543,2.244,-18.26,14.053
2026-06-01 14:49:04.353,2208883809,669353,1,-0.83252,0.0791,0.78662,-10.985,-17.359,15.099
2026-06-01 14:49:04.353,2208883809,669353,2,0.24512,0.46533,0.9519,-6.863,-22.802,26.038
2026-06-01 14:49:04.553,2208884009,669553,1,-0.91821,-0.02808,1.06641,-0.405,-57.115,2.771
2026-06-01 14:49:04.553,2208884009,669553,2,0.40771,0.44531,0.91797,-46.519,-80.237,23.687
2026-06-01 14:49:04.753,2208884209,669753,1,-0.44702,-0.14844,0.88599,41.786,-127.107,-6.672
2026-06-01 14:49:04.753,2208884209,669753,2,0.64673,-0.02637,0.40381,-36.176,-160.611,10.679
2026-06-01 14:49:04.953,2208884409,669953,1,0.15796,0.15381,0.73755,32.641,-149.13,4.779
2026-06-01 14:49:04.953,2208884409,669953,2,1.02734,-0.0957,0.04175,-87.519,-124.695,19.58
2026-06-01 14:49:04.153,2208883609,670153,1,0.625,0.2168,0.75122,13.802,-90.183,-5.412
2026-06-01 14:49:04.153,2208883609,670153,2,1.05029,0.03271,-0.25757,-46.267,-74.244,-4.008
2026-06-01 14:49:05.353,2208884809,670353,1,0.75317,0.32544,0.7439,-4.397,-3.16,-13.061
2026-06-01 14:49:05.353,2208884809,670353,2,1.07153,-0.03467,-0.30151,-18.962,-1.962,-5.214
2026-06-01 14:49:05.553,2208885009,670553,1,0.74585,0.34204,0.7981,0.282,21.672,7.847
2026-06-01 14:49:05.553,2208885009,670553,2,1.07031,-0.05811,-0.22632,21.153,22.405,0.473
2026-06-01 14:49:05.753,2208885209,670753,1,0.69922,0.32861,0.72681,6.802,89.58,35.695
2026-06-01 14:49:05.753,2208885209,670753,2,1.08765,-0.03296,0.03223,90.756,75.214,1.435
2026-06-01 14:49:05.953,2208885409,670953,1,0.1438,0.11475,0.67944,-29.595,158.382,-2.397
2026-06-01 14:49:05.953,2208885409,670953,2,0.82666,0.0188,0.19434,28.344,153.595,-17.504
2026-06-01 14:49:05.153,2208884609,671153,1,-0.44629,0.0332,0.90356,-14.511,146.817,-2.298
2026-06-01 14:49:05.153,2208884609,671153,2,0.44629,0.14185,0.65015,43.969,129.74,-28.641
2026-06-01 14:49:06.353,2208885809,671353,1,-0.91748,0.08447,1.06592,-6.374,56.115,3.076
2026-06-01 14:49:06.353,2208885809,671353,2,0.39404,0.37207,0.96875,10.855,51.107,-4.588
2026-06-01 14:49:06.553,2208886009,671553,1,-0.72681,-0.05298,0.80762,9.802,25.099,7.237
2026-06-01 14:49:06.553,2208886009,671553,2,0.20044,0.37842,0.86914,2.748,22.824,-10.779
2026-06-01 14:49:06.753,2208886209,671753,1,-0.76831,-0.0835,0.74707,17.267,5.718,-3.092
2026-06-01 14:49:06.753,2208886209,671753,2,0.09473,0.60083,1.01074,45.183,-27.557,22.893
2026-06-01 14:49:06.953,2208886409,671953,1,-0.93359,0.04297,0.82324,-2.176,-45.794,-19.702
2026-06-01 14:49:06.953,2208886409,671953,2,0.27466,0.48096,0.86328,0.252,-43.733,52.489
2026-06-01 14:49:06.153,2208885609,672153,1,-0.64355,-0.12598,0.89307,-27.595,-87.588,-46.397
2026-06-01 14:49:06.153,2208885609,672153,2,0.48193,0.24487,0.77148,-47.16,-62.763,37.908
2026-06-01 14:49:07.353,2208886809,672353,1,-0.25928,-0.24902,0.9209,-2.206,-81.145,-47.878
2026-06-01 14:49:07.353,2208886809,672353,2,0.69092,0.01636,0.59033,-50.817,-67.847,16.71
2026-06-01 14:49:07.553,2208887009,672553,1,0.06836,-0.0354,0.87549,23.267,-35.496,-15.672
2026-06-01 14:49:07.553,2208887009,672553,2,0.82861,0.01855,0.51758,-1.435,-20.847,6.244
2026-06-01 14:49:07.753,2208887209,672753,1,0.15771,0.14771,0.90723,-9.0,44.008,3.29
2026-06-01 14:49:07.753,2208887209,672753,2,0.8396,0.09546,0.43677,9.824,52.771,-21.87
2026-06-01 14:49:07.953,2208887409,672953,1,-0.21729,-0.16333,0.92358,4.053,92.786,8.855
2026-06-01 14:49:07.953,2208887409,672953,2,0.54175,0.03296,0.66211,27.374,66.679,-46.672
2026-06-01 14:49:07.153,2208886609,673153,1,-0.61523,0.05933,0.78052,16.099,103.122,43.023
2026-06-01 14:49:07.153,2208886609,673153,2,0.39551,0.50391,0.70923,52.969,64.641,-33.145
2026-06-01 14:49:08.353,2208887809,673353,1,-1.09644,-0.05444,0.86523,-17.16,40.595,2.412
2026-06-01 14:49:08.353,2208887809,673353,2,0.12012,0.65601,1.06445,16.038,20.542,8.298
2026-06-01 14:49:08.553,2208888009,673553,1,-0.77295,-0.14526,0.72925,4.58,-37.649,11.519
2026-06-01 14:49:08.553,2208888009,673553,2,0.26563,0.64551,0.87842,27.313,-41.481,26.565
2026-06-01 14:49:08.753,2208888209,673753,1,-0.97412,0.03027,0.97021,-3.511,-80.954,4.481
2026-06-01 14:49:08.753,2208888209,673753,2,0.40503,0.3728,0.73779,-55.076,-85.237,52.389
2026-06-01 14:49:08.953,2208888409,673953,1,-0.28613,-0.03662,0.79175,30.565,-147.412,25.511
2026-06-01 14:49:08.953,2208888409,673953,2,0.84521,0.06006,0.28662,-21.756,-152.55,70.672
2026-06-01 14:49:08.153,2208887609,674153,1,0.40356,0.1416,0.73193,3.42,-143.023,-9.763
2026-06-01 14:49:08.153,2208887609,674153,2,0.96655,-0.1582,-0.21411,-225.42,-145.015,-27.565
2026-06-01 14:49:09.353,2208888809,674353,1,0.62231,0.26196,0.82227,16.863,-45.115,-37.038
2026-06-01 14:49:09.353,2208888809,674353,2,0.94702,-0.25488,-0.09131,-28.954,-26.916,-7.267
2026-06-01 14:49:09.553,2208889009,674553,1,0.61743,0.35303,0.83301,7.0,-15.344,-6.382
2026-06-01 14:49:09.553,2208889009,674553,2,1.05054,0.0249,-0.31616,-25.382,-18.954,-8.863
2026-06-01 14:49:09.753,2208889209,674753,1,0.78613,0.34937,0.72559,21.962,8.824,18.198
2026-06-01 14:49:09.753,2208889209,674753,2,0.99854,0.02368,-0.32129,26.412,-0.221,-3.298
2026-06-01 14:49:09.953,2208889409,674953,1,0.91138,0.37549,0.63184,13.26,52.763,22.168
2026-06-01 14:49:09.953,2208889409,674953,2,1.1123,-0.00073,-0.2771,53.412,66.13,-14.435
2026-06-01 14:49:09.153,2208888609,675153,1,0.42041,0.26343,0.69629,-12.496,136.092,1.855
2026-06-01 14:49:09.153,2208888609,675153,2,0.89722,0.09766,0.08594,23.931,105.374,-14.061
2026-06-01 14:49:10.353,2208889809,675353,1,-0.0415,0.15845,0.89771,-29.702,140.099,-22.427
2026-06-01 14:49:10.353,2208889809,675353,2,0.76489,0.13281,0.35181,21.534,123.229,-37.908
2026-06-01 14:49:10.553,2208890009,675553,1,-0.5459,0.18506,0.92603,-11.466,123.763,-0.145
2026-06-01 14:49:10.553,2208890009,675553,2,0.51025,0.39355,0.65283,41.336,88.038,-33.534
2026-06-01 14:49:10.753,2208890209,675753,1,-0.91187,0.20581,0.87817,-1.649,72.389,0.924
2026-06-01 14:49:10.753,2208890209,675753,2,0.23462,0.52222,0.83032,-1.038,48.29,-14.389
2026-06-01 14:49:10.953,2208890409,675953,1,-0.78979,0.07007,0.66406,4.0,22.267,-1.542
2026-06-01 14:49:10.953,2208890409,675953,2,0.19507,0.49243,0.802,-1.336,20.206,-19.344
2026-06-01 14:49:10.153,2208889609,676153,1,-0.8479,0.08496,0.77734,17.099,4.305,-8.58
2026-06-01 14:49:10.153,2208889609,676153,2,0.07251,0.62329,0.9082,16.107,-25.153,-2.153
2026-06-01 14:49:11.353,2208890809,676353,1,-0.85596,0.14282,0.69434,-11.405,-47.031,-15.382
2026-06-01 14:49:11.353,2208890809,676353,2,0.22314,0.53345,0.82471,-20.603,-41.58,26.802
2026-06-01 14:49:11.553,2208891009,676553,1,-0.84302,0.00562,0.89404,-21.763,-82.786,-29.71
2026-06-01 14:49:11.553,2208891009,676553,2,0.37378,0.29004,0.79834,-30.969,-73.664,34.336
2026-06-01 14:49:11.753,2208891209,676753,1,-0.45581,0.0686,0.96875,-28.153,-134.847,-28.344
2026-06-01 14:49:11.753,2208891209,676753,2,0.67358,0.04712,0.47412,-72.13,-124.542,56.16
2026-06-01 14:49:11.953,2208891409,676953,1,0.23706,-0.08447,0.8667,31.557,-136.298,-32.115
2026-06-01 14:49:11.953,2208891409,676953,2,1.01245,0.05591,-0.05957,-100.924,-128.275,8.618
2026-06-01 14:49:11.153,2208890609,677153,1,0.69727,0.14063,0.76685,55.031,-54.023,11.252
2026-06-01 14:49:11.153,2208890609,677153,2,1.03784,0.10962,-0.01855,4.809,-26.504,-22.885
2026-06-01 14:49:12.353,2208891809,677353,1,0.72021,0.20703,0.82837,-4.496,4.771,-44.664
2026-06-01 14:49:12.353,2208891809,677353,2,1.06055,-0.05151,-0.10864,2.275,0.511,-10.305
2026-06-01 14:49:12.553,2208892009,677553,1,0.46924,0.34302,0.96216,-15.069,7.756,-18.901
2026-06-01 14:49:12.553,2208892009,677553,2,0.98047,-0.02686,-0.13721,-33.221,-0.565,16.924
2026-06-01 14:49:12.753,2208892209,677753,1,0.57495,0.21606,0.94019,-4.542,-7.611,-7.328
2026-06-01 14:49:12.753,2208892209,677753,2,1.00562,-0.0708,-0.13159,-9.076,7.267,1.641
2026-06-01 14:49:12.953,2208892409,677953,1,0.60278,0.16724,0.91162,6.817,1.107,-5.802
2026-06-01 14:49:12.953,2208892409,677953,2,1.02515,-0.06079,-0.13843,4.969,-2.099,-6.71
2026-06-01 14:49:12.153,2208891609,678153,1,0.57568,0.30005,0.92285,6.542,6.763,-5.611
2026-06-01 14:49:12.153,2208891609,678153,2,1.0083,-0.01563,-0.13623,1.26,-3.634,-0.229
2026-06-01 14:49:13.353,2208892809,678353,1,0.5415,0.30054,0.92505,-25.13,-1.328,-26.931
2026-06-01 14:49:13.353,2208892809,678353,2,1.01807,-0.00977,-0.12427,-13.824,-0.618,1.718
2026-06-01 14:49:13.553,2208893009,678553,1,0.53247,0.22705,0.94263,-4.069,-9.695,-16.931
2026-06-01 14:49:13.553,2208893009,678553,2,1.02148,-0.03271,-0.14893,-17.015,-4.679,1.557
2026-06-01 14:49:13.753,2208893209,678753,1,0.57959,0.28833,0.88818,-7.481,-11.664,-8.099
2026-06-01 14:49:13.753,2208893209,678753,2,1.0293,-0.04712,-0.16553,-8.893,-5.649,3.168
2026-06-01 14:49:13.953,2208893409,678953,1,0.62256,0.22144,0.87427,13.588,-7.122,18.794
2026-06-01 14:49:13.953,2208893409,678953,2,1.00366,-0.06128,-0.18066,23.374,-6.282,2.489
2026-06-01 14:49:13.153,2208892609,679153,1,0.65161,0.27124,0.8855,21.313,-4.061,24.42
2026-06-01 14:49:13.153,2208892609,679153,2,1.03198,-0.03809,-0.2063,20.389,-8.435,1.313
2026-06-01 14:49:14.353,2208893809,679353,1,0.66431,0.26025,0.84277,-7.702,-19.122,-1.374
2026-06-01 14:49:14.353,2208893809,679353,2,1.02051,-0.05469,-0.25684,-21.351,-12.542,11.435
2026-06-01 14:49:14.553,2208894009,679553,1,0.76343,0.24023,0.78687,-22.405,-20.015,-16.122
2026-06-01 14:49:14.553,2208894009,679553,2,1.01758,-0.12866,-0.28711,-27.756,-7.382,13.321
2026-06-01 14:49:14.753,2208894209,679753,1,0.82104,0.22266,0.7644,-33.069,8.588,-46.313
2026-06-01 14:49:14.753,2208894209,679753,2,1.04004,-0.14063,-0.31104,-39.092,11.237,2.374
2026-06-01 14:49:14.953,2208894409,679953,1,0.68506,0.27393,0.80322,-1.45,13.695,-21.679
