datetime,epoch_ms,ts_millis,mpu_id,ax,ay,az,gx,gy,gz
2026-06-01 14:49:59.104,2208938560,725104,1,0.18262,0.89673,-0.26611,0.13,1.954,-0.626
2026-06-01 14:49:59.104,2208938560,725104,2,,,,,,
2026-06-01 14:50:00.304,2208939760,725304,1,0.18164,0.85986,-0.25757,1.893,2.252,-0.237
2026-06-01 14:50:00.304,2208939760,725304,2,,,,,,
2026-06-01 14:50:00.504,2208939960,725504,1,0.18433,0.89819,-0.26392,0.527,1.74,-0.603
2026-06-01 14:50:00.504,2208939960,725504,2,,,,,,
2026-06-01 14:50:00.704,2208940160,725704,1,0.1853,0.89746,-0.26587,0.26,1.802,-0.641
2026-06-01 14:50:00.704,2208940160,725704,2,,,,,,
2026-06-01 14:50:00.904,2208940360,725904,1,0.18774,0.89722,-0.27051,0.023,1.969,-0.542
2026-06-01 14:50:00.904,2208940360,725904,2,,,,,,
2026-06-01 14:50:00.104,2208939560,726104,1,0.18628,0.89355,-0.2688,0.351,1.725,-0.443
2026-06-01 14:50:00.104,2208939560,726104,2,,,,,,
2026-06-01 14:50:01.304,2208940760,726304,1,0.18018,0.8916,-0.27271,0.397,1.817,-0.649
2026-06-01 14:50:01.304,2208940760,726304,2,,,,,,
2026-06-01 14:50:01.504,2208940960,726504,1,0.1792,0.90161,-0.27393,0.153,1.916,-0.42
2026-06-01 14:50:01.504,2208940960,726504,2,,,,,,
2026-06-01 14:50:01.704,2208941160,726704,1,0.18677,0.89746,-0.27808,0.191,1.74,-0.618
2026-06-01 14:50:01.704,2208941160,726704,2,,,,,,
2026-06-01 14:50:01.904,2208941360,726904,1,0.18677,0.89771,-0.26831,0.122,1.588,-0.328
2026-06-01 14:50:01.904,2208941360,726904,2,,,,,,
2026-06-01 14:50:01.104,2208940560,727104,1,0.17822,0.8938,-0.26392,0.176,1.878,-0.412
2026-06-01 14:50:01.104,2208940560,727104,2,,,,,,
2026-06-01 14:50:02.304,2208941760,727304,1,0.18481,0.89868,-0.26123,0.206,1.786,-0.519
2026-06-01 14:50:02.304,2208941760,727304,2,,,,,,
2026-06-01 14:50:02.504,2208941960,727504,1,0.18335,0.90234,-0.2605,0.076,1.878,-0.74
2026-06-01 14:50:02.504,2208941960,727504,2,,,,,,
2026-06-01 14:50:02.704,2208942160,727704,1,0.18481,0.89819,-0.26172,0.076,1.916,-0.504
2026-06-01 14:50:02.704,2208942160,727704,2,,,,,,
2026-06-01 14:50:02.904,2208942360,727904,1,0.18604,0.89648,-0.26929,0.214,1.977,-0.42
2026-06-01 14:50:02.904,2208942360,727904,2,,,,,,
2026-06-01 14:50:02.104,2208941560,728104,1,0.18579,0.90039,-0.26196,0.237,1.924,-0.595
2026-06-01 14:50:02.104,2208941560,728104,2,,,,,,
2026-06-01 14:50:03.304,2208942760,728304,1,0.18872,0.89258,-0.26611,0.244,1.771,-0.496
2026-06-01 14:50:03.304,2208942760,728304,2,,,,,,
2026-06-01 14:50:03.504,2208942960,728504,1,0.17773,0.89966,-0.26245,0.351,1.794,-0.473
2026-06-01 14:50:03.504,2208942960,728504,2,,,,,,
2026-06-01 14:50:03.704,2208943160,728704,1,0.17944,0.90234,-0.26953,-0.099,1.985,-0.344
2026-06-01 14:50:03.704,2208943160,728704,2,,,,,,
2026-06-01 14:50:03.904,2208943360,728904,1,0.18799,0.89697,-0.25269,0.183,1.947,-0.565
2026-06-01 14:50:03.904,2208943360,728904,2,,,,,,
2026-06-01 14:50:03.104,2208942560,729104,1,0.18774,0.9043,-0.26831,0.115,1.969,-0.611
2026-06-01 14:50:03.104,2208942560,729104,2,,,,,,
2026-06-01 14:50:04.304,2208943760,729304,1,0.18262,0.90356,-0.25537,0.191,1.992,-0.55
2026-06-01 14:50:04.304,2208943760,729304,2,,,,,,
2026-06-01 14:50:04.504,2208943960,729504,1,0.18262,0.90112,-0.25171,0.252,1.786,-0.328
2026-06-01 14:50:04.504,2208943960,729504,2,,,,,,
2026-06-01 14:50:04.704,2208944160,729704,1,0.18457,0.90137,-0.27124,0.389,1.901,-0.55
2026-06-01 14:50:04.704,2208944160,729704,2,,,,,,
2026-06-01 14:50:04.904,2208944360,729904,1,0.18457,0.89771,-0.25439,0.366,1.634,-0.58
2026-06-01 14:50:04.904,2208944360,729904,2,,,,,,
2026-06-01 14:50:04.104,2208943560,730104,1,0.18359,0.90869,-0.26416,0.74,1.771,-0.588
2026-06-01 14:50:04.104,2208943560,730104,2,,,,,,
2026-06-01 14:50:05.304,2208944760,730304,1,0.18018,0.90308,-0.25391,-0.053,1.84,-0.489
2026-06-01 14:50:05.304,2208944760,730304,2,,,,,,
2026-06-01 14:50:05.504,2208944960,730504,1,0.18774,0.90649,-0.26611,0.565,1.626,-0.618
2026-06-01 14:50:05.504,2208944960,730504,2,,,,,,
2026-06-01 14:50:05.704,2208945160,730704,1,0.17896,0.89307,-0.25537,0.214,1.969,-0.344
2026-06-01 14:50:05.704,2208945160,730704,2,,,,,,
2026-06-01 14:50:05.904,2208945360,730904,1,0.18579,0.90503,-0.25562,0.359,1.985,-0.374
2026-06-01 14:50:05.904,2208945360,730904,2,,,,,,
2026-06-01 14:50:05.104,2208944560,731104,1,0.18237,0.90332,-0.25952,0.481,1.725,-0.336
2026-06-01 14:50:05.104,2208944560,731104,2,,,,,,
2026-06-01 14:50:06.304,2208945760,731304,1,0.18726,0.89917,-0.26294,-0.015,1.611,-0.466
2026-06-01 14:50:06.304,2208945760,731304,2,,,,,,
2026-06-01 14:50:06.504,2208945960,731504,1,0.18188,0.90308,-0.24976,0.336,1.947,-0.359
2026-06-01 14:50:06.504,2208945960,731504,2,,,,,,
2026-06-01 14:50:06.704,2208946160,731704,1,0.17725,0.90454,-0.25415,0.336,1.908,-0.595
2026-06-01 14:50:06.704,2208946160,731704,2,,,,,,
2026-06-01 14:50:06.904,2208946360,731904,1,0.18237,0.90552,-0.25806,0.092,1.786,-0.557
2026-06-01 14:50:06.904,2208946360,731904,2,,,,,,
2026-06-01 14:50:07.247,2208946703,732247,1,0.18408,0.90771,-0.25073,0.405,1.756,-0.618
2026-06-01 14:50:07.247,2208946703,732247,2,,,,,,
2026-06-01 14:50:07.447,2208946903,732447,1,0.18433,0.89893,-0.2478,0.336,1.863,-0.626
2026-06-01 14:50:07.447,2208946903,732447,2,,,,,,
2026-06-01 14:50:07.647,2208947103,732647,1,0.17871,0.90747,-0.25464,0.198,1.809,-0.427
2026-06-01 14:50:07.647,2208947103,732647,2,,,,,,
2026-06-01 14:50:07.847,2208947303,732847,1,0.18579,0.89893,-0.2478,0.542,1.855,-0.45
2026-06-01 14:50:07.847,2208947303,732847,2,,,,,,
2026-06-01 14:50:07.047,2208946503,733047,1,0.18677,0.90356,-0.24976,-0.13,1.58,-0.618
2026-06-01 14:50:07.047,2208946503,733047,2,,,,,,
2026-06-01 14:50:08.247,2208947703,733247,1,0.18237,0.89893,-0.24805,0.382,1.832,-0.374
2026-06-01 14:50:08.247,2208947703,733247,2,,,,,,
2026-06-01 14:50:08.454,2208947910,733454,1,0.18188,0.90771,-0.25293,0.198,1.916,-0.588
2026-06-01 14:50:08.454,2208947910,733454,2,,,,,,
2026-06-01 14:50:08.654,2208948110,733654,1,0.18115,0.89893,-0.24536,0.321,1.969,-0.664
2026-06-01 14:50:08.654,2208948110,733654,2,,,,,,
2026-06-01 14:50:08.854,2208948310,733854,1,0.1792,0.90552,-0.25244,-0.168,1.901,-0.786
2026-06-01 14:50:08.854,2208948310,733854,2,,,,,,
2026-06-01 14:50:08.054,2208947510,734054,1,0.18237,0.90112,-0.25244,0.313,1.878,-0.496
2026-06-01 14:50:08.054,2208947510,734054,2,,,,,,
2026-06-01 14:50:09.254,2208948710,734254,1,0.17993,0.90576,-0.24731,0.046,1.817,-0.366
2026-06-01 14:50:09.254,2208948710,734254,2,,,,,,
2026-06-01 14:50:09.454,2208948910,734454,1,0.18433,0.90454,-0.25415,0.42,1.771,-0.573
2026-06-01 14:50:09.454,2208948910,734454,2,,,,,,
2026-06-01 14:50:09.654,2208949110,734654,1,0.18481,0.90918,-0.24976,0.42,1.641,-0.504
2026-06-01 14:50:09.654,2208949110,734654,2,,,,,,
2026-06-01 14:50:09.854,2208949310,734854,1,0.18579,0.90601,-0.25049,0.427,1.74,-0.534
2026-06-01 14:50:09.854,2208949310,734854,2,,,,,,
2026-06-01 14:50:09.054,2208948510,735054,1,0.18408,0.90112,-0.25732,0.29,1.977,-0.519
2026-06-01 14:50:09.054,2208948510,735054,2,,,,,,
2026-06-01 14:50:10.254,2208949710,735254,1,0.18628,0.90698,-0.24512,0.153,1.695,-0.542
2026-06-01 14:50:10.254,2208949710,735254,2,,,,,,
2026-06-01 14:50:10.454,2208949910,735454,1,0.18921,0.90234,-0.23999,0.321,1.87,-0.435
2026-06-01 14:50:10.454,2208949910,735454,2,,,,,,
2026-06-01 14:50:10.654,2208950110,735654,1,0.17725,0.90356,-0.24219,0.061,1.824,-0.481
2026-06-01 14:50:10.654,2208950110,735654,2,,,,,,
2026-06-01 14:50:10.854,2208950310,735854,1,0.18701,0.90405,-0.24194,0.45,1.84,-0.542
2026-06-01 14:50:10.854,2208950310,735854,2,,,,,,
2026-06-01 14:50:10.054,2208949510,736054,1,0.18164,0.90576,-0.25049,0.275,1.611,-0.58
2026-06-01 14:50:10.054,2208949510,736054,2,,,,,,
2026-06-01 14:50:11.254,2208950710,736254,1,0.18286,0.90649,-0.25244,0.305,1.87,-0.618
2026-06-01 14:50:11.254,2208950710,736254,2,,,,,,
2026-06-01 14:50:11.454,2208950910,736454,1,0.18091,0.90454,-0.2417,0.366,1.809,-0.649
2026-06-01 14:50:11.454,2208950910,736454,2,,,,,,
2026-06-01 14:50:11.654,2208951110,736654,1,0.18164,0.90234,-0.24438,0.008,1.87,-0.466
2026-06-01 14:50:11.654,2208951110,736654,2,,,,,,
2026-06-01 14:50:11.854,2208951310,736854,1,0.18042,0.90454,-0.24341,0.427,1.824,-0.504
2026-06-01 14:50:11.854,2208951310,736854,2,,,,,,
2026-06-01 14:50:11.054,2208950510,737054,1,0.18213,0.89868,-0.23999,0.061,1.878,-0.565
2026-06-01 14:50:11.054,2208950510,737054,2,,,,,,
2026-06-01 14:50:12.254,2208951710,737254,1,0.17749,0.90479,-0.24854,0.496,1.817,-0.611
2026-06-01 14:50:12.254,2208951710,737254,2,,,,,,
2026-06-01 14:50:12.454,2208951910,737454,1,0.18042,0.90918,-0.23901,0.366,1.916,-0.489
2026-06-01 14:50:12.454,2208951910,737454,2,,,,,,
2026-06-01 14:50:12.654,2208952110,737654,1,0.17773,0.91333,-0.23999,0.229,1.809,-0.588
2026-06-01 14:50:12.654,2208952110,737654,2,,,,,,
2026-06-01 14:50:12.854,2208952310,737854,1,0.18066,0.90552,-0.24438,0.29,1.847,-0.618
2026-06-01 14:50:12.854,2208952310,737854,2,,,,,,
2026-06-01 14:50:12.054,2208951510,738054,1,0.18555,0.90503,-0.25024,0.237,1.824,-0.397
2026-06-01 14:50:12.054,2208951510,738054,2,,,,,,
2026-06-01 14:50:13.254,2208952710,738254,1,0.18164,0.90894,-0.23511,0.26,1.855,-0.519
2026-06-01 14:50:13.254,2208952710,738254,2,,,,,,
2026-06-01 14:50:13.454,2208952910,738454,1,0.17944,0.90405,-0.23999,0.29,1.748,-0.603
2026-06-01 14:50:13.454,2208952910,738454,2,,,,,,
2026-06-01 14:50:13.654,2208953110,738654,1,0.18213,0.90894,-0.25684,0.206,1.763,-0.489
2026-06-01 14:50:13.654,2208953110,738654,2,,,,,,
2026-06-01 14:50:13.854,2208953310,738854,1,0.18042,0.91016,-0.2439,0.053,1.962,-0.573
2026-06-01 14:50:13.854,2208953310,738854,2,,,,,,
2026-06-01 14:50:13.054,2208952510,739054,1,0.18433,0.90698,-0.24072,0.435,1.771,-0.473
2026-06-01 14:50:13.054,2208952510,739054,2,,,,,,
2026-06-01 14:50:14.254,2208953710,739254,1,0.18164,0.90674,-0.2478,0.298,1.687,-0.58
2026-06-01 14:50:14.254,2208953710,739254,2,,,,,,
2026-06-01 14:50:14.454,2208953910,739454,1,0.1814,0.91187,-0.25171,0.26,1.939,-0.481
2026-06-01 14:50:14.454,2208953910,739454,2,,,,,,
2026-06-01 14:50:14.654,2208954110,739654,1,0.18091,0.90161,-0.24341,0.153,1.916,-0.382
2026-06-01 14:50:14.654,2208954110,739654,2,,,,,,
2026-06-01 14:50:14.854,2208954310,739854,1,0.18335,0.90869,-0.24487,0.473,1.832,-0.611
2026-06-01 14:50:14.854,2208954310,739854,2,,,,,,
2026-06-01 14:50:14.054,2208953510,740054,1,0.17773,0.90894,-0.24365,0.374,1.771,-0.527
2026-06-01 14:50:14.054,2208953510,740054,2,,,,,,
2026-06-01 14:50:15.254,2208954710,740254,1,0.18799,0.90894,-0.24023,0.053,1.794,-0.794
2026-06-01 14:50:15.254,2208954710,740254,2,,,,,,
2026-06-01 14:50:15.454,2208954910,740454,1,0.18872,0.90356,-0.23804,0.313,1.901,-0.489
2026-06-01 14:50:15.454,2208954910,740454,2,,,,,,
2026-06-01 14:50:15.747,2208955203,740747,1,0.18091,0.90479,-0.24365,0.336,1.962,-0.42
2026-06-01 14:50:15.747,2208955203,740747,2,,,,,,
2026-06-01 14:50:15.947,2208955403,740947,1,0.18359,0.90332,-0.24121,0.412,1.969,-0.527
2026-06-01 14:50:15.947,2208955403,740947,2,,,,,,
2026-06-01 14:50:15.147,2208954603,741147,1,0.18433,0.91797,-0.24487,0.389,1.718,-0.504
2026-06-01 14:50:15.147,2208954603,741147,2,,,,,,
2026-06-01 14:50:16.347,2208955803,741347,1,0.18408,0.90942,-0.23438,0.252,1.901,-0.466
2026-06-01 14:50:16.347,2208955803,741347,2,,,,,,
2026-06-01 14:50:16.547,2208956003,741547,1,0.18115,0.90918,-0.23315,-0.107,1.84,-0.527
2026-06-01 14:50:16.547,2208956003,741547,2,,,,,,
2026-06-01 14:50:16.747,2208956203,741747,1,0.18384,0.90796,-0.2417,0.206,1.71,-0.527
2026-06-01 14:50:16.747,2208956203,741747,2,,,,,,
2026-06-01 14:50:16.947,2208956403,741947,1,0.17969,0.91064,-0.24634,0.115,1.802,-0.489
2026-06-01 14:50:16.947,2208956403,741947,2,,,,,,
2026-06-01 14:50:16.147,2208955603,742147,1,0.18066,0.90381,-0.23413,0.275,1.71,-0.527
2026-06-01 14:50:16.147,2208955603,742147,2,,,,,,
2026-06-01 14:50:17.347,2208956803,742347,1,0.18799,0.90527,-0.2478,0.282,1.847,-0.374
2026-06-01 14:50:17.347,2208956803,742347,2,,,,,,
2026-06-01 14:50:17.547,2208957003,742547,1,0.18237,0.9126,-0.23413,0.26,1.817,-0.595
2026-06-01 14:50:17.547,2208957003,742547,2,,,,,,
2026-06-01 14:50:17.747,2208957203,742747,1,0.18237,0.90918,-0.24512,0.351,1.74,-0.321
2026-06-01 14:50:17.747,2208957203,742747,2,,,,,,
2026-06-01 14:50:17.947,2208957403,742947,1,0.18115,0.91113,-0.23267,0.237,2.038,-0.412
2026-06-01 14:50:17.947,2208957403,742947,2,,,,,,
2026-06-01 14:50:18.546,2208958002,743546,1,0.17847,0.91162,-0.23145,0.336,1.809,-0.588
2026-06-01 14:50:18.546,2208958002,743546,2,,,,,,
2026-06-01 14:50:18.746,2208958202,743746,1,0.18018,0.90649,-0.23926,0.473,1.893,-0.656
2026-06-01 14:50:18.746,2208958202,743746,2,,,,,,
2026-06-01 14:50:18.946,2208958402,743946,1,0.17944,0.91431,-0.23975,0.275,1.748,-0.588
2026-06-01 14:50:18.946,2208958402,743946,2,,,,,,
2026-06-01 14:50:18.146,2208957602,744146,1,0.18237,0.90845,-0.23047,0.45,1.863,-0.565
2026-06-01 14:50:18.146,2208957602,744146,2,,,,,,
2026-06-01 14:50:19.346,2208958802,744346,1,0.18726,0.90918,-0.22778,0.229,1.679,-0.672
2026-06-01 14:50:19.346,2208958802,744346,2,,,,,,
2026-06-01 14:50:19.546,2208959002,744546,1,0.17847,0.9043,-0.23706,0.45,1.924,-0.359
2026-06-01 14:50:19.546,2208959002,744546,2,,,,,,
2026-06-01 14:50:19.746,2208959202,744746,1,0.18164,0.90503,-0.23608,0.328,1.969,-0.58
2026-06-01 14:50:19.746,2208959202,744746,2,,,,,,
2026-06-01 14:50:19.946,2208959402,744946,1,0.18262,0.90723,-0.23584,0.244,1.695,-0.58
2026-06-01 14:50:19.946,2208959402,744946,2,,,,,,
2026-06-01 14:50:19.146,2208958602,745146,1,0.18359,0.91089,-0.23071,0.565,1.626,-0.214
2026-06-01 14:50:19.146,2208958602,745146,2,,,,,,
2026-06-01 14:50:20.386,2208959842,745386,1,0.18481,0.90845,-0.24341,0.229,1.947,-0.557
2026-06-01 14:50:20.386,2208959842,745386,2,,,,,,
2026-06-01 14:50:20.586,2208960042,745586,1,0.17798,0.90796,-0.23389,0.458,1.756,-0.611
2026-06-01 14:54:17.032,2209196488,14032,1,0.82446,0.08008,0.54272,7.58,-1.313,-7.382
2026-06-01 14:54:17.032,2209196488,14032,2,1.02905,-0.01733,-0.15625,-15.046,-6.504,1.611
2026-06-01 14:54:28.151,2209207607,25151,1,0.94482,0.07007,0.54004,-2.168,-0.145,1.122
2026-06-01 14:54:28.151,2209207607,25151,2,1.02539,-0.03809,-0.14893,-1.015,0.229,0.87
2026-06-01 14:54:28.351,2209207807,25351,1,0.96948,-0.0022,0.55225,-8.885,-4.298,-4.947
2026-06-01 14:54:28.351,2209207807,25351,2,1.01758,-0.02368,-0.18848,1.779,4.321,2.374
2026-06-01 14:54:28.551,2209208007,25551,1,0.99023,0.06836,0.4812,-2.374,1.87,-2.229
2026-06-01 14:54:28.551,2209208007,25551,2,1.01978,-0.0293,-0.20215,3.466,1.863,4.863
2026-06-01 14:54:29.751,2209209207,25751,1,0.96631,0.06885,0.53662,0.992,7.382,-1.511
2026-06-01 14:54:29.751,2209209207,25751,2,0.96826,0.01953,-0.20728,-10.809,-8.71,6.069
2026-06-01 14:54:29.951,2209209407,25951,1,0.97314,0.02759,0.521,2.45,6.733,4.267
2026-06-01 14:54:29.951,2209209407,25951,2,0.99438,0.00122,-0.22021,-42.26,-21.878,-4.534
2026-06-01 14:54:29.151,2209208607,26151,1,0.96826,0.01489,0.49561,3.847,-5.885,-3.076
2026-06-01 14:54:29.151,2209208607,26151,2,1.0061,-0.01025,-0.17847,-27.504,-20.939,0.466
2026-06-01 14:54:29.351,2209208807,26351,1,0.9563,0.02686,0.53198,-6.962,-10.634,-9.687
2026-06-01 14:54:29.351,2209208807,26351,2,1.03271,-0.01758,-0.19238,-11.565,-4.443,0.947
2026-06-01 14:54:29.551,2209209007,26551,1,0.98364,0.03027,0.49683,-7.679,0.435,-6.71
2026-06-01 14:54:29.551,2209209007,26551,2,1.03076,-0.01416,-0.22754,-8.0,-1.038,2.809
2026-06-01 14:54:30.751,2209210207,26751,1,1.01685,0.06519,0.44653,-17.679,4.832,-0.099
2026-06-01 14:54:30.751,2209210207,26751,2,1.02588,-0.01099,-0.24243,-18.313,2.863,13.992
2026-06-01 14:54:30.951,2209210407,26951,1,0.96777,0.00073,0.51123,-28.145,7.305,-8.366
2026-06-01 14:54:30.951,2209210407,26951,2,1.00122,-0.04736,-0.24487,-34.695,0.786,11.382
2026-06-01 14:54:30.151,2209209607,27151,1,0.97266,-0.00439,0.52026,-23.573,2.435,-5.649
2026-06-01 14:54:30.151,2209209607,27151,2,1.02295,-0.07178,-0.25,-23.198,-3.718,6.939
2026-06-01 14:54:30.351,2209209807,27351,1,0.98389,-0.00708,0.52222,-13.74,-1.481,-6.42
2026-06-01 14:54:30.351,2209209807,27351,2,0.99365,-0.08569,-0.27026,-4.275,3.977,2.328
2026-06-01 14:54:30.551,2209210007,27551,1,1.01685,0.01978,0.46118,-7.878,3.504,-3.992
2026-06-01 14:54:30.551,2209210007,27551,2,1.01709,-0.05933,-0.26074,-9.809,10.763,5.534
2026-06-01 14:54:31.751,2209211207,27751,1,0.99976,0.04028,0.48364,-11.672,18.29,-9.924
2026-06-01 14:54:31.751,2209211207,27751,2,1.0127,-0.05249,-0.17285,-5.985,30.893,8.84
2026-06-01 14:54:31.951,2209211407,27951,1,0.89185,-0.02393,0.69116,-28.115,7.763,-9.45
2026-06-01 14:54:31.951,2209211407,27951,2,1.02295,-0.13062,-0.07129,-1.214,15.885,2.191
2026-06-01 14:54:31.151,2209210607,28151,1,0.89307,-0.05518,0.63525,-18.321,-3.664,-6.092
2026-06-01 14:54:31.151,2209210607,28151,2,1.03125,-0.1084,-0.09424,-23.924,-11.351,6.168
2026-06-01 14:54:31.351,2209210807,28351,1,0.95801,-0.00952,0.55566,-4.344,-3.298,-3.015
2026-06-01 14:54:31.351,2209210807,28351,2,1.03662,-0.08179,-0.20142,-23.053,-9.168,2.863
2026-06-01 14:54:31.551,2209211007,28551,1,0.97949,-0.01782,0.53589,0.504,-0.26,-2.924
2026-06-01 14:54:31.551,2209211007,28551,2,1.02002,-0.1001,-0.18677,-18.046,-2.046,1.214
2026-06-01 14:54:32.751,2209212207,28751,1,0.9231,-0.02808,0.57324,1.817,7.634,-4.443
2026-06-01 14:54:32.751,2209212207,28751,2,1.02881,-0.1145,-0.146,4.908,7.786,-1.145
2026-06-01 14:54:32.951,2209212407,28951,1,0.93115,-0.00391,0.60889,2.267,2.908,-4.947
2026-06-01 14:54:32.951,2209212407,28951,2,1.0249,-0.10352,-0.13892,0.679,1.466,-3.641
2026-06-01 14:54:32.151,2209211607,29151,1,0.91528,0.00488,0.56201,0.153,1.672,-0.557
2026-06-01 14:54:32.151,2209211607,29151,2,1.00977,-0.08154,-0.14966,-3.893,-2.969,-0.664
2026-06-01 14:54:32.351,2209211807,29351,1,0.93311,-0.00195,0.56226,-2.611,-0.695,-2.695
2026-06-01 14:54:32.351,2209211807,29351,2,1.01953,-0.06934,-0.18848,-7.427,1.244,1.214
2026-06-01 14:54:32.551,2209212007,29551,1,0.9624,0.02075,0.56299,-6.603,-2.557,-6.641
2026-06-01 14:54:32.551,2209212007,29551,2,1.02856,-0.07861,-0.14453,-37.939,-10.794,-3.229
2026-06-01 14:54:33.751,2209213207,29751,1,0.96265,0.01855,0.5564,-2.42,1.702,-1.901
2026-06-01 14:54:33.751,2209213207,29751,2,1.02905,-0.05322,-0.19019,-5.015,-0.42,0.221
2026-06-01 14:54:33.951,2209213407,29951,1,0.95068,0.02026,0.57104,-3.389,1.527,-3.359
2026-06-01 14:54:33.951,2209213407,29951,2,1.02271,-0.07178,-0.1687,-12.229,-1.969,1.435
2026-06-01 14:54:33.151,2209212607,30151,1,0.96289,0.02979,0.54688,-1.206,0.817,-1.603
2026-06-01 14:54:33.151,2209212607,30151,2,1.02075,-0.05835,-0.14014,0.008,0.618,1.038
2026-06-01 14:54:33.351,2209212807,30351,1,0.95435,0.00879,0.55786,0.084,-3.13,-1.313
2026-06-01 14:54:33.351,2209212807,30351,2,1.03003,-0.06934,-0.16626,-1.718,0.115,-2.481
2026-06-01 14:54:33.551,2209213007,30551,1,0.95996,0.04663,0.53516,2.855,0.229,-1.122
2026-06-01 14:54:33.551,2209213007,30551,2,1.02393,-0.06006,-0.17529,0.534,-2.611,-0.458
2026-06-01 14:54:34.751,2209214207,30751,1,0.96582,0.03711,0.52246,8.511,0.718,4.382
2026-06-01 14:54:34.751,2209214207,30751,2,1.01733,-0.05835,-0.20532,4.954,-2.107,-2.939
2026-06-01 14:54:34.951,2209214407,30951,1,0.98633,0.04346,0.52588,14.267,8.107,4.443
2026-06-01 14:54:34.951,2209214407,30951,2,1.05151,-0.04028,-0.14941,16.313,2.611,-5.229
2026-06-01 14:54:34.151,2209213607,31151,1,0.91797,0.07227,0.55518,33.26,12.496,9.557
2026-06-01 14:54:34.151,2209213607,31151,2,0.97559,0.01978,-0.1189,39.214,8.45,-9.55
2026-06-01 14:54:34.351,2209213807,31351,1,0.95044,0.10205,0.55786,23.71,1.076,4.977
2026-06-01 14:54:34.351,2209213807,31351,2,1.00977,-0.00977,-0.12451,27.443,-4.344,0.344
2026-06-01 14:54:34.551,2209214007,31551,1,0.95435,0.06738,0.55835,22.237,-1.855,21.687
2026-06-01 14:54:34.551,2209214007,31551,2,1.03516,-0.00269,-0.15869,34.908,-0.519,2.779
2026-06-01 14:54:35.751,2209215207,31751,1,0.99292,-0.01221,0.53149,14.198,12.107,16.786
2026-06-01 14:54:35.751,2209215207,31751,2,1.03735,-0.01074,-0.18945,51.901,25.298,1.939
2026-06-01 14:54:35.951,2209215407,31951,1,0.94727,-0.0144,0.55981,2.122,7.641,3.817
2026-06-01 14:54:35.951,2209215407,31951,2,1.02612,-0.03271,-0.14258,-1.191,5.275,4.031
2026-06-01 14:54:35.151,2209214607,32151,1,0.92407,-0.02441,0.5625,-16.939,0.718,-7.611
2026-06-01 14:54:35.151,2209214607,32151,2,1.02515,-0.0459,-0.15552,-32.458,-9.13,7.947
2026-06-01 14:54:35.351,2209214807,32351,1,0.94678,-0.01758,0.57227,-10.137,3.145,-7.221
2026-06-01 14:54:35.351,2209214807,32351,2,1.03931,-0.09155,-0.10254,-9.443,4.817,-2.618
2026-06-01 14:54:35.551,2209215007,32551,1,0.90918,-0.00952,0.57056,-0.809,-2.16,-1.855
2026-06-01 14:54:35.551,2209215007,32551,2,1.01074,-0.04761,-0.10938,-24.198,-14.542,4.802
2026-06-01 14:54:36.751,2209216207,32751,1,0.99463,0.02905,0.54272,7.191,-0.137,-2.382
2026-06-01 14:54:36.751,2209216207,32751,2,1.09155,-0.18042,-0.17432,-28.588,-18.634,7.099
2026-06-01 14:54:36.951,2209216407,32951,1,0.89746,0.03394,0.58325,17.298,3.282,-1.618
2026-06-01 14:54:36.951,2209216407,32951,2,1.02759,-0.07495,-0.23511,-68.496,-33.519,-13.519
2026-06-01 14:54:36.151,2209215607,33151,1,0.93774,0.06763,0.55688,-9.695,-0.618,-2.824
2026-06-01 14:54:36.151,2209215607,33151,2,1.03271,-0.04712,-0.2312,-22.588,-10.87,-5.412
2026-06-01 14:54:36.351,2209215807,33351,1,0.97388,0.07715,0.5437,3.305,2.206,-3.16
2026-06-01 14:54:36.351,2209215807,33351,2,1.0498,-0.07837,-0.13623,-0.802,1.382,0.863
2026-06-01 14:54:36.551,2209216007,33551,1,0.91406,0.05029,0.60962,5.634,3.45,6.237
2026-06-01 14:54:36.551,2209216007,33551,2,1.00244,-0.01025,-0.13989,-19.42,-9.618,-4.336
2026-06-01 14:54:37.751,2209217207,33751,1,0.91772,-0.03809,0.65576,3.924,20.008,7.939
2026-06-01 14:54:37.751,2209217207,33751,2,0.99414,0.07227,-0.06592,72.412,39.366,11.435
2026-06-01 14:54:37.951,2209217407,33951,1,0.98315,0.06079,0.55957,-4.237,-0.763,-5.221
2026-06-01 14:54:37.951,2209217407,33951,2,1.01758,-0.04614,-0.09521,49.015,22.779,5.282
2026-06-01 14:54:37.151,2209216607,34151,1,0.93213,0.04126,0.5874,0.313,-1.702,-6.74
2026-06-01 14:54:37.151,2209216607,34151,2,1.03052,-0.03882,-0.09692,-5.557,-2.038,-1.74
2026-06-01 14:54:37.351,2209216807,34351,1,0.93604,0.07349,0.56274,-8.588,-3.42,-6.374
2026-06-01 14:54:37.351,2209216807,34351,2,1.03467,-0.02466,-0.16162,-28.74,-11.489,2.031
2026-06-01 14:54:37.551,2209217007,34551,1,0.94238,0.04053,0.56274,-12.115,2.817,-4.069
2026-06-01 14:54:37.551,2209217007,34551,2,1.03198,-0.05444,-0.1355,1.466,7.435,3.374
2026-06-01 14:54:38.751,2209218207,34751,1,0.94873,0.03101,0.55933,-3.412,4.336,-0.45
2026-06-01 14:54:38.751,2209218207,34751,2,1.03076,-0.05981,-0.12793,3.321,7.061,2.664
2026-06-01 14:54:38.951,2209218407,34951,1,0.93604,0.01709,0.57349,2.107,5.786,0.412
2026-06-01 14:54:38.951,2209218407,34951,2,1.03589,-0.05933,-0.1228,-0.992,2.779,0.611
2026-06-01 14:54:38.151,2209217607,35151,1,0.92676,0.03345,0.59351,4.939,4.42,0.412
2026-06-01 14:54:38.151,2209217607,35151,2,1.02466,-0.06592,-0.11572,10.809,5.977,-0.267
2026-06-01 14:54:38.351,2209217807,35351,1,0.93555,0.04834,0.58423,5.206,2.405,-0.481
2026-06-01 14:54:38.351,2209217807,35351,2,1.02124,-0.0564,-0.10791,3.16,2.802,-0.366
2026-06-01 14:54:38.551,2209218007,35551,1,0.92383,0.05005,0.60278,2.099,2.45,-1.725
2026-06-01 14:54:38.551,2209218007,35551,2,1.03223,-0.06323,-0.11133,3.855,1.397,-0.282
2026-06-01T14:54:39.619687,,,,,,,,,
2026-06-01 14:54:39.751,2209219207,35751,1,0.92847,0.0459,0.59839,1.649,0.153,-1.191
2026-06-01 14:54:39.751,2209219207,35751,2,1.0271,-0.05542,-0.11597,-5.076,-2.672,-1.099
2026-06-01 14:54:39.951,2209219407,35951,1,0.93018,0.05908,0.59961,-1.695,-0.435,-4.275
2026-06-01 14:54:39.951,2209219407,35951,2,1.02588,-0.05298,-0.12305,-12.885,-3.595,-0.435
2026-06-01 14:54:39.221,2209218677,36221,1,0.92285,0.06909,0.57666,-9.122,-3.305,-6.382
2026-06-01 14:54:39.221,2209218677,36221,2,1.01978,-0.04443,-0.14429,-11.962,-4.42,1.71
2026-06-01 14:54:39.421,2209218877,36421,1,0.94653,0.06201,0.57788,-5.588,-0.962,-2.023
2026-06-01 14:54:39.421,2209218877,36421,2,1.02686,-0.07153,-0.15039,-4.168,-1.885,4.13
2026-06-01 14:54:40.621,2209220077,36621,1,0.94873,0.05249,0.57397,-1.313,-0.618,3.489
2026-06-01 14:54:40.621,2209220077,36621,2,1.02148,-0.0813,-0.17041,0.519,-1.397,3.611
2026-06-01 14:54:40.821,2209220277,36821,1,0.94092,0.04858,0.58179,1.389,2.435,6.702
2026-06-01 14:54:40.821,2209220277,36821,2,1.0293,-0.05908,-0.1626,1.45,-1.153,2.763
2026-06-01 14:54:40.021,2209219477,37021,1,0.95435,0.02051,0.56543,0.641,0.015,0.824
2026-06-01 14:54:40.021,2209219477,37021,2,1.02295,-0.0686,-0.1897,-3.992,-4.985,0.641
2026-06-01 14:54:40.221,2209219677,37221,1,0.96997,0.03369,0.53223,2.687,-0.191,-0.725
2026-06-01 14:54:40.221,2209219677,37221,2,1.02319,-0.05371,-0.18188,-0.137,0.015,-0.397
2026-06-01 14:54:40.421,2209219877,37421,1,0.95557,0.04297,0.55029,-0.252,-0.168,-2.061
2026-06-01 14:54:40.421,2209219877,37421,2,1.02856,-0.07178,-0.17651,-5.641,-4.573,1.198
2026-06-01 14:54:41.621,2209221077,37621,1,0.95068,0.04321,0.53906,-0.282,0.603,-0.809
2026-06-01 14:54:41.621,2209221077,37621,2,1.02759,-0.07861,-0.19043,-3.305,-0.603,1.405
2026-06-01 14:54:41.821,2209221277,37821,1,0.98755,0.01807,0.5188,0.542,2.046,0.29
2026-06-01 14:54:41.821,2209221277,37821,2,1.02661,-0.05737,-0.20801,4.916,9.092,-3.023
2026-06-01 14:54:41.021,2209220477,38021,1,0.93042,0.06909,0.55054,1.924,3.588,-7.053
2026-06-01 14:54:41.021,2209220477,38021,2,1.05054,-0.09302,-0.18994,7.824,5.42,3.42
2026-06-01 14:54:41.221,2209220677,38221,1,0.94653,0.05176,0.55322,-6.809,1.145,-2.061
2026-06-01 14:54:41.221,2209220677,38221,2,1.02002,-0.06372,-0.17188,5.038,7.069,2.794
2026-06-01 14:54:41.421,2209220877,38421,1,0.9646,0.03076,0.55908,-12.351,-1.473,-3.954
2026-06-01 14:54:41.421,2209220877,38421,2,1.02661,-0.07422,-0.17993,-17.55,-4.069,2.649
2026-06-01 14:54:42.621,2209222077,38621,1,0.96045,0.021,0.54492,-6.206,1.305,-3.107
2026-06-01 14:54:42.621,2209222077,38621,2,1.0293,-0.09351,-0.18604,-5.641,0.031,0.832
2026-06-01 14:54:42.821,2209222277,38821,1,0.97095,0.01587,0.52563,6.221,2.855,0.206
2026-06-01 14:54:42.821,2209222277,38821,2,1.02783,-0.09351,-0.17505,11.679,4.397,-4.153
2026-06-01 14:54:42.021,2209221477,39021,1,0.94458,0.05054,0.55664,19.008,6.534,4.565
2026-06-01 14:54:42.021,2209221477,39021,2,1.02173,-0.05591,-0.16528,26.656,6.847,-5.779
2026-06-01 14:54:42.221,2209221677,39221,1,0.95776,0.07349,0.56763,17.061,5.802,6.947
2026-06-01 14:54:42.221,2209221677,39221,2,1.00854,0.00195,-0.16748,5.191,-0.122,-7.42
2026-06-01 14:54:42.421,2209221877,39421,1,0.93384,0.10425,0.55884,6.031,1.405,0.221
2026-06-01 14:54:42.421,2209221877,39421,2,1.04785,-0.02539,-0.14624,-7.473,-2.847,7.229
2026-06-01 14:54:43.698,2209223154,39698,1,0.95117,0.06128,0.53467,-10.679,-2.0,-4.496
2026-06-01 14:54:43.698,2209223154,39698,2,1.0459,-0.04639,-0.12524,-17.198,-3.855,2.618
2026-06-01 14:54:43.898,2209223354,39898,1,0.96655,0.04077,0.53662,-8.634,4.618,1.168
2026-06-01 14:54:43.898,2209223354,39898,2,1.04761,-0.07251,-0.14673,-3.878,4.244,7.626
2026-06-01 14:54:43.098,2209222554,40098,1,0.90674,0.00806,0.56934,-3.26,-5.901,0.275
2026-06-01 14:54:43.098,2209222554,40098,2,0.9895,-0.06274,-0.21753,-20.244,-9.13,6.725
2026-06-01 14:54:43.298,2209222754,40298,1,0.95654,0.01099,0.56226,-9.206,-3.534,-6.466
2026-06-01 14:54:43.298,2209222754,40298,2,1.0188,-0.06592,-0.25269,-8.695,-7.649,-1.305
2026-06-01 14:54:43.498,2209222954,40498,1,0.98169,0.00049,0.51636,5.725,-2.206,2.443
2026-06-01 14:54:43.498,2209222954,40498,2,1.01685,-0.06445,-0.23486,-0.679,-2.534,-3.229
2026-06-01 14:54:44.698,2209224154,40698,1,0.99878,0.00122,0.49048,17.634,5.069,8.351
2026-06-01 14:54:44.698,2209224154,40698,2,1.02954,-0.05054,-0.22314,22.588,7.305,-2.779
2026-06-01 14:54:44.898,2209224354,40898,1,0.9436,0.03955,0.55518,18.267,6.992,10.214
2026-06-01 14:54:44.898,2209224354,40898,2,1.00781,-0.0249,-0.18066,4.527,1.672,-2.29
2026-06-01 14:54:44.098,2209223554,41098,1,0.98584,0.08643,0.48828,6.786,0.748,4.71
2026-06-01 14:54:44.098,2209223554,41098,2,1.02783,-0.02588,-0.18311,1.427,-0.832,3.695
2026-06-01 14:54:44.298,2209223754,41298,1,0.97925,0.03296,0.49805,-10.198,0.458,-1.427
2026-06-01 14:54:44.298,2209223754,41298,2,1.04004,-0.03296,-0.22754,-2.382,2.191,5.496
2026-06-01 14:54:44.498,2209223954,41498,1,0.95605,0.0022,0.56372,-13.802,4.084,-6.901
2026-06-01 14:54:44.498,2209223954,41498,2,1.01221,-0.02197,-0.23853,-23.214,-1.634,2.534
2026-06-01 14:54:45.698,2209225154,41698,1,0.95776,0.02417,0.55005,-19.206,5.588,-4.779
2026-06-01 14:54:45.698,2209225154,41698,2,1.01416,-0.06226,-0.2312,-5.901,2.26,6.031
2026-06-01 14:54:45.898,2209225354,41898,1,0.97388,-0.02612,0.51147,-7.046,1.008,-0.748
2026-06-01 14:54:45.898,2209225354,41898,2,1.02124,-0.08276,-0.23389,6.618,4.176,5.252
2026-06-01 14:54:45.193,2209224649,42193,1,0.95508,-0.04199,0.53833,1.313,3.885,-0.672
2026-06-01 14:54:45.193,2209224649,42193,2,1.01514,-0.09814,-0.18286,-10.107,-2.466,-0.481
2026-06-01 14:54:45.393,2209224849,42393,1,0.96948,-0.02197,0.53711,8.786,1.214,-2.198
2026-06-01 14:54:45.393,2209224849,42393,2,1.02075,-0.07715,-0.16748,4.672,0.298,-4.374
2026-06-01 14:54:45.593,2209225049,42593,1,0.96802,0.00977,0.53418,12.176,1.305,5.748
2026-06-01 14:54:45.593,2209225049,42593,2,1.03467,-0.05396,-0.20776,12.977,1.336,0.992
2026-06-01 14:54:46.793,2209226249,42793,1,0.97681,-0.01587,0.53345,6.756,1.053,2.122
2026-06-01 14:54:46.793,2209226249,42793,2,1.02441,-0.05688,-0.23218,4.977,3.42,-1.321
2026-06-01 14:54:46.993,2209226449,42993,1,0.97876,-0.01538,0.51978,2.58,3.969,3.817
2026-06-01 14:54:46.993,2209226449,42993,2,1.01685,-0.08472,-0.21826,-0.305,3.45,-1.794
2026-06-01 14:54:46.193,2209225649,43193,1,0.94849,-0.01489,0.56348,-0.718,1.45,-3.13
2026-06-01 14:54:46.193,2209225649,43193,2,1.01294,-0.06543,-0.20752,-3.031,-2.382,2.13
2026-06-01 14:54:46.393,2209225849,43393,1,0.96143,-0.00635,0.56201,1.412,-0.305,0.389
2026-06-01 14:54:46.393,2209225849,43393,2,1.02393,-0.05713,-0.21387,3.038,-3.275,-0.511
2026-06-01 14:54:47.690,2209227146,43690,1,0.99268,-0.01709,0.50073,6.153,-0.061,-1.924
2026-06-01 14:54:47.690,2209227146,43690,2,1.02905,-0.06226,-0.28345,17.603,12.0,-0.969
2026-06-01 14:54:47.890,2209227346,43890,1,1.0188,-0.01953,0.40942,-4.137,15.962,-6.344
2026-06-01 14:54:47.890,2209227346,43890,2,1.02832,-0.09912,-0.1272,38.206,29.595,-1.893
2026-06-01 14:54:47.090,2209226546,44090,1,0.89111,0.00757,0.64966,-0.954,4.534,-6.908
2026-06-01 14:54:47.090,2209226546,44090,2,1.04663,-0.08472,-0.09766,8.328,6.221,-0.267
2026-06-01 14:54:47.322,2209226778,44322,1,0.89966,0.04199,0.61987,-0.084,-2.603,-13.038
2026-06-01 14:54:47.322,2209226778,44322,2,1.01685,-0.08203,-0.12939,-4.244,-8.42,-4.786
2026-06-01 14:54:47.522,2209226978,44522,1,0.92749,0.11523,0.552,16.985,-9.473,9.0
2026-06-01 14:54:47.522,2209226978,44522,2,1.04028,-0.04126,-0.22949,22.969,-5.137,-1.076
2026-06-01 14:54:48.722,2209228178,44722,1,1.00317,0.00781,0.48535,8.992,-0.603,9.412
2026-06-01 14:54:48.722,2209228178,44722,2,1.0271,-0.0564,-0.17163,25.275,11.382,-5.374
2026-06-01 14:54:48.922,2209228378,44922,1,0.97974,0.03101,0.48389,4.634,2.863,1.534
2026-06-01 14:54:48.922,2209228378,44922,2,1.02002,-0.04102,-0.12061,-2.275,2.756,-0.588
2026-06-01 14:54:48.122,2209227578,45122,1,0.95581,0.06982,0.49683,4.168,6.718,-2.878
2026-06-01 14:54:48.122,2209227578,45122,2,1.0293,-0.01831,-0.09546,-5.206,11.076,4.237
2026-06-01 14:54:48.322,2209227778,45322,1,0.90601,0.03979,0.64136,8.023,10.748,0.634
2026-06-01 14:54:48.322,2209227778,45322,2,1.01221,-0.06152,-0.04785,10.511,2.718,0.45
2026-06-01 14:54:48.522,2209227978,45522,1,0.9104,0.05054,0.65381,5.305,-5.947,2.695
2026-06-01 14:54:48.522,2209227978,45522,2,1.04272,-0.01538,-0.09009,-5.595,-20.84,-1.183
2026-06-01 14:54:49.722,2209229178,45722,1,1.00488,0.06152,0.42334,-16.244,2.687,4.389
2026-06-01 14:54:49.722,2209229178,45722,2,1.03271,-0.05591,-0.16187,-11.832,6.122,4.305
2026-06-01 14:54:49.922,2209229378,45922,1,0.92993,-0.06201,0.60229,3.893,9.695,3.26
2026-06-01 14:54:49.922,2209229378,45922,2,1.02856,-0.04492,-0.08057,-14.901,-4.618,2.702
2026-06-01 14:54:49.122,2209228578,46122,1,0.94312,-0.02954,0.57349,7.557,-6.13,-0.031
2026-06-01 14:54:49.122,2209228578,46122,2,1.04443,-0.04004,-0.14331,2.298,-8.145,-2.481
2026-06-01 14:54:49.322,2209228778,46322,1,0.96484,-0.02539,0.55664,5.099,-4.321,-2.366
2026-06-01 14:54:49.322,2209228778,46322,2,1.03491,-0.04175,-0.15088,-0.687,1.206,-1.443
2026-06-01 14:54:49.522,2209228978,46522,1,0.97998,0.00977,0.5022,1.214,4.038,-1.26
2026-06-01 14:54:49.522,2209228978,46522,2,1.02393,-0.04053,-0.13037,10.443,9.405,1.443
2026-06-01 14:54:50.722,2209230178,46722,1,0.9707,-0.00024,0.52979,-9.824,7.305,6.267
2026-06-01 14:54:50.722,2209230178,46722,2,1.03027,-0.05664,-0.12646,2.626,6.313,4.244
2026-06-01 14:54:50.922,2209230378,46922,1,0.9502,-0.02319,0.56738,0.893,0.786,-3.611
2026-06-01 14:54:50.922,2209230378,46922,2,1.01807,-0.05347,-0.10889,2.679,-1.282,-0.786
2026-06-01 14:54:50.196,2209229652,47196,1,0.9624,0.02075,0.53882,-4.542,-0.718,-0.107
2026-06-01 14:54:50.196,2209229652,47196,2,1.03052,-0.0686,-0.13843,0.992,-0.412,-2.641
2026-06-01 14:54:50.396,2209229852,47396,1,0.96802,0.01831,0.5481,-0.527,-0.053,1.198
2026-06-01 14:54:50.396,2209229852,47396,2,1.02856,-0.04785,-0.11743,6.748,0.656,-0.618
2026-06-01 14:54:50.596,2209230052,47596,1,0.9646,0.02783,0.53442,-1.603,0.252,0.817
2026-06-01 14:54:50.596,2209230052,47596,2,1.02295,-0.05151,-0.12891,2.977,1.298,-0.382
2026-06-01 14:54:51.796,2209231252,47796,1,0.97266,-0.02783,0.52734,-5.84,0.397,-4.489
2026-06-01 14:54:51.796,2209231252,47796,2,1.02441,-0.0249,-0.16064,-14.573,-5.45,-2.183
2026-06-01 14:54:51.996,2209231452,47996,1,0.96558,-0.02539,0.51636,-6.412,1.076,-3.053
2026-06-01 14:54:51.996,2209231452,47996,2,1.03687,-0.01709,-0.18628,-8.099,-7.382,1.542
2026-06-01 14:54:51.196,2209230652,48196,1,0.95947,0.00952,0.53687,-6.427,2.489,-1.42
2026-06-01 14:54:51.196,2209230652,48196,2,1.04053,-0.02832,-0.20142,-11.519,-8.183,3.191
2026-06-01 14:54:51.396,2209230852,48396,1,0.99707,0.00879,0.52075,-5.13,9.412,-3.015
2026-06-01 14:54:51.396,2209230852,48396,2,1.02075,-0.04468,-0.20044,-14.969,-4.618,2.443
2026-06-01 14:54:51.596,2209231052,48596,1,0.9729,-0.0271,0.53369,-1.305,6.969,1.435
2026-06-01 14:54:51.596,2209231052,48596,2,1.02124,-0.00806,-0.18286,-11.618,-10.771,2.069
2026-06-01 14:54:52.796,2209232252,48796,1,0.96045,-0.00513,0.55981,0.527,1.817,1.771
2026-06-01 14:54:52.796,2209232252,48796,2,1.03003,-0.04028,-0.21802,-5.504,0.611,0.786
2026-06-01 14:54:52.996,2209232452,48996,1,0.95337,-0.03149,0.53979,-3.718,8.0,-2.786
2026-06-01 14:54:52.996,2209232452,48996,2,1.02881,-0.07666,-0.19824,-6.183,1.756,-1.832
2026-06-01 14:54:52.196,2209231652,49196,1,0.93604,-0.03857,0.57983,6.29,5.397,0.985
2026-06-01 14:54:52.196,2209231652,49196,2,1.01343,-0.04614,-0.18579,1.687,0.282,-0.611
2026-06-01 14:54:52.396,2209231852,49396,1,0.94482,0.01587,0.55444,-1.664,4.992,0.527
2026-06-01 14:54:52.396,2209231852,49396,2,1.02612,-0.05249,-0.21411,-1.053,-1.351,-2.366
2026-06-01 14:54:52.596,2209232052,49596,1,0.96509,-0.00928,0.55786,-1.656,,-1.336
2026-06-01 14:54:52.596,2209232052,49596,2,1.03491,-0.05371,-0.17554,-8.985,-4.481,-0.458
2026-06-01 14:54:53.796,2209233252,49796,1,0.93579,-0.02563,0.57471,5.023,-1.084,1.191
2026-06-01 14:54:53.796,2209233252,49796,2,1.02661,-0.05273,-0.19702,-2.389,-2.382,0.794
2026-06-01 14:54:53.996,2209233452,49996,1,0.94019,-0.03174,0.56348,3.458,-0.336,2.504
2026-06-01 14:54:53.996,2209233452,49996,2,1.02393,-0.03882,-0.20361,0.435,1.198,-1.718
2026-06-01 14:54:53.196,2209232652,50196,1,0.95605,-0.04883,0.55493,-3.008,3.863,0.595
2026-06-01 14:54:53.196,2209232652,50196,2,1.01782,-0.0188,-0.21191,-9.382,-3.321,3.084
2026-06-01 14:54:53.396,2209232852,50396,1,0.96899,-0.01929,0.54199,1.947,0.26,-2.664
2026-06-01 14:54:53.396,2209232852,50396,2,1.01587,-0.04956,-0.22534,-7.053,-0.725,-0.374
2026-06-01 14:54:53.596,2209233052,50596,1,0.96143,-0.04395,0.55444,1.962,3.481,0.321
2026-06-01 14:54:53.596,2209233052,50596,2,1.01611,-0.03271,-0.21411,-0.71,0.649,-0.962
2026-06-01 14:54:54.796,2209234252,50796,1,0.95483,-0.03613,0.55737,0.267,2.267,0.305
2026-06-01 14:54:54.796,2209234252,50796,2,1.02124,-0.04785,-0.19702,1.603,2.382,0.947
2026-06-01 14:54:54.996,2209234452,50996,1,0.95679,-0.03198,0.55347,-1.336,3.45,-2.939
2026-06-01 14:54:54.996,2209234452,50996,2,1.02222,-0.02246,-0.19971,-4.885,-0.565,1.595
2026-06-01 14:54:54.196,2209233652,51196,1,0.94751,-0.02124,0.56738,-3.947,2.466,-3.634
2026-06-01 14:54:54.196,2209233652,51196,2,1.01953,-0.0498,-0.22437,-11.489,-3.916,-0.122
2026-06-01 14:54:54.396,2209233852,51396,1,0.94604,-0.05322,0.57422,-1.191,2.557,-1.611
2026-06-01 14:54:54.396,2209233852,51396,2,1.02466,-0.03784,-0.21753,-6.359,-2.031,0.366
2026-06-01 14:54:54.596,2209234052,51596,1,0.95068,-0.03809,0.5603,-0.634,0.13,-1.71
2026-06-01 14:54:54.596,2209234052,51596,2,1.01538,-0.04224,-0.21875,-3.878,-1.45,1.374
2026-06-01 14:54:55.796,2209235252,51796,1,0.94019,-0.0459,0.56152,2.214,1.267,3.443
2026-06-01 14:54:55.796,2209235252,51796,2,1.02563,-0.04077,-0.21606,-4.557,-2.885,-1.992
2026-06-01 14:54:55.996,2209235452,51996,1,0.91846,-0.06445,0.57837,4.84,1.344,4.756
2026-06-01 14:54:55.996,2209235452,51996,2,1.03467,-0.01978,-0.19263,4.557,2.573,0.908
2026-06-01 14:54:55.196,2209234652,52196,1,0.96094,-0.01367,0.53418,2.878,0.977,-1.061
2026-06-01 14:54:55.196,2209234652,52196,2,1.00977,-0.04028,-0.16797,-3.969,1.542,-0.206
2026-06-01 14:54:55.396,2209234852,52396,1,0.94238,-0.0542,0.56201,-1.763,0.496,-1.237
2026-06-01 14:54:55.396,2209234852,52396,2,1.01953,-0.04199,-0.20435,-4.252,-1.351,0.878
2026-06-01 14:54:55.596,2209235052,52596,1,0.9729,-0.03027,0.53735,-1.832,2.603,-3.046
2026-06-01 14:54:55.596,2209235052,52596,2,1.01563,-0.04004,-0.20581,1.763,2.504,0.756
2026-06-01 14:54:56.796,2209236252,52796,1,0.94727,-0.04688,0.55981,1.84,1.252,4.221
2026-06-01 14:54:56.796,2209236252,52796,2,1.01685,-0.05249,-0.20752,6.802,1.573,-2.656
2026-06-01 14:54:56.996,2209236452,52996,1,0.96191,-0.00415,0.54272,20.336,-1.221,5.832
2026-06-01 14:54:56.996,2209236452,52996,2,1.06079,-0.03003,-0.21753,14.573,8.832,7.863
2026-06-01 14:54:56.196,2209235652,53196,1,0.97241,0.00146,0.51196,13.427,17.534,-8.321
2026-06-01 14:54:56.196,2209235652,53196,2,1.03223,-0.03613,-0.04517,-3.916,5.573,7.374
2026-06-01 14:54:56.487,2209235943,53487,1,0.85327,0.04956,0.68896,-5.71,1.023,-4.099
2026-06-01 14:54:56.487,2209235943,53487,2,1.01709,-0.03955,-0.03198,-23.214,-9.87,-0.183
2026-06-01 14:54:57.687,2209237143,53687,1,0.87964,0.03052,0.65527,-5.931,-5.748,-4.901
2026-06-01 14:54:57.687,2209237143,53687,2,1.01855,-0.06128,-0.11914,-4.863,-12.229,-3.214
2026-06-01 14:54:57.887,2209237343,53887,1,0.98877,0.05078,0.50586,0.992,-9.29,-2.344
2026-06-01 14:54:57.887,2209237343,53887,2,1.04736,-0.04468,-0.17627,-10.267,-11.725,-1.748
2026-06-01 14:54:57.087,2209236543,54087,1,0.96484,0.03418,0.5188,11.771,7.366,8.603
2026-06-01 14:54:57.087,2209236543,54087,2,1.01636,-0.01563,-0.1731,10.618,1.221,-4.29
2026-06-01 14:54:57.287,2209236743,54287,1,0.93311,0.07202,0.54077,20.435,5.702,10.771
2026-06-01 14:54:57.287,2209236743,54287,2,1.01245,0.02319,-0.2041,25.542,-0.061,-0.679
2026-06-01 14:54:57.487,2209236943,54487,1,1.02173,0.11646,0.61255,11.023,8.008,-3.038
2026-06-01 14:54:57.487,2209236943,54487,2,1.1416,0.04907,0.0166,151.412,21.504,21.595
2026-06-01 14:54:58.687,2209238143,54687,1,0.93018,-0.10229,0.60962,-13.908,2.893,3.779
2026-06-01 14:54:58.687,2209238143,54687,2,1.04541,-0.06787,-0.0708,-18.023,-13.809,4.267
2026-06-01 14:54:58.946,2209238402,54946,1,0.94385,-0.08081,0.59814,35.305,-2.023,-0.649
2026-06-01 14:54:58.946,2209238402,54946,2,0.97559,0.03833,-0.29712,83.374,51.336,-12.008
2026-06-01 14:54:58.264,2209237720,55264,1,0.87183,0.25586,0.5896,21.74,13.099,-13.031
2026-06-01 14:54:58.264,2209237720,55264,2,1.01904,-0.03467,-0.01733,29.389,3.992,-25.099
2026-06-01 14:54:58.464,2209237920,55464,1,0.88135,0.25366,0.63574,-5.939,2.809,-10.832
2026-06-01 14:54:58.464,2209237920,55464,2,1.06372,0.11719,-0.03833,-21.191,1.863,-8.038
2026-06-01 14:54:59.664,2209239120,55664,1,0.85205,0.31226,0.60254,15.328,6.137,0.489
2026-06-01 14:54:59.664,2209239120,55664,2,0.99365,0.17407,-0.073,60.542,17.443,0.855
2026-06-01 14:54:59.864,2209239320,55864,1,0.80615,0.36304,0.55347,-4.534,-0.885,1.084
2026-06-01 14:54:59.864,2209239320,55864,2,0.9646,0.15039,-0.15527,17.847,13.573,16.458
2026-06-01 14:54:59.064,2209238520,56064,1,0.9519,0.42505,0.44458,-28.649,-26.634,-1.618
2026-06-01 14:54:59.064,2209238520,56064,2,1.53198,0.04785,-0.11426,-113.718,-65.87,6.183
2026-06-01 14:54:59.264,2209238720,56264,1,0.89233,0.08374,0.52222,-20.168,-14.947,6.443
2026-06-01 14:54:59.264,2209238720,56264,2,0.98462,-0.19556,0.25439,120.656,71.947,40.939
2026-06-01 14:54:59.464,2209238920,56464,1,0.82227,-0.09546,0.63745,-22.893,5.092,-4.718
2026-06-01 14:54:59.464,2209238920,56464,2,0.85034,-0.27856,-0.01636,-59.893,-26.046,13.023
2026-06-01 14:55:00.690,2209240146,56690,1,0.95703,0.06714,0.55615,0.275,5.099,-3.023
2026-06-01 14:55:00.690,2209240146,56690,2,1.06567,-0.17212,-0.07251,-59.145,-34.687,11.771
2026-06-01 14:55:00.890,2209240346,56890,1,0.96094,-0.10669,0.61084,8.412,-3.733,15.366
2026-06-01 14:55:00.890,2209240346,56890,2,1.20313,-0.08911,-0.14233,25.969,-0.779,-32.939
2026-06-01 14:55:00.090,2209239546,57090,1,0.89795,0.13403,0.51025,6.771,13.557,-0.038
2026-06-01 14:55:00.090,2209239546,57090,2,0.95752,0.08472,-0.12134,0.397,-5.412,5.076
2026-06-01 14:55:00.290,2209239746,57290,1,0.9585,0.13745,0.55884,-3.473,13.504,-3.817
2026-06-01 14:55:00.290,2209239746,57290,2,1.04395,-0.03149,-0.09351,-39.198,-0.382,-0.756
2026-06-01 14:55:00.490,2209239946,57490,1,0.91797,0.08667,0.58057,-32.031,12.145,-13.252
2026-06-01 14:55:00.490,2209239946,57490,2,1.02832,-0.11743,-0.0437,-28.252,11.985,14.473
2026-06-01 14:55:01.690,2209241146,57690,1,0.90332,0.04785,0.61328,8.55,-25.466,0.244
2026-06-01 14:55:01.690,2209241146,57690,2,1.03735,-0.07056,-0.17383,21.832,-13.802,0.244
2026-06-01 14:55:01.890,2209241346,57890,1,0.98584,0.05566,0.49805,0.588,-5.641,3.855
2026-06-01 14:55:01.890,2209241346,57890,2,1.10693,-0.12134,-0.19824,48.832,-6.076,4.153
2026-06-01 14:55:01.090,2209240546,58090,1,0.93774,0.02905,0.50928,11.244,2.481,4.176
2026-06-01 14:55:01.090,2209240546,58090,2,1.05713,-0.11597,-0.20703,-20.313,-7.985,-14.458
2026-06-01 14:55:01.290,2209240746,58290,1,0.89355,0.12622,0.5564,-13.244,11.16,-13.458
2026-06-01 14:55:01.290,2209240746,58290,2,0.98242,-0.1062,-0.32935,6.817,-2.458,17.092
2026-06-01 14:55:01.490,2209240946,58490,1,0.97192,0.04321,0.53516,-1.603,-2.855,2.687
2026-06-01 14:55:01.490,2209240946,58490,2,1.01392,-0.09741,-0.18115,-12.725,-9.42,-3.718
2026-06-01 14:55:02.690,2209242146,58690,1,0.96338,0.10132,0.52734,-0.244,2.504,-1.115
2026-06-01 14:55:02.690,2209242146,58690,2,1.02344,-0.05835,-0.20483,-33.733,-22.313,-9.802
2026-06-01 14:55:02.890,2209242346,58890,1,0.98022,0.04736,0.5061,-4.45,1.794,-3.87
2026-06-01 14:55:02.890,2209242346,58890,2,1.01831,-0.08203,-0.20166,-4.924,1.573,0.405
2026-06-01 14:55:02.090,2209241546,59090,1,0.94946,0.06372,0.53345,1.092,0.779,-0.985
2026-06-01 14:55:02.090,2209241546,59090,2,1.00806,-0.08398,-0.19629,-15.122,1.076,-1.557
2026-06-01 14:55:02.290,2209241746,59290,1,0.98047,0.07031,0.51978,1.405,0.679,0.092
2026-06-01 14:55:02.290,2209241746,59290,2,1.02026,-0.06885,-0.19263,0.901,-1.534,1.656
2026-06-01 14:55:02.490,2209241946,59490,1,0.96265,0.04492,0.52734,2.931,1.962,-1.122
2026-06-01 14:55:02.490,2209241946,59490,2,1.01978,-0.07568,-0.20874,4.099,5.115,-1.511
2026-06-01 14:55:03.690,2209243146,59690,1,1.02026,0.07568,0.427,18.397,2.229,5.985
2026-06-01 14:55:03.690,2209243146,59690,2,1.02832,-0.08521,-0.16919,50.947,46.198,-6.824
2026-06-01 14:55:03.890,2209243346,59890,1,0.92505,0.08203,0.54614,4.718,21.969,-1.573
2026-06-01 14:55:03.890,2209243346,59890,2,1.00537,-0.05054,-0.04517,13.473,13.962,1.58
2026-06-01 14:55:03.090,2209242546,60090,1,0.90356,0.10718,0.61865,5.649,7.305,0.855
2026-06-01 14:55:03.090,2209242546,60090,2,1.01758,-0.05469,0.00757,-0.504,0.008,0.382
2026-06-01 14:55:03.290,2209242746,60290,1,0.91748,0.08398,0.59717,-0.573,1.336,1.053
2026-06-01 14:55:03.290,2209242746,60290,2,1.02588,-0.05615,-0.01074,-8.023,-1.969,-0.145
2026-06-01 14:55:03.490,2209242946,60490,1,0.94531,0.08105,0.57861,2.26,1.794,-0.977
2026-06-01 14:55:03.490,2209242946,60490,2,1.03882,-0.04443,-0.02979,1.427,0.519,-0.359
2026-06-01 14:55:04.690,2209244146,60690,1,0.93091,0.09473,0.58569,-1.229,4.908,-2.458
2026-06-01 14:55:04.690,2209244146,60690,2,1.02856,-0.05176,,-0.794,3.916,1.275
2026-06-01 14:55:04.890,2209244346,60890,1,0.9126,0.08594,0.60132,-0.626,3.053,-1.069
2026-06-01 14:55:04.890,2209244346,60890,2,1.03101,-0.05518,-0.00171,-3.359,0.069,0.099
2026-06-01 14:55:04.090,2209243546,61090,1,0.92188,0.08716,0.60132,1.351,1.069,-0.13
2026-06-01 14:55:04.090,2209243546,61090,2,1.02637,-0.05737,-0.00659,-1.656,-1.542,0.573
2026-06-01 14:55:04.290,2209243746,61290,1,0.92773,0.08618,0.60522,0.779,2.466,-1.13
2026-06-01 14:55:04.290,2209243746,61290,2,1.02783,-0.06421,-0.02026,-0.084,1.771,0.84
2026-06-01 14:55:04.490,2209243946,61490,1,0.91772,0.10059,0.59937,0.718,4.672,-0.58
2026-06-01 14:55:04.490,2209243946,61490,2,1.02637,-0.06445,-0.00098,-1.939,2.748,1.969
2026-06-01 14:55:05.690,2209245146,61690,1,0.91968,0.08032,0.61475,0.183,5.0,-0.641
2026-06-01 14:55:05.690,2209245146,61690,2,1.02075,-0.05688,0.01831,-0.634,3.626,0.214
2026-06-01 14:55:05.890,2209245346,61890,1,0.91309,0.09644,0.61841,1.634,9.481,-1.107
2026-06-01 14:55:05.890,2209245346,61890,2,1.02539,-0.07129,0.03906,4.031,11.481,0.466
2026-06-01 14:55:05.090,2209244546,62090,1,0.90454,0.10327,0.65234,0.542,18.229,-1.969
2026-06-01 14:55:05.090,2209244546,62090,2,1.02588,-0.0603,0.07983,5.321,16.153,1.901
2026-06-01 14:55:05.290,2209244746,62290,1,0.82788,0.11597,0.75171,1.817,17.481,-0.611
2026-06-01 14:55:05.290,2209244746,62290,2,0.9978,-0.05029,0.13452,3.214,12.519,0.832
2026-06-01 14:55:05.490,2209244946,62490,1,0.79565,0.09058,0.73071,2.718,8.069,0.84
2026-06-01 14:55:05.490,2209244946,62490,2,1.00171,-0.0564,0.15649,2.145,2.176,-0.023
2026-06-01 14:55:06.690,2209246146,62690,1,0.82178,0.11621,0.80542,1.244,-2.771,-0.305
2026-06-01 14:55:06.690,2209246146,62690,2,0.99365,-0.05322,0.15747,-10.214,-7.611,0.733
2026-06-01 14:55:06.890,2209246346,62890,1,0.83105,0.10938,0.73315,-1.191,-7.908,0.519
2026-06-01 14:55:06.890,2209246346,62890,2,1.00732,-0.06982,0.13794,-15.641,-11.794,-0.679
2026-06-01 14:55:06.090,2209245546,63090,1,0.85156,0.09717,0.70337,0.115,-4.74,-0.634
2026-06-01 14:55:06.090,2209245546,63090,2,1.01416,-0.06958,0.09619,-5.863,-4.885,-0.359
2026-06-01 14:55:06.290,2209245746,63290,1,0.8606,0.09473,0.68555,0.237,-3.038,-1.0
2026-06-01 14:55:06.290,2209245746,63290,2,1.02515,-0.07031,0.05786,-7.725,-6.977,0.053
2026-06-01 14:55:06.490,2209245946,63490,1,0.86719,0.10132,0.6853,-0.901,-3.733,-1.595
2026-06-01 14:55:06.490,2209245946,63490,2,1.02246,-0.06689,0.0564,-7.153,-4.916,0.344
2026-06-01 14:55:07.690,2209247146,63690,1,0.88257,0.09497,0.67065,-4.473,-5.786,-0.046
2026-06-01 14:55:07.690,2209247146,63690,2,1.01978,-0.0686,0.02661,-12.542,-10.527,0.87
2026-06-01 14:55:07.890,2209247346,63890,1,0.90552,0.07935,0.63599,-9.802,-4.42,-2.84
2026-06-01 14:55:07.890,2209247346,63890,2,1.02002,-0.09985,-0.02588,-6.55,-1.588,1.794
2026-06-01 14:55:07.090,2209246546,64090,1,0.92627,0.06079,0.60083,-3.855,-5.748,-3.649
2026-06-01 14:55:07.090,2209246546,64090,2,1.03247,-0.08813,-0.02759,-2.763,-2.725,0.916
2026-06-01 14:55:07.290,2209246746,64290,1,0.93311,0.07544,0.57593,-1.29,-0.794,-0.031
2026-06-01 14:55:07.290,2209246746,64290,2,1.02979,-0.0769,-0.04224,2.313,3.939,1.122
2026-06-01 14:55:07.490,2209246946,64490,1,0.93457,0.07446,0.60156,1.344,3.817,3.435
2026-06-01 14:55:07.490,2209246946,64490,2,1.01953,-0.06494,-0.03882,3.427,3.603,0.183
2026-06-01 14:55:08.690,2209248146,64690,1,0.94507,0.07446,0.6311,1.237,2.046,1.198
2026-06-01 14:55:08.690,2209248146,64690,2,1.04395,-0.09937,-0.04614,7.214,-0.679,7.382
2026-06-01 14:55:08.890,2209248346,64890,1,0.92236,0.04688,0.61816,3.901,4.725,2.557
2026-06-01 14:55:08.890,2209248346,64890,2,1.03003,-0.07446,-0.03149,-1.603,5.504,-0.519
2026-06-01 14:55:08.090,2209247546,65090,1,0.91479,0.04956,0.62573,-0.954,2.489,-1.435
2026-06-01 14:55:08.090,2209247546,65090,2,1.0271,-0.09985,-0.01147,-8.275,-2.221,0.275
2026-06-01 14:55:08.290,2209247746,65290,1,0.90918,0.05029,0.60571,1.328,2.412,-0.74
2026-06-01 14:55:08.290,2209247746,65290,2,1.03052,-0.09595,-0.00073,1.427,1.244,1.168
2026-06-01 14:55:08.490,2209247946,65490,1,0.92603,0.0564,0.60498,0.16,1.405,-1.725
2026-06-01 14:55:08.490,2209247946,65490,2,1.02637,-0.08765,0.00391,0.878,2.183,0.725
2026-06-01 14:55:09.690,2209249146,65690,1,0.91016,0.06055,0.60742,0.382,2.679,-2.282
2026-06-01 14:55:09.690,2209249146,65690,2,1.02954,-0.09717,0.01025,4.817,3.863,1.038
2026-06-01 14:55:09.890,2209249346,65890,1,0.90967,0.06079,0.61768,2.275,2.031,-0.611
2026-06-01 14:55:09.890,2209249346,65890,2,1.02881,-0.09253,-0.00708,0.305,0.107,0.214
2026-06-01 14:55:09.090,2209248546,66090,1,0.90967,0.06519,0.62207,2.214,1.748,-0.473
2026-06-01 14:55:09.090,2209248546,66090,2,1.02441,-0.08105,0.0105,-1.16,1.924,0.145
2026-06-01 14:55:09.319,2209248775,66319,1,0.91577,0.06494,0.61768,-0.053,1.809,-0.794
2026-06-01 14:55:09.319,2209248775,66319,2,1.02222,-0.09766,-0.00928,3.206,2.42,0.641
2026-06-01 14:55:10.672,2209250128,66672,1,0.92114,0.06738,0.58667,2.763,-3.611,-0.26
2026-06-01 14:55:10.672,2209250128,66672,2,1.02686,-0.08252,-0.0271,2.832,2.397,2.023
2026-06-01 14:55:10.883,2209250339,66883,1,0.92358,0.0647,0.60986,0.252,2.053,-0.702
2026-06-01 14:55:10.883,2209250339,66883,2,1.01978,-0.08569,0.02368,15.298,8.893,2.771
2026-06-01 14:55:10.083,2209249539,67083,1,0.90015,0.07813,0.63037,-1.107,4.13,0.221
2026-06-01 14:55:10.083,2209249539,67083,2,1.02759,-0.08179,-0.04419,14.779,7.313,2.771
2026-06-01 14:55:10.546,2209250002,67546,1,0.91211,0.06519,0.60596,0.328,2.099,-1.221
2026-06-01 14:55:10.546,2209250002,67546,2,1.02222,-0.08203,0.00537,2.954,2.435,0.435
2026-06-01 14:55:11.746,2209251202,67746,1,0.91406,0.07959,0.61108,0.084,1.45,-0.939
2026-06-01 14:55:11.746,2209251202,67746,2,1.02417,-0.09033,0.02271,1.481,1.069,0.557
2026-06-01 14:55:11.946,2209251402,67946,1,0.91382,0.0708,0.62256,0.565,2.237,-0.473
2026-06-01 14:55:11.946,2209251402,67946,2,1.02441,-0.08936,0.01196,2.16,2.252,1.137
2026-06-01 14:55:11.146,2209250602,68146,1,0.91187,0.07153,0.62671,0.489,1.489,-0.435
2026-06-01 14:55:11.146,2209250602,68146,2,1.02832,-0.08716,0.01123,-1.29,1.061,0.45
2026-06-01 14:55:11.346,2209250802,68346,1,0.93262,0.07104,0.54224,-1.26,5.733,-0.008
2026-06-01 14:55:11.346,2209250802,68346,2,1.05835,-0.08008,-0.03271,14.908,6.336,2.206
2026-06-01 14:55:11.546,2209251002,68546,1,0.91406,0.07324,0.59033,1.489,0.145,-0.275
2026-06-01 14:55:11.546,2209251002,68546,2,1.02686,-0.09424,-0.04541,8.496,2.901,2.198
2026-06-01 14:55:12.746,2209252202,68746,1,0.93506,0.07861,0.59375,-0.023,-3.305,-1.863
2026-06-01 14:55:12.746,2209252202,68746,2,1.02466,-0.08813,-0.03223,-4.351,-2.092,-0.198
2026-06-01 14:55:12.946,2209252402,68946,1,0.92725,0.06812,0.59106,-0.847,-1.656,-1.45
2026-06-01 14:55:12.946,2209252402,68946,2,1.02466,-0.07983,-0.05762,-8.183,-4.802,0.046
2026-06-01 14:55:12.146,2209251602,69146,1,0.93286,0.07544,0.5752,-3.084,0.328,-2.046
2026-06-01 14:55:12.146,2209251602,69146,2,1.03589,-0.08936,-0.052,-9.641,-2.718,0.489
2026-06-01 14:55:12.346,2209251802,69346,1,0.91772,0.07349,0.58179,-2.695,-2.641,-1.756
2026-06-01 14:55:12.346,2209251802,69346,2,1.02612,-0.08081,-0.09058,-14.779,-12.58,-2.466
2026-06-01 14:55:12.546,2209252002,69546,1,0.93945,0.07129,0.5769,-0.55,-7.458,-1.191
2026-06-01 14:55:12.546,2209252002,69546,2,1.02319,-0.07104,-0.10083,-10.237,-11.191,-2.595
2026-06-01 14:55:13.746,2209253202,69746,1,0.97607,0.06567,0.52319,-2.435,-3.863,-0.221
2026-06-01 14:55:13.746,2209253202,69746,2,1.0354,-0.07007,-0.14551,-4.618,-6.832,3.26
2026-06-01 14:55:13.946,2209253402,69946,1,0.979,0.04956,0.51855,2.076,2.473,0.061
2026-06-01 14:55:13.946,2209253402,69946,2,1.0249,-0.06763,-0.19165,5.053,4.45,-0.573
2026-06-01 14:55:13.146,2209252602,70146,1,0.94971,0.06934,0.49927,2.023,3.939,0.26
2026-06-01 14:55:13.146,2209252602,70146,2,1.00171,-0.05859,-0.12354,-4.847,-2.771,-0.183
2026-06-01 14:55:13.346,2209252802,70346,1,0.97705,0.08813,0.53101,-2.267,-2.542,-2.725
2026-06-01 14:55:13.346,2209252802,70346,2,1.04053,-0.08789,-0.14526,-7.168,-11.42,2.42
2026-06-01 14:55:13.546,2209253002,70546,1,1.01147,0.0752,0.49951,0.382,3.267,0.664
2026-06-01 14:55:13.546,2209253002,70546,2,1.03003,-0.07788,-0.12305,-9.947,-0.481,0.969
2026-06-01 14:55:14.766,2209254222,70766,1,0.95679,0.06958,0.53735,1.817,4.962,-0.153
2026-06-01 14:55:14.766,2209254222,70766,2,1.02417,-0.08252,-0.13013,-0.511,2.687,0.947
2026-06-01 14:55:14.966,2209254422,70966,1,0.94604,0.07446,0.55347,0.504,2.443,-0.924
2026-06-01 14:55:14.966,2209254422,70966,2,1.0293,-0.08813,-0.09839,-4.237,0.061,1.198
2026-06-01 14:55:14.166,2209253622,71166,1,0.9502,0.07275,0.53711,-0.878,2.595,-0.206
2026-06-01 14:55:14.166,2209253622,71166,2,1.02002,-0.07959,-0.1499,-1.992,3.298,0.58
2026-06-01 14:55:14.366,2209253822,71366,1,0.95215,0.06128,0.54053,0.374,2.557,-0.397
2026-06-01 14:55:14.366,2209253822,71366,2,1.0332,-0.08521,-0.10767,1.206,1.534,1.069
2026-06-01 14:55:14.566,2209254022,71566,1,0.95142,0.0647,0.55176,-1.137,0.977,-0.786
2026-06-01 14:55:14.566,2209254022,71566,2,1.02417,-0.08398,-0.12671,-5.702,-0.916,0.954
2026-06-01 14:55:15.766,2209255222,71766,1,0.95435,0.05835,0.53271,0.878,1.176,-0.924
2026-06-01 14:55:15.766,2209255222,71766,2,1.03296,-0.08496,-0.13306,-6.496,-0.992,-0.473
2026-06-01 14:55:15.966,2209255422,71966,1,0.95776,0.06958,0.53198,2.084,1.298,-0.809
2026-06-01 14:55:15.966,2209255422,71966,2,1.02515,-0.08301,-0.12109,-2.641,0.046,-0.58
2026-06-01 14:55:15.166,2209254622,72166,1,0.95996,0.07227,0.53052,1.153,1.473,-0.733
2026-06-01 14:55:15.166,2209254622,72166,2,1.02734,-0.07959,-0.12256,-3.084,-0.55,-0.534
2026-06-01 14:55:15.366,2209254822,72366,1,0.96289,0.07202,0.52881,0.756,2.794,0.099
2026-06-01 14:55:15.366,2209254822,72366,2,1.02832,-0.08667,-0.11743,-0.954,0.588,0.672
2026-06-01 14:55:15.566,2209255022,72566,1,0.98877,0.06519,0.49756,-0.87,2.969,-0.718
2026-06-01 14:55:15.566,2209255022,72566,2,1.04761,-0.07788,-0.11719,11.733,6.855,1.595
2026-06-01 14:55:16.766,2209256222,72766,1,0.95898,0.09863,0.54004,1.031,4.817,-0.107
2026-06-01 14:55:16.766,2209256222,72766,2,1.03149,-0.07813,-0.07617,22.618,11.496,2.916
2026-06-01 14:55:16.966,2209256422,72966,1,0.9729,0.17578,0.52539,-11.618,14.244,6.038
2026-06-01 14:55:16.966,2209256422,72966,2,1.02979,-0.11401,-0.09741,-20.664,16.45,37.16
2026-06-01 14:55:16.166,2209255622,73166,1,0.93701,-0.25171,0.67188,-6.481,9.458,-4.084
2026-06-01 14:55:16.166,2209255622,73166,2,0.93091,-0.3125,-0.10767,32.649,9.099,-1.168
2026-06-01 14:55:16.366,2209255822,73366,1,1.05176,0.02588,0.56299,40.954,-0.344,2.511
2026-06-01 14:55:16.366,2209255822,73366,2,1.07153,-0.104,0.0625,56.015,18.282,-20.382
2026-06-01 14:55:16.566,2209256022,73566,1,0.88867,0.26147,0.61719,30.107,24.458,-5.191
2026-06-01 14:55:16.566,2209256022,73566,2,0.97266,0.14404,-0.13818,55.26,25.756,9.008
2026-06-01 14:55:17.766,2209257222,73766,1,0.80957,0.35596,0.62622,-17.557,-5.725,-5.191
2026-06-01 14:55:17.766,2209257222,73766,2,1.05615,0.05518,0.07056,-76.565,-33.275,12.687
2026-06-01 14:55:17.053,2209256509,74053,1,0.93213,0.0459,0.58594,-1.176,-6.893,10.893
2026-06-01 14:55:17.053,2209256509,74053,2,1.07617,-0.19849,0.20361,92.588,43.489,28.031
2026-06-01 14:55:17.253,2209256709,74253,1,0.93774,0.021,0.58838,-2.351,-0.794,1.496
2026-06-01 14:55:17.253,2209256709,74253,2,1.0437,-0.14209,0.01074,12.031,2.985,2.13
2026-06-01 14:55:17.453,2209256909,74453,1,0.93433,0.00952,0.59937,0.29,6.351,-0.405
2026-06-01 14:55:17.453,2209256909,74453,2,1.03271,-0.12354,-0.01807,13.443,7.847,-2.198
2026-06-01 14:55:18.653,2209258109,74653,1,0.90479,0.04956,0.625,7.191,4.206,0.351
2026-06-01 14:55:18.653,2209258109,74653,2,1.02563,-0.08521,-0.06177,10.939,1.122,-2.71
2026-06-01 14:55:18.853,2209258309,74853,1,0.88916,0.07544,0.62622,-1.679,-3.412,-3.092
2026-06-01 14:55:18.853,2209258309,74853,2,0.99658,-0.08081,-0.052,-25.84,-13.573,-1.847
2026-06-01 14:55:18.053,2209257509,75053,1,0.92798,0.05981,0.57983,-5.252,-8.779,-0.901
2026-06-01 14:55:18.053,2209257509,75053,2,1.04102,-0.07373,-0.06934,-7.466,-16.275,-0.237
2026-06-01 14:55:18.253,2209257709,75253,1,0.95215,0.0437,0.55688,-6.58,-5.84,-0.649
2026-06-01 14:55:18.253,2209257709,75253,2,1.02759,-0.08862,-0.06226,-8.847,-5.794,3.794
2026-06-01 14:55:18.453,2209257909,75453,1,0.89697,0.02002,0.59253,-4.321,-2.779,-0.305
2026-06-01 14:55:18.453,2209257909,75453,2,1.05029,-0.1084,-0.13086,-14.893,-4.84,1.748
2026-06-01 14:55:19.653,2209259109,75653,1,0.94995,0.04956,0.54785,4.153,2.015,0.313
2026-06-01 14:55:19.653,2209259109,75653,2,1.02905,-0.09351,-0.05957,-21.214,-10.489,-5.145
2026-06-01 14:55:19.853,2209259309,75853,1,0.91455,0.07642,0.57104,2.718,-2.817,-2.153
2026-06-01 14:55:19.853,2209259309,75853,2,1.04517,-0.10449,-0.03906,-2.725,-0.252,-1.702
2026-06-01 14:55:19.053,2209258509,76053,1,0.96045,0.06348,0.53027,-0.748,0.771,-1.015
2026-06-01 14:55:19.053,2209258509,76053,2,1.04272,-0.10938,-0.01245,-1.26,1.389,0.351
2026-06-01 14:55:19.253,2209258709,76253,1,0.94775,0.05591,0.54639,0.527,1.29,-1.076
2026-06-01 14:55:19.253,2209258709,76253,2,1.02563,-0.08228,-0.09277,4.679,4.168,1.519
2026-06-01 14:55:19.453,2209258909,76453,1,0.9563,0.05542,0.55249,-0.855,1.137,-2.397
2026-06-01 14:55:19.453,2209258909,76453,2,1.03174,-0.08203,-0.10498,4.908,4.511,0.733
2026-06-01 14:55:20.653,2209260109,76653,1,0.95117,0.06299,0.54956,1.038,2.924,-2.069
2026-06-01 14:55:20.653,2209260109,76653,2,1.02173,-0.0752,-0.10059,-5.55,1.229,0.71
2026-06-01 14:55:20.030,2209259486,77030,1,0.94531,0.06543,0.56226,1.618,5.206,-0.366
2026-06-01 14:55:20.030,2209259486,77030,2,1.01733,-0.08081,-0.09253,-1.763,0.229,0.321
2026-06-01 14:55:20.230,2209259686,77230,1,0.92773,0.06714,0.58228,1.672,0.55,-0.076
2026-06-01 14:55:20.230,2209259686,77230,2,1.03247,-0.09009,-0.07568,-0.954,-1.908,-0.427
2026-06-01 14:55:20.430,2209259886,77430,1,0.94263,0.07397,0.5647,-0.198,-0.481,-0.611
2026-06-01 14:55:20.430,2209259886,77430,2,1.02417,-0.08423,-0.08765,-7.168,-2.046,-0.275
2026-06-01 14:55:21.630,2209261086,77630,1,0.95605,0.06836,0.54907,-0.748,1.221,-1.321
2026-06-01 14:55:21.630,2209261086,77630,2,1.03296,-0.08081,-0.0957,-3.588,0.046,0.321
2026-06-01 14:55:21.830,2209261286,77830,1,0.93872,0.06396,0.56226,0.924,-0.847,-0.756
2026-06-01 14:55:21.830,2209261286,77830,2,1.02856,-0.09082,-0.06104,-0.832,-2.26,0.206
2026-06-01 14:55:21.030,2209260486,78030,1,0.95703,0.05933,0.53711,2.489,-0.802,0.611
2026-06-01 14:55:21.030,2209260486,78030,2,1.03931,-0.08936,-0.08105,8.099,1.153,0.076
2026-06-01 14:55:21.230,2209260686,78230,1,0.96216,0.07397,0.54053,3.092,2.466,0.618
2026-06-01 14:55:21.230,2209260686,78230,2,1.03198,-0.073,-0.08252,11.74,6.29,2.008
2026-06-01 14:55:21.430,2209260886,78430,1,0.95728,0.08252,0.5542,1.718,4.344,-0.412
2026-06-01 14:55:21.430,2209260886,78430,2,1.02686,-0.07129,-0.09277,7.977,5.176,2.84
2026-06-01 14:55:22.630,2209262086,78630,1,0.94653,0.0625,0.55908,0.008,4.985,-1.885
2026-06-01 14:55:22.630,2209262086,78630,2,1.03198,-0.08472,-0.07715,3.214,3.809,0.809
2026-06-01 14:55:22.830,2209262286,78830,1,0.93994,0.07446,0.56226,0.473,3.863,-2.145
2026-06-01 14:55:22.830,2209262286,78830,2,1.02563,-0.08862,-0.05811,-7.038,0.466,-0.435
2026-06-01 14:55:22.030,2209261486,79030,1,0.92554,0.0835,0.57666,1.069,0.611,-0.198
2026-06-01 14:55:22.030,2209261486,79030,2,1.02148,-0.09082,-0.06055,-9.779,-3.473,-2.137
2026-06-01 14:55:22.230,2209261686,79230,1,0.94263,0.07349,0.56641,-1.092,-1.595,-0.305
2026-06-01 14:55:22.230,2209261686,79230,2,1.02905,-0.08057,-0.06494,-9.053,-4.511,-0.45
2026-06-01 14:55:22.430,2209261886,79430,1,0.948,0.06299,0.54907,-1.969,-2.656,-0.084
2026-06-01 14:55:22.430,2209261886,79430,2,1.04126,-0.08032,-0.09326,-3.672,-2.267,-0.092
2026-06-01 14:55:23.630,2209263086,79630,1,0.96069,0.05933,0.54297,-1.87,2.802,-2.695
2026-06-01 14:55:23.630,2209263086,79630,2,1.03345,-0.0813,-0.10327,6.237,7.611,1.221
2026-06-01 14:55:23.830,2209263286,79830,1,0.95972,0.06641,0.54492,-0.115,6.893,-1.443
2026-06-01 14:55:23.830,2209263286,79830,2,1.03418,-0.12744,-0.05249,-0.221,6.725,3.802
2026-06-01 14:55:23.161,2209262617,80161,1,0.94092,0.02173,0.57349,8.489,20.634,-0.481
2026-06-01 14:55:23.161,2209262617,80161,2,1.02417,-0.13843,0.02881,43.344,30.817,-0.542
2026-06-01 14:55:23.361,2209262817,80361,1,0.87256,0.16895,0.6875,35.634,26.176,6.702
2026-06-01 14:55:23.361,2209262817,80361,2,1.06958,0.05273,0.052,45.702,9.992,-3.527
2026-06-01 14:55:23.561,2209263017,80561,1,0.66333,0.32129,0.66968,-7.366,-17.977,-1.656
2026-06-01 14:55:23.561,2209263017,80561,2,1.21436,-0.15527,0.08496,-66.473,-30.725,3.534
2026-06-01 14:55:24.761,2209264217,80761,1,0.90112,0.03882,0.56323,-18.122,-25.351,6.29
2026-06-01 14:55:24.761,2209264217,80761,2,1.02588,-0.06494,-0.07764,-66.802,-28.122,-18.832
2026-06-01 14:55:24.961,2209264417,80961,1,0.94287,0.05054,0.53589,-28.901,-12.679,-5.443
2026-06-01 14:55:24.961,2209264417,80961,2,1.03174,-0.08472,-0.07861,-28.359,-20.389,3.183
2026-06-01 14:55:24.161,2209263617,81161,1,1.0127,-0.02393,0.49561,-15.931,-4.176,-4.641
2026-06-01 14:55:24.161,2209263617,81161,2,1.05103,-0.14941,-0.06299,10.328,7.863,8.931
2026-06-01 14:55:24.361,2209263817,81361,1,0.89111,-0.00415,0.49829,7.244,4.389,2.046
2026-06-01 14:55:24.361,2209263817,81361,2,1.11304,-0.26416,-0.00928,6.656,-6.374,3.908
2026-06-01 14:55:24.561,2209264017,81561,1,0.90088,-0.02637,0.55469,10.092,14.725,8.168
2026-06-01 14:55:24.561,2209264017,81561,2,0.98999,-0.03735,-0.18359,41.267,10.939,-7.687
2026-06-01 14:55:25.761,2209265217,81761,1,0.93774,0.03296,0.55249,-3.809,-3.443,-11.374
2026-06-01 14:55:25.761,2209265217,81761,2,0.97949,-0.01807,-0.1438,-18.038,-5.748,-6.672
2026-06-01 14:55:25.961,2209265417,81961,1,0.92017,0.05737,0.5105,3.695,-4.977,-2.947
2026-06-01 14:55:25.961,2209265417,81961,2,1.05908,-0.07056,-0.14063,49.557,4.145,1.252
2026-06-01 14:55:25.161,2209264617,82161,1,0.98193,0.09839,0.50977,13.588,5.328,3.084
2026-06-01 14:55:25.161,2209264617,82161,2,1.05542,-0.10986,0.03369,13.053,4.16,1.344
2026-06-01 14:55:25.361,2209264817,82361,1,0.96558,0.07861,0.54932,6.595,23.809,-0.588
2026-06-01 14:55:25.361,2209264817,82361,2,1.04443,-0.11963,0.04883,27.374,38.115,7.366
2026-06-01 14:55:25.561,2209265017,82561,1,0.90479,0.05957,0.54858,2.015,60.298,-4.87
2026-06-01 14:55:25.561,2209265017,82561,2,0.96948,-0.10376,0.32056,87.198,100.649,10.504
2026-06-01 14:55:26.761,2209266217,82761,1,0.40259,-0.01074,0.43335,12.634,124.824,0.672
2026-06-01 14:55:26.761,2209266217,82761,2,0.66797,-0.12036,0.18408,16.626,152.687,-12.0
2026-06-01 14:55:26.961,2209266417,82961,1,0.11548,0.07666,1.04883,27.511,48.832,9.008
2026-06-01 14:55:26.961,2209266417,82961,2,0.12817,0.07471,0.45947,106.626,116.763,42.664
2026-06-01 14:55:26.161,2209265617,83161,1,0.23169,0.18677,1.15723,1.718,-38.16,14.115
2026-06-01 14:55:26.161,2209265617,83161,2,0.29321,0.27783,0.81323,33.687,11.565,41.916
2026-06-01 14:55:26.361,2209265817,83361,1,0.51074,0.1272,1.23901,-3.618,-53.29,10.87
2026-06-01 14:55:26.361,2209265817,83361,2,0.20703,0.31055,1.38159,4.855,15.076,5.313
2026-06-01 14:55:26.561,2209266017,83561,1,0.85693,0.22314,1.16797,-1.176,-27.435,-2.977
2026-06-01 14:55:26.561,2209266017,83561,2,0.26489,0.18628,1.03833,-1.221,-13.885,12.26
2026-06-01 14:55:27.761,2209267217,83761,1,0.67822,0.09375,0.79443,-0.069,-10.458,7.527
2026-06-01 14:55:27.761,2209267217,83761,2,0.30615,0.15381,0.86426,-0.931,-13.855,13.305
2026-06-01 14:55:27.961,2209267417,83961,1,0.73438,0.11401,0.88354,0.672,-9.527,1.321
2026-06-01 14:55:27.961,2209267417,83961,2,0.31519,0.17627,0.94043,-3.985,-16.679,0.26
2026-06-01 14:55:27.161,2209266617,84161,1,0.75977,0.12915,0.8125,-2.679,-4.107,-6.855
2026-06-01 14:55:27.161,2209266617,84161,2,0.31763,0.14917,0.89404,-3.634,-1.802,-5.053
2026-06-01 14:55:27.361,2209266817,84361,1,0.771,0.13721,0.80225,-2.092,2.634,-1.84
2026-06-01 14:55:27.361,2209266817,84361,2,0.34253,0.16138,0.90161,-0.634,1.794,3.679
2026-06-01 14:55:27.561,2209267017,84561,1,0.76514,0.12524,0.82153,-3.336,4.145,-1.74
2026-06-01 14:55:27.561,2209267017,84561,2,0.34082,0.13574,0.88965,2.618,7.023,0.969
2026-06-01 14:55:28.761,2209268217,84761,1,0.74878,0.0957,0.8374,0.542,7.733,0.031
2026-06-01 14:55:28.761,2209268217,84761,2,0.31616,0.14844,0.93018,1.145,6.214,-0.443
2026-06-01 14:55:28.961,2209268417,84961,1,1.07983,0.15747,1.08472,1.756,25.26,1.573
2026-06-01 14:55:28.961,2209268417,84961,2,0.45557,0.18188,1.31909,-0.061,11.046,-13.924
2026-06-01 14:55:28.161,2209267617,85161,1,0.44336,0.0918,0.88916,-11.137,84.443,-17.13
2026-06-01 14:55:28.161,2209267617,85161,2,0.19092,0.0769,0.79028,-30.023,16.16,-53.046
2026-06-01 14:55:28.361,2209267817,85361,1,0.18799,0.16553,1.1145,-8.427,38.42,-14.718
2026-06-01 14:55:28.361,2209267817,85361,2,0.07617,0.30029,0.83081,-37.443,-23.092,-24.069
2026-06-01 14:55:28.561,2209268017,85561,1,0.17383,0.21094,1.3103,-0.985,-23.328,-1.756
2026-06-01 14:55:28.561,2209268017,85561,2,0.31396,0.12622,0.84595,-62.137,-120.107,-14.229
2026-06-01 14:55:29.761,2209269217,85761,1,0.30249,0.13037,1.02734,2.221,-98.763,4.366
2026-06-01 14:55:29.761,2209269217,85761,2,0.57642,-0.0542,0.38501,-11.031,-176.84,10.206
2026-06-01 14:55:29.961,2209269417,85961,1,0.42261,-0.0022,0.31299,-7.008,-122.191,1.466
2026-06-01 14:55:29.961,2209269417,85961,2,0.7085,-0.13647,0.17847,-48.45,-141.397,-20.191
2026-06-01 14:55:29.161,2209268617,86161,1,0.96411,-0.05688,0.37842,4.084,-22.908,1.42
2026-06-01 14:55:29.161,2209268617,86161,2,1.04346,-0.2251,-0.15356,-17.29,-22.664,0.344
2026-06-01 14:55:29.361,2209268817,86361,1,0.9873,0.03369,0.45435,-0.519,-5.13,2.74
2026-06-01 14:55:29.361,2209268817,86361,2,1.05322,-0.14868,-0.03491,11.489,-11.046,3.687
2026-06-01 14:55:29.561,2209269017,86561,1,0.9624,0.05005,0.50928,6.122,-3.947,5.962
2026-06-01 14:55:29.561,2209269017,86561,2,0.99731,-0.1001,-0.06787,-0.252,-10.008,-1.817
2026-06-01 14:55:30.761,2209270217,86761,1,1.00684,0.02637,0.42993,4.893,-7.023,0.641
2026-06-01 14:55:30.761,2209270217,86761,2,1.03516,-0.0896,-0.12476,3.382,-7.672,-0.221
2026-06-01 14:55:30.961,2209270417,86961,1,1.03467,0.02808,0.39771,-0.947,-0.649,0.504
2026-06-01 14:55:30.961,2209270417,86961,2,1.01807,-0.09082,-0.13843,-1.412,-2.053,2.794
2026-06-01 14:55:30.161,2209269617,87161,1,1.02368,0.02002,0.41406,3.55,3.481,-0.595
2026-06-01 14:55:30.161,2209269617,87161,2,1.03003,-0.10522,-0.14868,3.557,-2.519,1.412
2026-06-01 14:55:30.361,2209269817,87361,1,1.00513,0.02539,0.4353,-1.137,1.893,-0.366
2026-06-01 14:55:30.361,2209269817,87361,2,1.02563,-0.11084,-0.15259,-3.832,-1.71,0.374
2026-06-01 14:55:30.561,2209270017,87561,1,1.0022,0.03394,0.40845,0.26,-0.198,0.84
2026-06-01 14:55:30.561,2209270017,87561,2,1.03833,-0.10913,-0.15259,2.45,-1.405,-0.374
2026-06-01 14:55:31.761,2209271217,87761,1,0.99707,0.01611,0.42993,-0.489,7.397,-3.206
2026-06-01 14:55:31.761,2209271217,87761,2,1.01221,-0.09521,-0.15381,-1.29,2.427,-1.168
2026-06-01 14:55:31.961,2209271417,87961,1,1.0188,0.03906,0.4231,3.939,5.176,1.84
2026-06-01 14:55:31.961,2209271417,87961,2,1.02173,-0.08521,-0.14868,2.718,3.504,3.611
2026-06-01 14:55:31.161,2209270617,88161,1,1.00635,0.00562,0.43945,0.061,8.282,-0.656
2026-06-01 14:55:31.161,2209270617,88161,2,1.01172,-0.10132,-0.13745,-11.412,4.344,-1.611
2026-06-01 14:55:31.361,2209270817,88361,1,0.98389,0.02832,0.47583,2.359,2.176,0.748
2026-06-01 14:55:31.361,2209270817,88361,2,1.0249,-0.10913,-0.11255,-3.573,-2.71,0.427
2026-06-01 14:55:31.561,2209271017,88561,1,0.99268,0.01807,0.46021,1.748,2.313,-0.137
2026-06-01 14:55:31.561,2209271017,88561,2,1.02759,-0.09473,-0.13989,-1.878,0.359,0.802
2026-06-01 14:55:32.761,2209272217,88761,1,0.98535,0.01221,0.46289,-0.809,0.336,-1.229
2026-06-01 14:55:32.761,2209272217,88761,2,1.02026,-0.10791,-0.13452,-2.092,-0.962,-0.443
2026-06-01 14:55:32.961,2209272417,88961,1,1.01123,0.02808,0.43994,1.458,2.916,-0.336
2026-06-01 14:55:32.961,2209272417,88961,2,1.04541,-0.11182,-0.11353,-1.55,0.183,0.855
2026-06-01 14:55:32.161,2209271617,89161,1,0.98584,0.02393,0.46948,0.481,16.389,-4.237
2026-06-01 14:55:32.161,2209271617,89161,2,1.01978,-0.12744,-0.14282,7.802,12.191,2.115
2026-06-01 14:55:32.361,2209271817,89361,1,0.948,0.0437,0.55835,0.916,8.099,-2.382
2026-06-01 14:55:32.361,2209271817,89361,2,1.02515,-0.12036,-0.02734,-2.695,3.58,2.87
2026-06-01 14:55:32.561,2209272017,89561,1,0.94531,0.0376,0.55005,-1.809,3.947,-1.534
2026-06-01 14:55:32.561,2209272017,89561,2,1.02954,-0.12646,-0.06958,3.435,5.115,1.061
2026-06-01 14:55:33.773,2209273229,89773,1,0.97095,0.03784,0.50977,1.939,5.84,-2.565
2026-06-01 14:55:33.773,2209273229,89773,2,1.02588,-0.11719,-0.00049,15.718,11.527,2.191
2026-06-01 14:55:33.973,2209273429,89973,1,0.97119,0.05322,0.53442,5.611,18.42,1.992
2026-06-01 14:55:33.973,2209273429,89973,2,1.02173,-0.11011,0.00122,21.244,23.206,4.145
2026-06-01 14:55:33.173,2209272629,90173,1,0.91382,0.07031,0.61987,1.771,21.237,-2.137
2026-06-01 14:55:33.173,2209272629,90173,2,1.01465,-0.12646,0.07544,17.023,19.13,5.649
2026-06-01 14:55:33.373,2209272829,90373,1,0.8689,0.05737,0.69043,1.847,28.344,-3.466
2026-06-01 14:55:33.373,2209272829,90373,2,0.98755,-0.12769,0.13477,15.901,24.328,1.221
2026-06-01 14:55:33.573,2209273029,90573,1,0.80444,0.08521,0.75195,-2.244,23.71,-4.008
2026-06-01 14:55:33.573,2209273029,90573,2,0.97363,-0.11328,0.27002,16.573,20.244,4.435
2026-06-01 14:55:34.773,2209274229,90773,1,0.76123,0.07104,0.76025,-1.13,31.649,-0.573
2026-06-01 14:55:34.773,2209274229,90773,2,0.90967,-0.10474,0.40845,18.29,35.366,7.496
2026-06-01 14:55:34.973,2209274429,90973,1,0.68774,0.01758,0.73608,0.405,57.183,0.893
2026-06-01 14:55:34.973,2209274429,90973,2,0.79907,-0.06226,0.57031,36.038,76.992,8.595
2026-06-01 14:55:34.173,2209273629,91173,1,0.35693,0.03882,0.8855,-1.71,97.13,-3.191
2026-06-01 14:55:34.173,2209273629,91173,2,0.58984,-0.07275,0.58008,14.42,111.733,-8.45
2026-06-01 14:55:34.373,2209273829,91373,1,-0.04443,0.09473,1.13477,5.038,101.198,1.13
2026-06-01 14:55:34.373,2209273829,91373,2,0.41772,0.07251,0.90088,16.763,76.649,3.466
2026-06-01 14:55:34.573,2209274029,91573,1,-0.31421,0.09033,1.21265,-7.16,61.275,-0.718
2026-06-01 14:55:34.573,2209274029,91573,2,0.08154,0.22632,0.9397,19.45,69.382,9.977
2026-06-01 14:55:35.773,2209275229,91773,1,-0.42212,0.03418,1.06763,0.74,37.397,-2.099
2026-06-01 14:55:35.773,2209275229,91773,2,-0.10718,0.14648,0.92603,3.13,40.183,-4.252
2026-06-01 14:55:35.973,2209275429,91973,1,-0.42944,0.09497,0.94507,5.832,-11.557,-5.794
2026-06-01 14:55:35.973,2209275429,91973,2,-0.14331,0.19336,0.88867,-7.053,-6.244,-5.176
2026-06-01 14:55:35.173,2209274629,92173,1,-0.46729,0.09399,1.01929,9.321,-8.214,-3.26
2026-06-01 14:55:35.173,2209274629,92173,2,-0.15942,0.18506,0.96167,-10.366,-25.115,0.443
2026-06-01 14:55:35.373,2209274829,92373,1,-0.49927,0.15527,1.31421,4.092,-46.382,-0.237
2026-06-01 14:55:35.373,2209274829,92373,2,0.01636,0.17603,0.95947,-31.473,-92.008,-0.153
2026-06-01 14:55:35.573,2209275029,92573,1,-0.18213,0.11499,1.12061,-9.809,-107.817,3.733
2026-06-01 14:55:35.573,2209275029,92573,2,0.46509,-0.01953,0.78735,-50.435,-130.695,2.977
2026-06-01 14:55:36.773,2209276229,92773,1,0.26758,0.06177,0.896,-0.519,-110.115,3.756
2026-06-01 14:55:36.773,2209276229,92773,2,0.90356,-0.17969,0.3374,-76.893,-104.053,-12.634
2026-06-01 14:55:36.099,2209275555,93099,1,0.80786,0.0166,0.59058,0.405,-91.13,0.687
2026-06-01 14:55:36.099,2209275555,93099,2,1.00342,-0.22388,-0.09131,-54.824,-70.794,-15.969
2026-06-01 14:55:36.299,2209275755,93299,1,1.08862,0.04028,0.44092,3.176,-41.634,0.405
2026-06-01 14:55:36.299,2209275755,93299,2,1.09204,-0.11621,-0.15137,-5.374,-19.527,-11.626
2026-06-01 14:55:36.499,2209275955,93499,1,1.0166,-0.00562,0.5874,25.939,3.565,12.595
2026-06-01 14:55:36.499,2209275955,93499,2,0.98682,-0.05005,0.15625,27.985,20.511,-42.687
2026-06-01 14:55:37.699,2209277155,93699,1,0.95386,0.08228,0.4856,3.084,-6.527,-13.786
2026-06-01 14:55:37.699,2209277155,93699,2,1.073,-0.08203,-0.11304,61.328,28.015,7.794
2026-06-01 14:55:37.899,2209277355,93899,1,1.01221,0.1001,0.42163,6.504,5.771,-3.725
2026-06-01 14:55:37.899,2209277355,93899,2,1.03491,-0.02637,-0.23315,10.336,10.855,0.389
2026-06-01 14:55:37.099,2209276555,94099,1,0.99927,0.08179,0.44214,-8.908,6.481,2.435
2026-06-01 14:55:37.099,2209276555,94099,2,1.01831,-0.11694,-0.13721,1.954,10.702,7.962
2026-06-01 14:55:37.299,2209276755,94299,1,0.98193,0.07129,0.48828,-8.275,3.74,6.435
2026-06-01 14:55:37.299,2209276755,94299,2,1.01685,-0.15039,-0.08398,-12.733,28.771,9.481
2026-06-01 14:55:37.499,2209276955,94499,1,0.97925,-0.00659,0.49951,-9.191,2.954,-3.374
2026-06-01 14:55:37.499,2209276955,94499,2,1.00293,-0.16772,-0.14819,-16.382,-5.763,-5.573
2026-06-01 14:55:38.699,2209278155,94699,1,0.98706,0.0144,0.48828,1.832,0.336,0.45
2026-06-01 14:55:38.699,2209278155,94699,2,1.01489,-0.14966,-0.16724,-1.145,-4.344,0.87
2026-06-01 14:55:38.899,2209278355,94899,1,0.98657,0.01367,0.48096,4.443,-0.786,0.038
2026-06-01 14:55:38.899,2209278355,94899,2,1.01733,-0.16089,-0.17432,-2.595,0.427,-2.863
2026-06-01 14:55:38.099,2209277555,95099,1,0.99609,0.02612,0.48706,6.618,2.115,-0.313
2026-06-01 14:55:38.099,2209277555,95099,2,1.02588,-0.14087,-0.14185,7.031,4.466,-0.351
2026-06-01 14:55:38.299,2209277755,95299,1,0.97607,0.05029,0.4978,1.893,2.87,-1.695
2026-06-01 14:55:38.299,2209277755,95299,2,1.02783,-0.12842,-0.16431,-2.061,0.733,-0.29
2026-06-01 14:55:38.499,2209277955,95499,1,0.98096,0.04346,0.48315,-0.611,2.038,-0.855
2026-06-01 14:55:38.499,2209277955,95499,2,1.01807,-0.1394,-0.14624,-3.511,1.664,1.176
2026-06-01 14:55:39.699,2209279155,95699,1,0.97827,0.03564,0.47705,-1.038,2.74,-0.794
2026-06-01 14:55:39.699,2209279155,95699,2,1.02197,-0.13403,-0.15259,-3.412,0.527,0.359
2026-06-01 14:55:39.899,2209279355,95899,1,0.97729,0.0415,0.48389,-0.29,2.824,-0.695
2026-06-01 14:55:39.899,2209279355,95899,2,1.01636,-0.13843,-0.14819,-6.863,-0.137,-2.771
2026-06-01 14:55:39.099,2209278555,96099,1,0.97559,0.04102,0.48779,-1.908,2.275,-0.649
2026-06-01 14:55:39.099,2209278555,96099,2,1.02295,-0.13013,-0.12451,-1.87,0.359,1.435
2026-06-01 14:55:39.299,2209278755,96299,1,0.99268,0.0459,0.50244,-0.924,2.74,-0.588
2026-06-01 14:55:39.299,2209278755,96299,2,1.02124,-0.14551,-0.12305,-2.511,1.374,1.168
2026-06-01 14:55:39.499,2209278955,96499,1,0.98193,0.03662,0.49414,-0.008,4.328,-0.809
2026-06-01 14:55:39.499,2209278955,96499,2,1.01685,-0.14746,-0.11865,8.198,3.695,2.71
2026-06-01 14:55:40.699,2209280155,96699,1,0.97266,0.04712,0.51099,-1.679,4.595,-0.901
2026-06-01 14:55:40.699,2209280155,96699,2,1.01294,-0.1394,-0.13843,-1.061,2.969,1.954
2026-06-01 14:55:40.899,2209280355,96899,1,0.96094,0.03516,0.52368,-2.282,2.038,-1.939
2026-06-01 14:55:40.899,2209280355,96899,2,1.01758,-0.14478,-0.14551,-2.328,2.168,1.115
2026-06-01 14:55:40.099,2209279555,97099,1,0.96997,0.03467,0.51294,-1.275,0.16,-0.366
2026-06-01 14:55:40.099,2209279555,97099,2,1.01953,-0.14893,-0.13062,-6.504,-1.603,-0.664
2026-06-01 14:55:40.299,2209279755,97299,1,0.9751,0.03931,0.52441,0.45,-0.206,0.115
2026-06-01 14:55:40.299,2209279755,97299,2,1.01831,-0.15527,-0.12793,-3.588,-0.916,-0.206
2026-06-01 14:55:40.499,2209279955,97499,1,0.96802,0.03394,0.52637,1.229,0.183,-0.099
2026-06-01 14:55:40.499,2209279955,97499,2,1.02539,-0.1438,-0.12939,-0.847,-0.122,0.191
2026-06-01 14:55:41.699,2209281155,97699,1,0.95923,0.04395,0.53394,1.847,1.756,0.191
2026-06-01 14:55:41.699,2209281155,97699,2,1.01587,-0.14014,-0.12134,-8.015,-3.122,-1.145
2026-06-01 14:55:41.899,2209281355,97899,1,0.96997,0.0498,0.53394,9.351,10.076,-4.137
2026-06-01 14:55:41.899,2209281355,97899,2,1.01294,-0.12891,-0.14111,-16.405,0.756,-4.359
2026-06-01 14:55:41.099,2209280555,98099,1,0.94263,0.05347,0.55835,3.359,6.817,-4.924
2026-06-01 14:55:41.099,2209280555,98099,2,1.01147,-0.14282,-0.09058,2.321,4.542,0.687
2026-06-01 14:55:41.299,2209280755,98299,1,0.96143,0.07397,0.53564,4.092,9.542,-7.87
2026-06-01 14:55:41.299,2209280755,98299,2,1.03052,-0.15503,-0.08325,-2.198,20.55,0.466
2026-06-01 14:55:41.499,2209280955,98499,1,0.94458,0.12061,0.57642,5.771,13.107,-3.519
2026-06-01 14:55:41.499,2209280955,98499,2,1.02539,-0.14209,-0.03174,11.687,10.786,3.008
2026-06-01 14:55:42.699,2209282155,98699,1,0.90698,0.11548,0.6272,0.557,11.992,0.679
2026-06-01 14:55:42.699,2209282155,98699,2,0.99146,-0.1416,-0.04932,-5.855,2.725,-0.42
2026-06-01 14:55:42.899,2209282355,98899,1,0.90161,0.09106,0.62207,-0.756,-1.733,2.069
2026-06-01 14:55:42.899,2209282355,98899,2,1.00366,-0.16553,-0.01636,3.473,-1.176,0.519
2026-06-01 14:55:42.099,2209281555,99099,1,0.92969,0.10181,0.57397,3.641,-13.565,2.939
2026-06-01 14:55:42.099,2209281555,99099,2,1.02271,-0.16211,-0.01099,-2.374,-7.87,-0.977
2026-06-01 14:55:42.299,2209281755,99299,1,0.96021,0.09448,0.53418,1.725,-6.534,1.321
2026-06-01 14:55:42.299,2209281755,99299,2,1.03174,-0.14038,-0.04639,-1.954,-1.58,0.427
2026-06-01 14:55:42.499,2209281955,99499,1,0.95508,0.09668,0.51953,-1.748,1.244,-1.031
2026-06-01 14:55:42.499,2209281955,99499,2,1.02393,-0.12305,-0.0647,-3.046,1.137,-0.313
2026-06-01 14:55:43.699,2209283155,99699,1,0.96558,0.08667,0.51733,-3.733,0.42,-1.74
2026-06-01 14:55:43.699,2209283155,99699,2,1.02026,-0.14966,-0.05981,-0.557,0.298,1.237
2026-06-01 14:55:43.913,2209283369,99913,1,0.96899,0.07495,0.52344,-0.58,1.817,0.443
2026-06-01 14:55:43.913,2209283369,99913,2,1.02905,-0.1333,-0.08374,0.71,1.542,-0.725
2026-06-01 14:55:43.113,2209282569,100113,1,0.96606,0.08838,0.52563,2.153,1.878,-0.496
2026-06-01 14:55:43.113,2209282569,100113,2,1.02148,-0.14673,-0.07446,-2.115,0.122,0.305
2026-06-01 14:55:43.313,2209282769,100313,1,0.96191,0.08398,0.53296,0.817,1.458,-1.031
2026-06-01 14:55:43.313,2209282769,100313,2,1.01978,-0.1394,-0.06836,-0.954,1.0,-0.618
2026-06-01 14:55:43.513,2209282969,100513,1,0.96118,0.08887,0.53003,-0.702,1.542,-1.076
2026-06-01 14:55:43.513,2209282969,100513,2,1.02173,-0.13965,-0.09082,-1.939,0.779,0.458
2026-06-01 14:55:44.713,2209284169,100713,1,0.95801,0.07935,0.53125,-1.344,0.748,-0.969
2026-06-01 14:55:44.713,2209284169,100713,2,1.01611,-0.13086,-0.10547,-7.618,-8.458,0.687
2026-06-01 14:55:44.913,2209284369,100913,1,0.96216,0.09106,0.52539,-1.244,0.794,-0.076
2026-06-01 14:55:44.913,2209284369,100913,2,1.01514,-0.13696,-0.10571,-2.931,-1.756,-0.176
2026-06-01 14:55:44.113,2209283569,101113,1,0.96729,0.08618,0.52271,0.328,0.489,0.061
2026-06-01 14:55:44.113,2209283569,101113,2,1.02734,-0.12573,-0.10474,-2.191,-0.214,0.458
2026-06-01 14:55:44.313,2209283769,101313,1,0.96704,0.08521,0.51807,1.427,1.168,0.069
2026-06-01 14:55:44.313,2209283769,101313,2,1.03076,-0.13306,-0.10327,2.198,0.901,1.328
2026-06-01 14:55:44.513,2209283969,101513,1,0.96411,0.07764,0.52441,0.756,2.939,-0.267
2026-06-01 14:55:44.513,2209283969,101513,2,1.02026,-0.13818,-0.12085,-1.565,0.687,-0.023
2026-06-01 14:55:45.713,2209285169,101713,1,0.96289,0.08667,0.51611,0.489,1.496,-0.305
2026-06-01 14:55:45.713,2209285169,101713,2,1.02686,-0.13721,-0.10425,-4.435,-1.359,-0.45
2026-06-01 14:55:45.913,2209285369,101913,1,0.99146,0.06812,0.44873,0.679,2.725,0.313
2026-06-01 14:55:45.913,2209285369,101913,2,1.0332,-0.14331,-0.07373,5.557,4.015,2.458
2026-06-01 14:55:45.113,2209284569,102113,1,0.95093,0.08203,0.53442,1.427,3.153,0.107
2026-06-01 14:55:45.113,2209284569,102113,2,1.03149,-0.14844,-0.07153,10.412,4.366,3.214
2026-06-01 14:55:45.313,2209284769,102313,1,0.95679,0.0835,0.53662,0.641,2.489,-0.985
2026-06-01 14:55:45.313,2209284769,102313,2,1.02002,-0.13135,-0.09717,6.824,5.008,1.588
2026-06-01 14:55:45.513,2209284969,102513,1,0.95068,0.09229,0.53223,0.008,2.809,-1.649
2026-06-01 14:55:45.513,2209284969,102513,2,1.02026,-0.13135,-0.11182,-1.214,0.489,-0.176
2026-06-01 14:55:46.713,2209286169,102713,1,0.9563,0.08521,0.54126,0.137,2.595,-0.504
2026-06-01 14:55:46.713,2209286169,102713,2,1.0144,-0.12988,-0.10522,-1.084,0.405,0.237
2026-06-01 14:55:46.913,2209286369,102913,1,0.95825,0.08667,0.54004,0.435,2.374,-0.702
2026-06-01 14:55:46.913,2209286369,102913,2,1.02368,-0.13892,-0.09888,1.771,2.076,1.557
2026-06-01 14:55:46.113,2209285569,103113,1,0.95654,0.08472,0.55347,0.802,2.573,-0.649
2026-06-01 14:55:46.113,2209285569,103113,2,1.02051,-0.13159,-0.09424,0.252,1.481,0.168
2026-06-01 14:55:46.313,2209285769,103313,1,0.9458,0.09082,0.54761,1.237,1.008,-0.191
2026-06-01 14:55:46.313,2209285769,103313,2,1.00781,-0.13696,-0.08984,-6.893,-2.168,-0.702
2026-06-01 14:55:46.513,2209285969,103513,1,0.96045,0.09595,0.53003,1.679,-0.26,-0.13
2026-06-01 14:55:46.513,2209285969,103513,2,1.02783,-0.13818,-0.08887,-0.275,-1.069,0.588
2026-06-01 14:55:47.713,2209287169,103713,1,0.9563,0.09155,0.51953,0.611,1.611,-0.252
2026-06-01 14:55:47.713,2209287169,103713,2,1.01782,-0.15479,-0.10498,-1.954,-0.756,0.267
2026-06-01 14:55:47.913,2209287369,103913,1,0.96143,0.08911,0.52319,-2.061,1.733,0.725
2026-06-01 14:55:47.913,2209287369,103913,2,1.03442,-0.14429,-0.08325,3.412,3.878,-0.427
2026-06-01 14:55:47.113,2209286569,104113,1,0.94287,0.09009,0.60596,-10.573,3.275,-3.611
2026-06-01 14:55:47.113,2209286569,104113,2,1.01245,-0.13867,-0.06226,-15.55,-0.519,5.008
2026-06-01 14:55:47.313,2209286769,104313,1,0.98828,0.03979,0.50537,-6.374,9.702,-11.687
2026-06-01 14:55:47.313,2209286769,104313,2,0.99976,-0.1875,-0.07153,9.58,9.718,-2.115
2026-06-01 14:55:47.513,2209286969,104513,1,0.93774,0.13721,0.5564,13.695,19.336,-18.42
2026-06-01 14:55:47.513,2209286969,104513,2,0.99292,-0.1106,0.04736,-8.214,-4.885,2.969
2026-06-01 14:55:48.757,2209288213,104757,1,0.85742,0.23267,0.68091,-12.374,14.504,-13.115
2026-06-01 14:55:48.757,2209288213,104757,2,1.01392,-0.14673,0.07471,-3.206,18.137,4.198
2026-06-01 14:55:48.957,2209288413,104957,1,0.83276,0.19849,0.69409,-6.939,11.244,-3.855
2026-06-01 14:55:48.957,2209288413,104957,2,0.98828,-0.16577,0.09229,14.466,8.931,2.496
2026-06-01 14:55:48.157,2209287613,105157,1,0.83496,0.22827,0.70679,2.046,11.397,8.198
2026-06-01 14:55:48.157,2209287613,105157,2,0.96436,-0.18164,0.02905,6.595,0.947,6.603
2026-06-01 14:55:48.357,2209287813,105357,1,0.82861,0.18848,0.65332,-0.656,20.221,39.527
2026-06-01 14:55:48.357,2209287813,105357,2,0.95313,-0.28516,0.15479,-5.214,-0.298,14.344
2026-06-01 14:55:48.557,2209288013,105557,1,0.68262,-0.00659,0.7561,-6.458,40.656,50.229
2026-06-01 14:55:48.557,2209288013,105557,2,0.89331,-0.24243,0.19238,50.206,22.275,57.298
2026-06-01 14:55:49.757,2209289213,105757,1,0.69995,-0.12866,0.90527,20.107,36.389,42.687
2026-06-01 14:55:49.757,2209289213,105757,2,0.91455,-0.40186,0.16553,49.718,4.344,27.87
2026-06-01 14:55:49.957,2209289413,105957,1,0.60449,-0.13379,0.97998,16.504,22.511,32.168
2026-06-01 14:55:49.957,2209289413,105957,2,0.85645,-0.45117,0.37695,-11.183,-18.237,-4.458
2026-06-01 14:55:49.157,2209288613,106157,1,0.54468,-0.13257,1.00488,0.656,4.855,9.817
2026-06-01 14:55:49.157,2209288613,106157,2,0.8291,-0.40869,0.32471,11.061,1.786,8.679
2026-06-01 14:55:49.357,2209288813,106357,1,0.52368,-0.12231,0.97632,-0.061,0.176,1.153
2026-06-01 14:55:49.357,2209288813,106357,2,0.85278,-0.42676,0.33569,-1.931,-1.954,1.107
2026-06-01 14:55:49.557,2209289013,106557,1,0.53906,-0.15454,0.96387,0.45,-3.496,3.779
2026-06-01 14:55:49.557,2209289013,106557,2,0.83789,-0.47681,0.29077,2.359,-11.374,5.611
2026-06-01 14:55:50.757,2209290213,106757,1,0.6062,-0.13867,0.94775,11.748,-1.527,13.137
2026-06-01 14:55:50.757,2209290213,106757,2,0.87744,-0.41675,0.27026,1.183,-1.092,3.962
2026-06-01 14:55:50.957,2209290413,106957,1,0.57446,-0.1814,0.92896,1.038,6.191,5.107
2026-06-01 14:55:50.957,2209290413,106957,2,0.85327,-0.45264,0.27588,12.58,3.649,3.313
2026-06-01 14:55:50.157,2209289613,107157,1,0.55103,-0.12891,0.98389,6.756,4.466,2.336
2026-06-01 14:55:50.157,2209289613,107157,2,0.84668,-0.4248,0.31592,3.656,0.443,1.412
2026-06-01 14:55:50.357,2209289813,107357,1,0.56104,-0.1355,0.96851,-1.13,-0.603,-1.954
2026-06-01 14:55:50.357,2209289813,107357,2,0.85767,-0.43115,0.31226,-5.916,-1.626,-1.504
2026-06-01 14:55:50.557,2209290013,107557,1,0.56567,-0.14258,0.99341,-2.878,0.802,-3.832
2026-06-01 14:55:50.557,2209290013,107557,2,0.85547,-0.43384,0.32813,-2.893,0.275,-1.374
2026-06-01 14:55:51.757,2209291213,107757,1,0.56909,-0.14453,0.95605,-0.328,0.382,-5.359
2026-06-01 14:55:51.757,2209291213,107757,2,0.85376,-0.4292,0.29785,-2.374,1.664,-0.954
2026-06-01 14:55:51.957,2209291413,107957,1,0.58521,-0.12427,0.99487,-3.878,-2.115,-5.221
2026-06-01 14:55:51.957,2209291413,107957,2,0.86157,-0.43726,0.28613,-19.687,-4.328,-5.206
2026-06-01 14:55:51.157,2209290613,108157,1,0.58276,-0.14014,0.95068,-1.26,-6.916,-3.382
2026-06-01 14:55:51.157,2209290613,108157,2,0.87012,-0.44678,0.27539,-6.496,-5.855,-0.656
2026-06-01 14:55:51.357,2209290813,108357,1,0.63037,-0.13892,0.9209,2.74,-9.099,0.076
2026-06-01 14:55:51.357,2209290813,108357,2,0.88647,-0.42261,0.24268,2.924,-6.863,0.16
2026-06-01 14:55:51.557,2209291013,108557,1,0.66187,-0.1333,0.89893,1.435,-4.878,-1.687
2026-06-01 14:55:51.557,2209291013,108557,2,0.89502,-0.42358,0.22437,-5.237,-2.237,-1.954
2026-06-01 14:55:52.757,2209292213,108757,1,0.67041,-0.12769,0.8811,0.16,-1.252,-3.748
2026-06-01 14:55:52.757,2209292213,108757,2,0.89551,-0.42456,0.20508,-1.748,-0.527,-1.519
2026-06-01 14:55:52.957,2209292413,108957,1,0.68042,-0.12598,0.89624,-0.947,-0.901,-3.779
2026-06-01 14:55:52.957,2209292413,108957,2,0.8999,-0.42334,0.21509,-2.504,0.771,-1.252
2026-06-01 14:55:52.157,2209291613,109157,1,0.68115,-0.1062,0.89087,-0.702,1.153,-2.168
2026-06-01 14:55:52.157,2209291613,109157,2,0.90405,-0.41431,0.21167,-3.802,2.107,-0.573
2026-06-01 14:55:52.357,2209291813,109357,1,0.67847,-0.11206,0.88989,1.214,2.374,-1.427
2026-06-01 14:55:52.357,2209291813,109357,2,0.90649,-0.42065,0.20508,3.977,0.718,1.366
2026-06-01 14:55:52.557,2209292013,109557,1,0.67871,-0.11304,0.89624,1.046,0.267,-0.214
2026-06-01 14:55:52.557,2209292013,109557,2,0.90381,-0.4209,0.21655,-2.664,-2.298,0.038
2026-06-01 14:55:53.757,2209293213,109757,1,0.69141,-0.12451,0.83569,-0.053,0.229,1.206
2026-06-01 14:55:53.757,2209293213,109757,2,0.91553,-0.4126,0.19922,4.466,2.321,0.656
2026-06-01 14:55:53.957,2209293413,109957,1,0.6665,-0.13086,0.92847,-1.084,-8.847,-6.321
2026-06-01 14:55:53.957,2209293413,109957,2,0.91357,-0.38672,0.19312,-20.221,-6.038,-9.733
2026-06-01 14:55:53.157,2209292613,110157,1,0.74829,-0.11914,0.89453,7.221,-29.863,-16.13
2026-06-01 14:55:53.157,2209292613,110157,2,0.97778,-0.3396,0.09082,-42.725,-24.198,-38.603
2026-06-01 14:55:53.357,2209292813,110357,1,0.83423,-0.02417,0.69604,13.336,-20.053,-29.328
2026-06-01 14:55:53.357,2209292813,110357,2,0.97412,-0.25049,0.01221,-13.893,-4.344,-30.427
2026-06-01 14:55:53.557,2209293013,110557,1,0.83423,0.13159,0.7168,21.0,-4.359,-27.084
2026-06-01 14:55:53.557,2209293013,110557,2,1.02881,-0.22827,0.09644,25.176,-9.542,-28.198
2026-06-01 14:55:54.757,2209294213,110757,1,0.78955,0.3894,0.67334,-5.55,-9.58,-3.969
2026-06-01 14:55:54.757,2209294213,110757,2,0.93994,0.11719,-0.07642,-48.695,-17.557,-2.908
2026-06-01 14:55:54.957,2209294413,110957,1,0.94141,0.07104,0.59033,-41.046,-14.855,4.809
2026-06-01 14:55:54.957,2209294413,110957,2,0.96313,-0.18042,-0.00854,-39.389,7.702,6.573
2026-06-01 14:55:54.157,2209293613,111157,1,0.96948,0.03638,0.59106,-20.931,-17.275,-3.076
2026-06-01 14:55:54.157,2209293613,111157,2,1.0332,-0.14917,-0.10059,-12.443,-10.733,4.183
2026-06-01 14:55:54.357,2209293813,111357,1,0.99512,0.02832,0.55322,-34.42,-0.969,-19.679
2026-06-01 14:55:54.357,2209293813,111357,2,0.98535,-0.22437,-0.23486,-59.145,5.336,-3.412
2026-06-01 14:55:54.557,2209294013,111557,1,1.04297,-0.02979,0.58838,-1.015,-13.015,-0.473
2026-06-01 14:55:54.557,2209294013,111557,2,1.06445,-0.21582,-0.10767,23.061,2.557,-9.176
2026-06-01 14:55:55.757,2209295213,111757,1,0.86694,0.11646,0.45068,10.977,-0.145,-3.351
2026-06-01 14:55:55.757,2209295213,111757,2,1.10962,-0.21289,-0.0188,17.725,5.863,13.206
2026-06-01 14:55:55.957,2209295413,111957,1,0.93726,0.06958,0.52173,1.084,-0.489,2.328
2026-06-01 14:55:55.957,2209295413,111957,2,1.02881,-0.07813,-0.05518,-1.076,-2.031,-10.412
2026-06-01 14:55:55.157,2209294613,112157,1,0.9895,0.07837,0.49585,3.176,-1.374,0.107
2026-06-01 14:55:55.157,2209294613,112157,2,1.03198,-0.16675,-0.09814,12.878,0.298,4.397
2026-06-01 14:55:55.357,2209294813,112357,1,0.99756,0.073,0.52026,7.58,4.427,2.046
2026-06-01 14:55:55.357,2209294813,112357,2,1.01758,-0.14624,-0.11743,2.046,2.931,2.55
2026-06-01 14:55:55.557,2209295013,112557,1,0.96899,0.07617,0.53027,0.023,7.061,-0.756
2026-06-01 14:55:55.557,2209295013,112557,2,1.01367,-0.14453,-0.16162,5.153,6.565,1.16
2026-06-01 14:55:56.757,2209296213,112757,1,0.95532,0.07422,0.54395,4.977,6.366,-0.26
2026-06-01 14:55:56.757,2209296213,112757,2,1.01221,-0.14795,-0.14478,1.939,-2.511,-0.092
2026-06-01 14:55:56.022,2209295478,113022,1,0.95752,0.11035,0.54541,7.359,8.504,2.229
2026-06-01 14:55:56.022,2209295478,113022,2,1.00366,-0.08203,-0.18823,-10.496,-2.298,-5.145
2026-06-01 14:55:56.222,2209295678,113222,1,0.96973,0.16211,0.55859,-2.481,-12.076,-6.473
2026-06-01 14:55:56.222,2209295678,113222,2,1.03613,-0.16357,-0.15576,-12.679,-13.893,2.443
2026-06-01 14:55:56.422,2209295878,113422,1,0.98999,0.07593,0.49878,-10.656,-9.534,-0.618
2026-06-01 14:55:56.422,2209295878,113422,2,1.03662,-0.14478,-0.1167,-10.557,-0.191,2.779
2026-06-01 14:55:57.622,2209297078,113622,1,1.0144,0.05371,0.46948,-15.008,-2.779,-5.427
2026-06-01 14:55:57.622,2209297078,113622,2,1.05078,-0.20923,-0.14917,-25.908,-5.45,1.405
2026-06-01 14:55:57.822,2209297278,113822,1,0.96289,0.08643,0.49951,2.16,5.962,1.061
2026-06-01 14:55:57.822,2209297278,113822,2,0.97119,-0.06934,-0.15137,1.55,3.145,3.924
2026-06-01 14:55:57.022,2209296478,114022,1,1.02832,0.1062,0.5061,-3.817,17.153,-4.969
2026-06-01 14:55:57.022,2209296478,114022,2,1.06396,-0.16138,-0.08765,13.863,20.748,22.298
2026-06-01 14:55:57.222,2209296678,114222,1,0.89307,0.06274,0.62695,-6.435,17.031,-6.87
2026-06-01 14:55:57.222,2209296678,114222,2,0.97632,-0.1897,-0.20313,-17.794,-4.229,1.153
2026-06-01 14:55:57.422,2209296878,114422,1,0.98047,0.04663,0.59766,10.069,-15.412,9.45
2026-06-01 14:55:57.422,2209296878,114422,2,1.01489,-0.07178,-0.15771,-5.779,-36.496,-9.672
2026-06-01 14:55:58.622,2209298078,114622,1,0.94995,0.0603,0.54492,6.153,-10.527,1.458
2026-06-01 14:55:58.622,2209298078,114622,2,0.98071,-0.14575,-0.18164,11.061,-15.359,-3.458
2026-06-01 14:55:58.822,2209298278,114822,1,1.01196,0.09204,0.47388,9.221,-1.443,6.092
2026-06-01 14:55:58.822,2209298278,114822,2,0.95728,-0.14697,-0.15527,33.489,12.153,6.954
2026-06-01 14:55:58.022,2209297478,115022,1,1.09253,0.13184,0.45728,1.786,6.183,-10.817
2026-06-01 14:55:58.022,2209297478,115022,2,1.02686,-0.16064,-0.17017,24.893,-5.374,24.885
2026-06-01 14:55:58.222,2209297678,115222,1,0.9563,0.08667,0.52783,8.718,4.634,1.534
2026-06-01 14:55:58.222,2209297678,115222,2,1.02197,-0.17822,-0.23926,-30.557,1.878,-1.794
2026-06-01 14:55:58.422,2209297878,115422,1,0.96704,0.07739,0.50244,-6.252,4.58,-4.168
2026-06-01 14:55:58.422,2209297878,115422,2,1.01563,-0.15234,-0.19336,-22.962,6.893,-3.718
2026-06-01 14:55:59.622,2209299078,115622,1,0.98657,0.08179,0.50098,-5.435,15.275,-2.427
2026-06-01 14:55:59.622,2209299078,115622,2,1.02759,-0.18115,-0.06812,10.351,35.908,9.969
2026-06-01 14:55:59.898,2209299354,115898,1,0.91187,0.06006,0.56641,0.863,48.229,-0.885
2026-06-01 14:55:59.898,2209299354,115898,2,0.97559,-0.229,0.08081,63.779,49.519,17.122
2026-06-01 14:55:59.098,2209298554,116098,1,0.69507,0.06128,0.61841,7.061,77.214,5.595
2026-06-01 14:55:59.098,2209298554,116098,2,0.72705,-0.14307,0.28369,36.351,101.061,9.0
2026-06-01 14:55:59.298,2209298754,116298,1,0.43115,0.10742,0.8562,6.153,56.435,9.687
2026-06-01 14:55:59.298,2209298754,116298,2,0.65723,-0.03369,0.53735,44.557,85.557,9.893
2026-06-01 14:55:59.498,2209298954,116498,1,0.36011,0.13794,1.05396,-2.038,7.573,2.366
2026-06-01 14:55:59.498,2209298954,116498,2,0.5481,-0.08325,0.64282,32.527,16.756,16.55
2026-06-01 14:56:00.698,2209300154,116698,1,0.43872,0.00269,1.13892,0.542,-48.718,12.466
2026-06-01 14:56:00.698,2209300154,116698,2,0.55811,0.14551,0.6333,51.557,29.466,16.649
2026-06-01 14:56:00.898,2209300354,116898,1,0.89209,0.05981,1.01465,-0.786,-73.405,-4.038
2026-06-01 14:56:00.898,2209300354,116898,2,0.7417,-0.02222,1.15552,-32.16,-27.595,-27.031
2026-06-01 14:56:00.098,2209299554,117098,1,1.021,0.15356,0.71118,4.221,-29.977,-2.0
2026-06-01 14:56:00.098,2209299554,117098,2,0.64819,-0.06201,0.71265,6.435,8.382,16.702
2026-06-01 14:56:00.298,2209299754,117298,1,0.88257,0.00879,0.61597,-4.214,-10.099,8.847
2026-06-01 14:56:00.298,2209299754,117298,2,0.698,-0.0415,0.68384,65.015,-49.16,50.916
2026-06-01 14:56:00.498,2209299954,117498,1,0.96265,-0.01099,0.58032,2.153,-11.489,1.534
2026-06-01 14:56:00.498,2209299954,117498,2,0.73389,-0.05371,0.66431,19.954,-4.221,13.282
2026-06-01 14:56:01.698,2209301154,117698,1,0.94824,-0.02808,0.5813,3.931,-11.099,4.55
2026-06-01 14:56:01.698,2209301154,117698,2,0.73267,-0.02417,0.62158,-9.29,-4.649,-2.885
2026-06-01 14:56:01.898,2209301354,117898,1,0.95752,0.04858,0.49683,-2.565,2.489,-1.092
2026-06-01 14:56:01.898,2209301354,117898,2,0.75049,-0.02148,0.66846,-0.344,1.092,-1.069
2026-06-01 14:56:01.098,2209300554,118098,1,0.92578,-0.01416,0.6084,-1.71,5.336,-4.122
2026-06-01 14:56:01.098,2209300554,118098,2,0.7334,-0.04199,0.62915,-8.229,-9.458,-4.542
2026-06-01 14:56:01.298,2209300754,118298,1,0.93921,-0.00415,0.5979,-7.122,5.137,-1.534
2026-06-01 14:56:01.298,2209300754,118298,2,0.80054,-0.00513,0.66357,2.42,-5.527,3.229
2026-06-01 14:56:01.498,2209300954,118498,1,1.32983,0.0144,0.71387,1.237,36.802,-4.519
2026-06-01 14:56:01.498,2209300954,118498,2,1.10889,-0.02856,0.83325,50.076,25.55,24.252
2026-06-01 14:56:02.698,2209302154,118698,1,0.71411,-0.07495,0.99097,18.802,73.771,-4.573
2026-06-01 14:56:02.698,2209302154,118698,2,0.67065,-0.03052,0.58301,-0.985,5.786,-18.504
2026-06-01 14:56:02.898,2209302354,118898,1,0.73193,0.1521,0.9856,0.366,-8.046,3.427
2026-06-01 14:56:02.898,2209302354,118898,2,0.85767,0.01587,0.70313,-16.58,-42.649,-3.832
2026-06-01 14:56:02.098,2209301554,119098,1,0.72046,0.04346,0.87695,-9.031,-6.267,-8.0
2026-06-01 14:56:02.098,2209301554,119098,2,0.77881,0.0376,0.32813,-60.031,-45.397,-5.382
2026-06-01 14:56:02.298,2209301754,119298,1,0.31323,0.00098,0.427,1.359,-67.641,-9.573
2026-06-01 14:56:02.298,2209301754,119298,2,0.44922,-0.09619,0.0625,-39.695,-90.618,-30.985
2026-06-01 14:56:02.498,2209301954,119498,1,1.00317,0.11133,0.43945,2.824,0.817,-1.145
2026-06-01 14:56:02.498,2209301954,119498,2,1.05054,-0.1792,0.12598,9.565,20.053,1.42
2026-06-01 14:56:03.722,2209303178,119722,1,0.9563,0.1228,0.52783,2.718,7.969,3.802
2026-06-01 14:56:03.722,2209303178,119722,2,1.021,-0.16748,0.03638,3.084,-3.893,9.489
2026-06-01 14:56:03.959,2209303415,119959,1,0.91235,0.07251,0.60742,-9.015,4.305,-2.824
2026-06-01 14:56:03.959,2209303415,119959,2,1.01294,-0.16064,0.09497,-6.076,4.947,-1.344
2026-06-01 14:56:03.159,2209302615,120159,1,0.94165,0.06079,0.57324,-0.977,9.16,-0.695
2026-06-01 14:56:03.159,2209302615,120159,2,1.02881,-0.14282,0.04956,23.718,10.29,5.198
2026-06-01 14:56:03.359,2209302815,120359,1,0.92188,0.04956,0.6189,-1.565,10.695,-3.55
2026-06-01 14:56:03.359,2209302815,120359,2,1.02734,-0.0896,0.06641,0.878,8.214,1.206
2026-06-01 14:56:03.559,2209303015,120559,1,0.91211,0.06226,0.6062,-1.672,13.527,-4.992
2026-06-01 14:56:03.559,2209303015,120559,2,1.01514,-0.16699,0.21997,14.809,22.992,6.435
2026-06-01 14:56:04.759,2209304215,120759,1,0.57813,0.0437,0.64648,-8.122,33.42,-4.71
2026-06-01 14:56:04.759,2209304215,120759,2,0.64331,-0.20044,0.13013,-8.656,45.611,4.779
2026-06-01 14:56:04.959,2209304415,120959,1,0.53882,-0.00195,0.60132,1.298,21.366,7.26
2026-06-01 14:56:04.959,2209304415,120959,2,0.72729,-0.11987,0.08887,5.061,18.084,6.664
2026-06-01 14:56:04.159,2209303615,121159,1,0.79175,-0.00024,0.81909,0.565,-12.511,10.947
2026-06-01 14:56:04.159,2209303615,121159,2,1.00708,-0.23022,0.40283,-64.534,20.87,-4.809
2026-06-01 14:56:04.359,2209303815,121359,1,0.93018,0.02637,0.90747,-10.137,-27.168,-8.145
2026-06-01 14:56:04.359,2209303815,121359,2,1.09985,-0.16528,0.68848,9.107,-2.687,-4.794
2026-06-01 14:56:04.559,2209304015,121559,1,0.61914,0.14722,1.72363,-20.527,-15.069,1.328
2026-06-01 14:56:04.559,2209304015,121559,2,0.7793,-0.16968,0.44434,33.275,34.198,-0.573
2026-06-01 14:56:05.782,2209305238,121782,1,0.9231,0.10815,0.70752,-14.061,-14.71,2.389
2026-06-01 14:56:05.782,2209305238,121782,2,0.76416,-0.08447,0.63623,-1.16,-10.962,4.481
2026-06-01 14:56:05.982,2209305438,121982,1,0.95776,0.05176,0.56787,3.832,-8.031,-0.115
2026-06-01 14:56:05.982,2209305438,121982,2,0.79785,-0.04492,0.67871,,-5.542,1.527
2026-06-01 14:56:05.182,2209304638,122182,1,0.94897,0.01392,0.57031,0.824,-1.74,-0.053
2026-06-01 14:56:05.182,2209304638,122182,2,0.75317,-0.07739,0.61548,-0.985,0.473,1.252
2026-06-01 14:56:05.382,2209304838,122382,1,0.95044,-0.0332,0.55029,0.626,-2.252,0.71
2026-06-01 14:56:05.382,2209304838,122382,2,0.78101,-0.02539,0.59424,-3.672,3.053,-2.473
2026-06-01 14:56:05.582,2209305038,122582,1,0.9668,-0.01758,0.55151,0.832,0.725,0.359
2026-06-01 14:56:05.582,2209305038,122582,2,0.77246,-0.03198,0.63623,8.405,3.641,5.649
2026-06-01 14:56:06.782,2209306238,122782,1,0.95068,0.00098,0.56812,-0.885,-0.359,0.656
2026-06-01 14:56:06.782,2209306238,122782,2,0.74951,-0.05493,0.63818,4.985,2.42,4.015
2026-06-01 14:56:06.982,2209306438,122982,1,0.96289,-0.0083,0.55005,-4.031,-1.313,1.603
2026-06-01 14:56:06.982,2209306438,122982,2,0.74902,-0.03857,0.62769,-1.321,-1.832,3.595
2026-06-01 14:56:06.182,2209305638,123182,1,0.96582,-0.01758,0.53979,1.122,2.069,-0.794
2026-06-01 14:56:06.182,2209305638,123182,2,0.7627,-0.03223,0.63403,1.931,8.252,4.626
2026-06-01 14:56:06.382,2209305838,123382,1,0.94775,-0.07715,0.55811,2.901,3.916,0.115
2026-06-01 14:56:06.382,2209305838,123382,2,0.75366,-0.03687,0.63965,-3.771,-3.626,-2.405
2026-06-01 14:56:06.609,2209306065,123609,1,0.97778,,0.54199,-1.015,-0.534,-0.977
2026-06-01 14:56:06.609,2209306065,123609,2,0.73071,-0.03809,0.62964,0.786,2.145,1.321
2026-06-01 14:56:07.809,2209307265,123809,1,0.93848,-0.01489,0.52197,7.954,10.29,-6.107
2026-06-01 14:56:07.809,2209307265,123809,2,0.71362,-0.05396,0.67969,10.092,11.672,4.397
2026-06-01 14:56:07.009,2209306465,124009,1,1.20459,0.03638,0.58765,-4.733,16.397,0.176
2026-06-01 14:56:07.009,2209306465,124009,2,1.21509,-0.06421,1.27856,2.733,3.664,-2.885
2026-06-01 14:56:07.209,2209306665,124209,1,0.89844,0.04736,0.94849,13.481,57.809,-0.389
2026-06-01 14:56:07.209,2209306665,124209,2,0.70435,-0.18188,0.45166,-52.305,-44.664,-2.992
2026-06-01 14:56:07.409,2209306865,124409,1,0.88989,0.07349,0.81836,-11.275,-29.58,-7.977
2026-06-01 14:56:07.409,2209306865,124409,2,0.94092,-0.16064,0.42896,-51.832,-56.092,-0.092
2026-06-01 14:56:07.609,2209307065,124609,1,0.66431,-0.04126,0.38037,-2.786,-33.55,-11.565
2026-06-01 14:56:07.609,2209307065,124609,2,0.49902,-0.0293,0.12256,-79.313,-74.863,-13.076
2026-06-01 14:56:08.809,2209308265,124809,1,0.64673,0.06201,0.28638,7.023,-48.924,1.855
2026-06-01 14:56:08.809,2209308265,124809,2,1.14917,-0.30884,0.12402,-3.687,-20.664,10.366
2026-06-01 14:56:08.009,2209307465,125009,1,0.89136,0.06348,0.44434,-11.305,-11.038,-1.863
2026-06-01 14:56:08.009,2209307465,125009,2,0.99927,-0.14307,-0.09473,-6.901,-1.313,-5.557
2026-06-01 14:56:08.209,2209307665,125209,1,1.01318,0.02319,0.45142,-11.885,-2.351,-4.45
2026-06-01 14:56:08.209,2209307665,125209,2,1.02173,-0.19922,-0.06543,1.084,5.901,-0.626
2026-06-01 14:56:08.409,2209307865,125409,1,0.99097,0.05469,0.43481,3.519,3.305,2.771
2026-06-01 14:56:08.409,2209307865,125409,2,1.02393,-0.18042,-0.08911,0.176,-0.672,-0.359
2026-06-01 14:56:08.609,2209308065,125609,1,1.01001,0.05078,0.46411,-10.725,5.26,8.397
2026-06-01 14:56:08.609,2209308065,125609,2,0.99121,-0.16016,-0.12476,-38.603,3.145,-10.092
2026-06-01 14:56:09.809,2209309265,125809,1,0.9873,0.03369,0.46899,-8.412,3.344,1.153
2026-06-01 14:56:09.809,2209309265,125809,2,1.02588,-0.1521,-0.10425,-26.313,2.084,-1.504
2026-06-01 14:56:09.009,2209308465,126009,1,0.97217,0.03003,0.50659,-3.153,1.626,-0.511
2026-06-01 14:56:09.009,2209308465,126009,2,1.00806,-0.17358,-0.08765,10.046,3.573,4.908
2026-06-01 14:56:09.209,2209308665,126209,1,0.97485,0.03906,0.48828,5.718,6.191,-3.901
2026-06-01 14:56:09.209,2209308665,126209,2,0.99927,-0.15967,-0.17725,,-1.107,-1.885
2026-06-01 14:56:09.409,2209308865,126409,1,0.97437,0.03589,0.4856,0.985,-0.015,-2.634
2026-06-01 14:56:09.409,2209308865,126409,2,1.01343,-0.17578,-0.12256,-3.489,2.557,0.313
2026-06-01 14:56:09.609,2209309065,126609,1,0.98657,0.03247,0.48804,-4.267,1.603,-0.664
2026-06-01 14:56:09.609,2209309065,126609,2,1.01489,-0.1582,-0.14014,-18.214,2.672,-3.931
2026-06-01 14:56:10.809,2209310265,126809,1,0.97437,0.00342,0.48926,0.832,2.435,0.573
2026-06-01 14:56:10.809,2209310265,126809,2,1.01709,-0.14063,-0.13232,-19.832,3.282,-9.664
2026-06-01 14:56:10.009,2209309465,127009,1,0.99658,0.03198,0.48364,5.542,0.893,-2.038
2026-06-01 14:56:10.009,2209309465,127009,2,1.01587,-0.15601,-0.08643,8.496,2.13,1.588
2026-06-01 14:56:10.209,2209309665,127209,1,0.99683,0.04565,0.45752,2.305,0.893,-2.382
2026-06-01 14:56:10.209,2209309665,127209,2,1.02686,-0.15503,-0.08862,-0.168,1.031,-0.534
2026-06-01 14:56:10.409,2209309865,127409,1,0.98926,0.05737,0.47656,6.069,2.031,-2.328
2026-06-01 14:56:10.409,2209309865,127409,2,1.02417,-0.1394,-0.10376,1.374,-2.756,-5.16
2026-06-01 14:56:10.609,2209310065,127609,1,1.00439,0.07495,0.45581,8.924,0.481,2.13
2026-06-01 14:56:10.609,2209310065,127609,2,1.02686,-0.11963,-0.11792,5.809,1.015,0.183
2026-06-01 14:56:11.809,2209311265,127809,1,0.9856,0.07007,0.46582,0.13,3.565,-1.008
2026-06-01 14:56:11.809,2209311265,127809,2,1.02319,-0.12402,-0.10156,-1.206,-0.863,0.679
2026-06-01 14:56:11.009,2209310465,128009,1,0.98926,0.04834,0.45972,-2.603,3.305,-1.847
2026-06-01 14:56:11.009,2209310465,128009,2,1.02319,-0.14136,-0.09106,-2.824,-0.183,1.565
2026-06-01 14:56:11.209,2209310665,128209,1,1.00073,0.05737,0.4585,1.427,7.817,0.023
2026-06-01 14:56:11.209,2209310665,128209,2,1.03882,-0.15967,-0.0603,6.656,10.336,3.832
2026-06-01 14:56:11.409,2209310865,128409,1,1.00732,0.06348,0.44043,3.947,32.878,-3.405
2026-06-01 14:56:11.409,2209310865,128409,2,1.07959,-0.1853,0.05493,58.298,41.221,14.817
2026-06-01 14:56:11.609,2209311065,128609,1,0.85669,0.05078,0.46021,5.695,86.229,-10.702
2026-06-01 14:56:11.609,2209311065,128609,2,0.92432,-0.17627,0.18408,89.374,110.557,7.794
2026-06-01 14:56:12.809,2209312265,128809,1,0.35229,0.11401,0.68335,-0.366,156.977,-10.58
2026-06-01 14:56:12.809,2209312265,128809,2,0.75684,-0.07349,0.59009,43.565,138.595,-6.504
2026-06-01 14:56:12.009,2209311465,129009,1,-0.05908,0.13916,1.15576,-1.466,126.321,-10.855
2026-06-01 14:56:12.009,2209311465,129009,2,0.39502,0.08521,1.07227,14.924,84.45,-15.534
2026-06-01 14:56:12.209,2209311665,129209,1,-0.35498,0.10083,1.23169,-10.13,59.656,-6.244
2026-06-01 14:56:12.209,2209311665,129209,2,0.09692,0.1582,0.96924,-0.908,39.863,-3.153
2026-06-01 14:56:12.409,2209311865,129409,1,-0.40649,0.08228,1.07837,-2.656,23.42,-1.061
2026-06-01 14:56:12.409,2209311865,129409,2,-0.02026,0.15894,0.94116,-3.061,11.565,0.435
2026-06-01 14:56:13.669,2209313125,129669,1,-0.4021,0.07617,0.99023,-9.771,10.481,-2.863
2026-06-01 14:56:13.669,2209313125,129669,2,-0.04614,0.15405,0.92847,1.198,12.084,0.13
2026-06-01 14:56:13.869,2209313325,129869,1,-0.43115,0.06055,0.99683,4.695,5.359,-0.695
2026-06-01 14:56:13.869,2209313325,129869,2,-0.0835,0.17163,0.92578,1.229,3.939,-1.366
2026-06-01 14:56:13.069,2209312525,130069,1,-0.40771,0.09399,0.95776,4.534,1.046,-1.115
2026-06-01 14:56:13.069,2209312525,130069,2,-0.06128,0.15747,0.94165,-0.603,1.557,-1.641
2026-06-01 14:56:13.269,2209312725,130269,1,-0.45313,0.10132,1.0061,-0.351,1.786,-0.656
2026-06-01 14:56:13.269,2209312725,130269,2,-0.07349,0.16504,0.93237,-5.427,-4.0,-0.565
2026-06-01 14:56:13.469,2209312925,130469,1,-0.39893,0.07837,0.98486,-0.573,3.344,0.084
2026-06-01 14:56:13.469,2209312925,130469,2,-0.03662,0.15112,0.94824,1.038,-0.58,0.924
2026-06-01 14:56:14.669,2209314125,130669,1,-0.4353,0.06323,1.00562,0.122,-0.679,0.885
2026-06-01 14:56:14.669,2209314125,130669,2,-0.03662,0.17114,0.92505,-5.191,-12.015,1.412
2026-06-01 14:56:14.869,2209314325,130869,1,-0.39307,0.08936,1.00659,2.679,-4.313,1.267
2026-06-01 14:56:14.869,2209314325,130869,2,-0.00317,0.15674,0.92798,-0.55,-10.405,-0.137
2026-06-01 14:56:14.069,2209313525,131069,1,-0.39307,0.13159,1.05127,-1.16,-15.252,1.809
2026-06-01 14:56:14.069,2209313525,131069,2,0.0271,0.16797,0.92456,-5.198,-21.733,5.366
2026-06-01 14:56:14.269,2209313725,131269,1,-0.32837,0.08301,1.06201,0.313,-31.382,3.695
2026-06-01 14:56:14.269,2209313725,131269,2,0.19849,0.10449,0.9231,-10.137,-47.29,5.344
2026-06-01 14:56:14.469,2209313925,131469,1,-0.24658,0.14258,1.21875,-3.313,-49.321,4.725
2026-06-01 14:56:14.469,2209313925,131469,2,0.34424,0.09106,0.87402,-25.916,-78.221,8.786
2026-06-01 14:56:15.669,2209315125,131669,1,-0.01782,0.06641,1.12036,-2.626,-103.023,9.405
2026-06-01 14:56:15.669,2209315125,131669,2,0.68604,-0.04077,0.60718,-46.053,-113.573,6.71
2026-06-01 14:56:15.869,2209315325,131869,1,0.33179,0.09619,0.93262,1.603,-119.969,-2.221
2026-06-01 14:56:15.869,2209315325,131869,2,0.90332,-0.17603,0.31152,-54.74,-89.908,-6.069
2026-06-01 14:56:15.069,2209314525,132069,1,0.65698,0.01489,0.53442,3.557,-124.137,-2.092
2026-06-01 14:56:15.069,2209314525,132069,2,1.04102,-0.30518,0.08374,-15.038,-45.053,-5.099
2026-06-01 14:56:15.269,2209314725,132269,1,1.12402,0.06665,0.24585,-5.45,-25.336,-2.969
2026-06-01 14:56:15.269,2209314725,132269,2,1.02979,-0.16431,-0.23145,-6.969,-0.84,-7.321
2026-06-01 14:56:15.469,2209314925,132469,1,1.01929,0.05908,0.44458,0.611,10.046,0.863
2026-06-01 14:56:15.469,2209314925,132469,2,0.99438,-0.13501,-0.21362,-2.519,1.733,-1.237
2026-06-01 14:56:16.669,2209316125,132669,1,0.99243,0.05176,0.4563,-0.824,5.405,-0.985
2026-06-01 14:56:16.669,2209316125,132669,2,0.9895,-0.1626,-0.19043,-1.771,2.229,0.985
2026-06-01 14:56:16.869,2209316325,132869,1,1.02002,0.08716,0.427,1.153,3.321,0.962
2026-06-01 14:56:16.869,2209316325,132869,2,1.01099,-0.14502,-0.20288,-1.458,-0.893,1.031
2026-06-01 14:56:16.100,2209315556,133100,1,0.99536,0.05444,0.47241,1.794,2.885,0.87
2026-06-01 14:56:16.100,2209315556,133100,2,1.02051,-0.13428,-0.18188,2.588,0.015,-0.267
2026-06-01 14:56:16.300,2209315756,133300,1,0.98511,0.07935,0.47241,0.603,3.092,-0.55
2026-06-01 14:56:16.300,2209315756,133300,2,1.01001,-0.14502,-0.18506,-1.733,4.542,0.634
2026-06-01 14:56:16.500,2209315956,133500,1,0.99243,0.06079,0.47583,-1.74,3.802,
2026-06-01 14:56:16.500,2209315956,133500,2,1.01416,-0.16113,-0.17749,-2.046,1.321,0.191
2026-06-01 14:56:17.700,2209317156,133700,1,0.99561,0.05249,0.46802,2.023,7.366,0.153
2026-06-01 14:56:17.700,2209317156,133700,2,1.0061,-0.15259,-0.17896,2.076,5.626,1.267
2026-06-01 14:56:17.900,2209317356,133900,1,0.97144,0.05713,0.49097,1.237,12.42,-0.26
2026-06-01 14:56:17.900,2209317356,133900,2,1.03662,-0.16211,-0.15039,-5.221,14.176,1.794
2026-06-01 14:56:17.100,2209316556,134100,1,0.98413,0.05542,0.48877,2.733,23.855,-1.489
2026-06-01 14:56:17.100,2209316556,134100,2,1.0271,-0.17554,-0.03101,13.718,28.878,5.267
2026-06-01 14:56:17.300,2209316756,134300,1,0.88672,0.10718,0.55347,0.435,51.305,-6.527
2026-06-01 14:56:17.300,2209316756,134300,2,1.01758,-0.21436,0.10254,58.153,62.237,12.191
2026-06-01 14:56:17.500,2209316956,134500,1,0.69141,0.07056,0.72876,6.427,82.176,0.817
2026-06-01 14:56:17.500,2209316956,134500,2,0.97729,-0.14819,0.38452,65.641,76.565,8.168
2026-06-01 14:56:18.700,2209318156,134700,1,0.39502,0.05591,0.93994,3.046,97.725,-5.977
2026-06-01 14:56:18.700,2209318156,134700,2,0.74634,-0.07544,0.65381,8.206,92.786,-6.664
2026-06-01 14:56:18.978,2209318434,134978,1,-0.08691,0.10986,1.13574,-4.0,84.885,-8.145
2026-06-01 14:56:18.978,2209318434,134978,2,0.4314,0.02539,0.88721,20.779,64.176,4.557
2026-06-01 14:56:18.178,2209317634,135178,1,-0.28076,0.0686,1.17017,-1.122,52.046,0.71
2026-06-01 14:56:18.178,2209317634,135178,2,0.25952,0.11182,0.90845,12.565,51.496,0.847
2026-06-01 14:56:18.378,2209317834,135378,1,-0.39673,0.06909,1.08545,1.321,31.794,-0.947
2026-06-01 14:56:18.378,2209317834,135378,2,0.08154,0.10938,0.94067,5.397,29.405,-0.466
2026-06-01 14:56:18.578,2209318034,135578,1,-0.44385,0.06299,1.00122,-1.038,17.962,-1.29
2026-06-01 14:56:18.578,2209318034,135578,2,-0.12769,0.17188,0.98535,9.58,9.443,2.038
2026-06-01 14:56:19.778,2209319234,135778,1,-0.41235,0.08423,0.93091,-4.496,-6.267,-4.023
2026-06-01 14:56:19.778,2209319234,135778,2,-0.01367,0.08691,0.96484,-3.481,-2.802,0.351
2026-06-01 14:56:19.978,2209319434,135978,1,-0.43091,0.07666,1.03931,-1.412,-4.344,-1.847
2026-06-01 14:56:19.978,2209319434,135978,2,0.01465,0.10889,0.94922,-3.244,-12.634,2.542
2026-06-01 14:56:19.178,2209318634,136178,1,-0.46191,0.07178,1.1521,3.038,-30.0,1.191
2026-06-01 14:56:19.178,2209318634,136178,2,0.1001,0.08862,0.98511,-16.786,-53.481,-0.115
2026-06-01 14:56:19.378,2209318834,136378,1,-0.29712,0.1106,1.17896,6.725,-76.45,8.26
2026-06-01 14:56:19.378,2209318834,136378,2,0.42603,-0.01465,0.80542,-23.855,-92.786,-2.557
2026-06-01 14:56:19.578,2209319034,136578,1,0.01807,0.1145,1.06323,-3.748,-113.076,4.099
2026-06-01 14:56:19.578,2209319034,136578,2,0.94849,-0.19409,0.39502,-80.176,-119.053,-19.786
2026-06-01 14:56:20.844,2209320300,136844,1,0.6272,0.06372,0.67554,-1.817,-121.42,3.412
2026-06-01 14:56:20.844,2209320300,136844,2,0.9729,-0.21851,0.14185,-56.641,-115.542,-24.366
2026-06-01 14:56:20.044,2209319500,137044,1,0.96655,0.04517,0.47437,-14.359,-55.298,-5.16
2026-06-01 14:56:20.044,2209319500,137044,2,1.05273,-0.14453,-0.06934,-17.908,-42.237,-10.053
2026-06-01 14:56:20.244,2209319700,137244,1,1.04468,0.0686,0.427,-5.344,-22.466,-2.481
2026-06-01 14:56:20.244,2209319700,137244,2,1.04102,-0.19238,-0.18164,-54.595,-9.275,-2.618
2026-06-01 14:56:20.444,2209319900,137444,1,1.00903,0.02832,0.43799,-2.061,-0.122,3.237
2026-06-01 14:56:20.444,2209319900,137444,2,1.01978,-0.1792,-0.18652,-3.527,1.542,-0.084
2026-06-01 14:56:21.644,2209321100,137644,1,0.98071,0.03076,0.46851,6.0,5.626,0.786
2026-06-01 14:56:21.644,2209321100,137644,2,0.98682,-0.15845,-0.21802,8.053,-0.153,-0.893
2026-06-01 14:56:21.844,2209321300,137844,1,1.00806,0.06104,0.45923,1.489,-0.275,-0.542
2026-06-01 14:56:21.844,2209321300,137844,2,1.01099,-0.16333,-0.18262,-0.244,-1.069,0.885
2026-06-01 14:56:21.044,2209320500,138044,1,1.00098,0.05713,0.45361,-0.931,3.863,-0.038
2026-06-01 14:56:21.044,2209320500,138044,2,1.00635,-0.17822,-0.17944,4.611,5.366,4.847
2026-06-01 14:56:21.244,2209320700,138244,1,0.98975,0.04272,0.45898,-2.42,3.824,-1.481
2026-06-01 14:56:21.244,2209320700,138244,2,1.01367,-0.18384,-0.17285,2.748,2.504,1.198
2026-06-01 14:56:21.444,2209320900,138444,1,0.99097,0.04175,0.45703,0.977,3.023,-0.443
2026-06-01 14:56:21.444,2209320900,138444,2,1.01025,-0.1814,-0.17065,5.969,2.992,1.618
2026-06-01 14:56:22.644,2209322100,138644,1,0.96167,0.05151,0.5144,-4.489,-0.626,5.679
2026-06-01 14:56:22.644,2209322100,138644,2,1.00708,-0.19702,-0.15649,-1.397,-0.29,1.374
2026-06-01 14:56:22.844,2209322300,138844,1,0.96606,0.0415,0.49512,-3.511,4.947,-4.939
2026-06-01 14:56:22.844,2209322300,138844,2,0.9939,-0.19995,-0.14209,-17.389,-1.267,-0.099
2026-06-01 14:56:22.044,2209321500,139044,1,0.98047,0.02783,0.50732,-3.305,1.771,-3.435
2026-06-01 14:56:22.044,2209321500,139044,2,1.00684,-0.21802,-0.14136,-2.13,0.786,1.74
2026-06-01 14:56:22.244,2209321700,139244,1,0.96753,0.02954,0.51221,1.626,0.733,-0.107
2026-06-01 14:56:22.244,2209321700,139244,2,1.01733,-0.20483,-0.13623,-0.496,1.771,-0.328
2026-06-01 14:56:22.444,2209321900,139444,1,0.97949,0.03198,0.50415,3.191,1.786,-0.206
2026-06-01 14:56:22.444,2209321900,139444,2,1.02173,-0.18823,-0.1333,-0.374,0.275,-0.489
2026-06-01 14:56:23.644,2209323100,139644,1,0.97998,0.03979,0.5105,-0.504,4.076,-2.031
2026-06-01 14:56:23.644,2209323100,139644,2,1.01611,-0.18604,-0.12354,-2.076,2.489,-0.26
2026-06-01 14:56:23.844,2209323300,139844,1,0.97168,0.04175,0.51025,-2.015,8.298,-2.847
2026-06-01 14:56:23.844,2209323300,139844,2,1.01392,-0.18506,-0.12866,-8.763,5.359,7.496
2026-06-01 14:56:23.061,2209322517,140061,1,0.9541,0.01123,0.5332,-1.382,8.939,-2.443
2026-06-01 14:56:23.061,2209322517,140061,2,1.00098,-0.21045,-0.12866,-12.74,18.718,-4.504
2026-06-01 14:56:23.261,2209322717,140261,1,0.94458,0.01221,0.56494,9.504,-1.466,4.504
2026-06-01 14:56:23.261,2209322717,140261,2,1.02148,-0.14258,-0.15503,20.366,-5.725,-6.214
2026-06-01 14:56:23.461,2209322917,140461,1,0.97778,0.12646,0.5083,3.779,-11.832,-2.351
2026-06-01 14:56:23.461,2209322917,140461,2,1.01147,-0.17456,-0.14258,-13.924,-12.779,3.053
2026-06-01 14:56:24.661,2209324117,140661,1,0.99365,0.03149,0.49097,1.214,-1.794,1.145
2026-06-01 14:56:24.661,2209324117,140661,2,1.02832,-0.17285,-0.11841,-5.695,-0.672,-0.748
2026-06-01 14:56:24.861,2209324317,140861,1,0.99146,0.04224,0.49048,-1.092,3.237,-1.809
2026-06-01 14:56:24.861,2209324317,140861,2,1.01147,-0.17505,-0.13794,-5.198,0.634,0.931
2026-06-01 14:56:24.061,2209323517,141061,1,0.97852,0.05005,0.50293,1.382,5.13,-0.206
2026-06-01 14:56:24.061,2209323517,141061,2,1.01611,-0.16113,-0.15479,6.221,3.626,1.122
2026-06-01 14:56:24.261,2209323717,141261,1,0.97314,0.04834,0.5022,0.336,2.282,-0.137
2026-06-01 14:56:24.261,2209323717,141261,2,1.00977,-0.17529,-0.14478,-2.29,1.351,1.489
2026-06-01 14:56:24.461,2209323917,141461,1,0.97681,0.05273,0.50708,1.13,2.183,-0.969
2026-06-01 14:56:24.461,2209323917,141461,2,1.02148,-0.16064,-0.14893,-2.038,0.672,-1.191
2026-06-01 14:56:25.661,2209325117,141661,1,0.97437,0.04688,0.51636,-1.344,2.206,-1.145
2026-06-01 14:56:25.661,2209325117,141661,2,1.00537,-0.16357,-0.13574,-0.328,2.466,0.137
2026-06-01 14:56:25.899,2209325355,141899,1,0.96387,0.03784,0.51465,2.344,-1.557,-0.718
2026-06-01 14:56:25.899,2209325355,141899,2,1.00659,-0.16748,-0.13403,-5.069,-0.885,-2.153
2026-06-01 14:56:25.099,2209324555,142099,1,0.97827,0.05005,0.47778,8.634,-4.573,-7.382
2026-06-01 14:56:25.099,2209324555,142099,2,1.0188,-0.17725,-0.16406,7.26,-1.672,-4.992
2026-06-01 14:56:25.299,2209324755,142299,1,0.99365,0.13745,0.46362,8.802,0.427,3.58
2026-06-01 14:56:25.299,2209324755,142299,2,1.01733,-0.13037,-0.13892,-1.153,-3.985,0.962
2026-06-01 14:56:25.499,2209324955,142499,1,0.98706,0.0686,0.48999,1.008,-2.702,0.305
2026-06-01 14:56:25.499,2209324955,142499,2,1.01904,-0.13501,-0.14868,-5.328,-1.336,-1.947
2026-06-01 14:56:26.699,2209326155,142699,1,0.95557,0.09033,0.42212,-4.084,1.855,-1.321
2026-06-01 14:56:26.699,2209326155,142699,2,1.03931,-0.15161,-0.17554,-3.656,2.573,3.023
2026-06-01 14:56:26.899,2209326355,142899,1,0.99121,0.07251,0.49658,2.397,6.435,1.252
2026-06-01 14:56:26.899,2209326355,142899,2,1.01587,-0.1438,-0.17578,0.992,5.191,1.496
2026-06-01 14:56:26.099,2209325555,143099,1,0.97632,0.0564,0.48096,-2.557,5.389,-2.916
2026-06-01 14:56:26.099,2209325555,143099,2,1.00903,-0.15112,-0.19556,-0.183,1.748,2.321
2026-06-01 14:56:26.299,2209325755,143299,1,0.95752,0.07617,0.48511,0.794,-1.87,-0.748
2026-06-01 14:56:26.299,2209325755,143299,2,1.02246,-0.14575,-0.16797,-4.176,-3.679,-1.046
2026-06-01 14:56:26.499,2209325955,143499,1,0.98047,0.07715,0.46924,1.26,-0.351,-1.855
2026-06-01 14:56:26.499,2209325955,143499,2,1.0249,-0.14307,-0.17578,0.511,1.695,0.55
2026-06-01 14:56:27.699,2209327155,143699,1,1.00317,0.08105,0.45483,0.634,5.641,-1.153
2026-06-01 14:56:27.699,2209327155,143699,2,1.0271,-0.15308,-0.15381,3.664,3.107,1.58
2026-06-01 14:56:27.899,2209327355,143899,1,0.97803,0.08398,0.47705,3.954,8.954,-0.275
2026-06-01 14:56:27.899,2209327355,143899,2,1.03174,-0.15503,-0.125,7.374,8.145,3.565
2026-06-01 14:56:27.099,2209326555,144099,1,0.95483,0.09253,0.51538,2.298,16.916,-2.954
2026-06-01 14:56:27.099,2209326555,144099,2,1.01953,-0.16382,-0.13184,14.313,19.595,3.962
2026-06-01 14:56:27.299,2209326755,144299,1,0.92773,0.11792,0.59766,-1.855,19.344,0.664
2026-06-01 14:56:27.299,2209326755,144299,2,0.98218,-0.17041,-0.06934,2.618,10.061,2.031
2026-06-01 14:56:27.499,2209326955,144499,1,0.89966,0.09351,0.61743,1.076,-5.679,1.466
2026-06-01 14:56:27.499,2209326955,144499,2,1.02246,-0.16382,-0.10962,10.435,-0.137,3.374
2026-06-01 14:56:28.699,2209328155,144699,1,1.00171,0.07983,0.48755,-0.74,24.389,-1.412
2026-06-01 14:56:28.699,2209328155,144699,2,1.07959,-0.2417,0.07813,63.351,38.237,19.695
2026-06-01 14:56:28.899,2209328355,144899,1,0.42114,-0.04932,0.41528,-3.305,90.29,1.443
2026-06-01 14:56:28.899,2209328355,144899,2,0.40308,-0.12573,0.21021,83.489,111.931,20.481
2026-06-01 14:56:28.099,2209327555,145099,1,0.5127,0.1731,0.83813,-1.298,38.023,1.29
2026-06-01 14:56:28.099,2209327555,145099,2,0.7959,-0.08984,0.51538,-3.565,37.641,3.763
2026-06-01 14:56:28.299,2209327755,145299,1,0.6438,0.16797,1.07275,4.611,-9.565,7.015
2026-06-01 14:56:28.299,2209327755,145299,2,0.77417,0.01758,0.61328,24.122,24.664,12.87
2026-06-01 14:56:28.499,2209327955,145499,1,0.85229,0.09912,0.86621,21.191,-87.832,23.069
2026-06-01 14:56:28.499,2209327955,145499,2,0.89331,0.09497,0.95825,121.321,0.847,38.939
2026-06-01 14:56:29.699,2209329155,145699,1,1.07202,0.12915,0.88354,-2.969,-31.687,-6.282
2026-06-01 14:56:29.699,2209329155,145699,2,0.76196,0.01099,0.79395,66.0,-30.916,41.824
2026-06-01 14:56:29.899,2209329355,145899,1,1.00488,-0.0144,0.53784,-5.206,-14.679,3.221
2026-06-01 14:56:29.899,2209329355,145899,2,0.74463,-0.07495,0.52734,-37.351,-20.023,-11.092
2026-06-01 14:56:29.099,2209328555,146099,1,0.92822,0.0022,0.52881,-19.58,-5.275,-1.916
2026-06-01 14:56:29.099,2209328555,146099,2,0.81323,-0.07275,0.59717,-15.038,-19.198,-1.115
2026-06-01 14:56:29.299,2209328755,146299,1,0.98096,0.00415,0.51294,0.397,-4.939,-0.634
2026-06-01 14:56:29.299,2209328755,146299,2,0.88379,-0.11694,0.53857,2.031,-0.832,3.435
2026-06-01 14:56:29.499,2209328955,146499,1,1.51831,0.04834,0.41455,7.809,73.656,-9.069
2026-06-01 14:56:29.499,2209328955,146499,2,1.34033,-0.09619,0.50488,-21.908,44.885,-11.908
2026-06-01 14:56:30.699,2209330155,146699,1,0.71899,-0.00049,0.90747,-0.458,35.137,-8.855
2026-06-01 14:56:30.699,2209330155,146699,2,0.79175,-0.14209,0.60669,-0.328,-16.779,0.267
2026-06-01 14:56:30.927,2209330383,146927,1,0.85449,0.08252,0.87695,0.473,-13.038,-3.427
2026-06-01 14:56:30.927,2209330383,146927,2,1.01392,-0.08276,0.42529,-20.641,-44.931,8.779
2026-06-01 14:56:30.127,2209329583,147127,1,0.64795,0.00439,0.61255,4.756,-33.672,-8.206
2026-06-01 14:56:30.127,2209329583,147127,2,0.50977,-0.07739,-0.03027,-59.29,-75.221,-14.664
2026-06-01 14:56:30.327,2209329783,147327,1,0.65454,0.06665,0.34253,13.588,-67.855,11.061
2026-06-01 14:56:30.327,2209329783,147327,2,1.33179,-0.26538,0.23389,-41.748,-24.427,-7.344
2026-06-01 14:56:30.527,2209329983,147527,1,0.97559,0.10254,0.44849,1.084,-2.595,0.45
2026-06-01 14:56:30.527,2209329983,147527,2,1.09424,-0.17236,-0.11255,-15.382,-0.718,1.206
2026-06-01 14:56:31.727,2209331183,147727,1,0.98926,0.07422,0.4519,0.656,1.13,0.351
2026-06-01 14:56:31.727,2209331183,147727,2,1.05542,-0.15942,-0.05396,2.252,2.443,1.573
2026-06-01 14:56:31.927,2209331383,147927,1,0.98242,0.09692,0.53931,-1.092,9.397,-1.489
2026-06-01 14:56:31.927,2209331383,147927,2,1.01953,-0.15283,-0.04761,3.244,11.55,2.458
2026-06-01 14:56:31.127,2209330583,148127,1,0.927,0.05176,0.56152,-0.015,12.008,1.145
