datetime,epoch_ms,ts_millis,mpu_id,ax,ay,az,gx,gy,gz
2026-06-01T13:32:22.501744,,,,,,,,,
2026-06-01 13:32:22.267,2204281723,9267,1,0.89526,0.01172,0.65747,1.298,2.13,1.618
2026-06-01 13:32:22.267,2204281723,9267,2,,,,,,
2026-06-01 13:32:22.506,2204281962,9506,1,0.854,-0.04956,0.63623,-5.534,2.733,-4.305
2026-06-01 13:32:22.506,2204281962,9506,2,,,,,,
2026-06-01 13:32:22.726,2204282182,9726,1,0.90112,0.00317,0.66577,1.038,-6.947,-0.405
2026-06-01 13:32:22.726,2204282182,9726,2,,,,,,
2026-06-01 13:32:22.926,2204282382,9926,1,0.88135,-0.00439,0.66797,6.893,-0.298,3.679
2026-06-01 13:32:22.926,2204282382,9926,2,,,,,,
2026-06-01 13:32:23.126,2204282582,10126,1,0.8811,-0.00854,0.68628,2.328,3.321,1.29
2026-06-01 13:32:23.126,2204282582,10126,2,,,,,,
2026-06-01 13:32:23.326,2204282782,10326,1,0.88135,-0.00269,0.66187,1.076,-1.519,0.084
2026-06-01 13:32:23.326,2204282782,10326,2,,,,,,
2026-06-01 13:32:23.526,2204282982,10526,1,0.89014,-0.01172,0.66772,0.183,0.824,-4.908
2026-06-01 13:32:23.526,2204282982,10526,2,,,,,,
2026-06-01 13:32:23.726,2204283182,10726,1,0.88574,-0.00439,0.66431,0.031,1.183,-3.145
2026-06-01 13:32:23.726,2204283182,10726,2,,,,,,
2026-06-01 13:32:23.926,2204283382,10926,1,0.8894,-0.00928,0.6626,0.321,4.527,-0.115
2026-06-01 13:32:23.926,2204283382,10926,2,,,,,,
2026-06-01 13:32:24.126,2204283582,11126,1,0.87134,0.00195,0.70166,-2.267,1.74,-0.786
2026-06-01 13:32:24.126,2204283582,11126,2,,,,,,
2026-06-01 13:32:24.326,2204283782,11326,1,0.87256,0.00049,0.71045,-2.969,4.519,-2.519
2026-06-01 13:32:24.326,2204283782,11326,2,,,,,,
2026-06-01 13:32:24.526,2204283982,11526,1,0.86987,0.00391,0.69287,3.107,-4.29,-0.176
2026-06-01 13:32:24.526,2204283982,11526,2,,,,,,
2026-06-01 13:32:24.726,2204284182,11726,1,0.89526,-0.01074,0.66699,-1.618,2.947,-1.305
2026-06-01 13:32:24.726,2204284182,11726,2,,,,,,
2026-06-01 13:32:24.926,2204284382,11926,1,0.82813,0.00439,0.73145,-4.74,5.42,-6.374
2026-06-01 13:32:24.926,2204284382,11926,2,,,,,,
2026-06-01 13:32:25.126,2204284582,12126,1,0.94385,0.01758,0.68286,9.893,0.786,1.412
2026-06-01 13:32:25.126,2204284582,12126,2,,,,,,
2026-06-01 13:32:25.326,2204284782,12326,1,0.86499,-0.00146,0.67407,3.435,0.359,0.687
2026-06-01 13:32:25.326,2204284782,12326,2,,,,,,
2026-06-01 13:32:25.526,2204284982,12526,1,0.88965,0.02148,0.67603,-2.206,2.153,-1.794
2026-06-01 13:32:25.526,2204284982,12526,2,,,,,,
2026-06-01 13:32:25.726,2204285182,12726,1,0.89819,0.01514,0.66504,2.313,1.313,0.298
2026-06-01 13:32:25.726,2204285182,12726,2,,,,,,
2026-06-01 13:32:25.926,2204285382,12926,1,0.89404,0.02393,0.67407,-4.939,0.74,-4.198
2026-06-01 13:32:25.926,2204285382,12926,2,,,,,,
2026-06-01 13:32:26.126,2204285582,13126,1,0.90576,0.06421,0.65747,-13.695,-0.588,-9.206
2026-06-01 13:32:26.126,2204285582,13126,2,,,,,,
2026-06-01 13:32:26.326,2204285782,13326,1,0.89429,0.01587,0.64111,0.115,1.702,-2.115
2026-06-01 13:32:26.326,2204285782,13326,2,,,,,,
2026-06-01 13:32:26.526,2204285982,13526,1,0.83228,0.02026,0.66406,6.672,-1.145,-1.076
2026-06-01 13:32:26.526,2204285982,13526,2,,,,,,
2026-06-01 13:32:26.726,2204286182,13726,1,0.8811,0.03052,0.65112,-1.702,3.435,-1.901
2026-06-01 13:32:26.726,2204286182,13726,2,,,,,,
2026-06-01 13:32:26.926,2204286382,13926,1,0.88721,0.0376,0.65283,-7.389,9.786,-3.038
2026-06-01 13:32:26.926,2204286382,13926,2,,,,,,
2026-06-01 13:32:27.126,2204286582,14126,1,0.88525,0.04297,0.6272,14.832,-4.336,5.779
2026-06-01 13:32:27.126,2204286582,14126,2,,,,,,
2026-06-01 13:32:27.326,2204286782,14326,1,0.88281,0.04175,0.65845,6.847,0.496,1.229
2026-06-01 13:32:27.326,2204286782,14326,2,,,,,,
2026-06-01 13:32:27.526,2204286982,14526,1,0.88037,0.09131,0.67017,-6.824,7.565,-6.168
2026-06-01 13:32:27.526,2204286982,14526,2,,,,,,
2026-06-01 13:32:27.726,2204287182,14726,1,0.88306,0.0437,0.65942,4.321,0.695,1.145
2026-06-01 13:32:27.726,2204287182,14726,2,,,,,,
2026-06-01 13:32:27.926,2204287382,14926,1,0.88306,0.04053,0.66479,5.374,2.397,4.42
2026-06-01 13:32:27.926,2204287382,14926,2,,,,,,
2026-06-01 13:32:28.126,2204287582,15126,1,0.88672,0.03882,0.67676,4.069,3.229,2.733
2026-06-01 13:32:28.126,2204287582,15126,2,,,,,,
2026-06-01 13:32:28.326,2204287782,15326,1,0.87769,0.04639,0.66675,0.076,0.321,-1.16
2026-06-01 13:32:28.326,2204287782,15326,2,,,,,,
2026-06-01 13:32:28.526,2204287982,15526,1,0.87476,0.05249,0.66357,-1.076,1.511,-1.84
2026-06-01 13:32:28.526,2204287982,15526,2,,,,,,
2026-06-01 13:32:28.726,2204288182,15726,1,0.88037,0.04956,0.67773,-1.557,1.008,-1.397
2026-06-01 13:32:28.726,2204288182,15726,2,,,,,,
2026-06-01 13:32:28.926,2204288382,15926,1,0.88477,0.06226,0.67627,-1.214,1.771,-2.504
2026-06-01 13:32:28.926,2204288382,15926,2,,,,,,
2026-06-01 13:32:29.126,2204288582,16126,1,0.88477,0.06714,0.67432,-4.298,-0.473,-6.641
2026-06-01 13:32:29.126,2204288582,16126,2,,,,,,
2026-06-01 13:32:29.326,2204288782,16326,1,0.89844,0.06958,0.64014,-7.908,-1.382,-4.962
2026-06-01 13:32:29.326,2204288782,16326,2,,,,,,
2026-06-01 13:32:29.526,2204288982,16526,1,0.89966,0.0874,0.66211,-15.702,-1.008,-9.58
2026-06-01 13:32:29.526,2204288982,16526,2,,,,,,
2026-06-01 13:32:29.726,2204289182,16726,1,0.89355,0.04736,0.64551,-22.725,-0.595,-12.29
2026-06-01 13:32:29.726,2204289182,16726,2,,,,,,
2026-06-01 13:32:29.926,2204289382,16926,1,0.89087,0.03149,0.64453,-27.26,-0.267,-11.977
2026-06-01 13:32:29.926,2204289382,16926,2,,,,,,
2026-06-01 13:32:30.126,2204289582,17126,1,0.9126,0.02759,0.63525,-26.611,1.153,-15.282
2026-06-01 13:32:30.126,2204289582,17126,2,,,,,,
2026-06-01 13:32:30.326,2204289782,17326,1,0.89893,0.01245,0.66162,-24.534,2.664,-22.947
2026-06-01 13:32:30.326,2204289782,17326,2,,,,,,
2026-06-01 13:32:30.526,2204289982,17526,1,0.88257,0.02246,0.66211,-13.115,2.015,-14.504
2026-06-01 13:32:30.526,2204289982,17526,2,,,,,,
2026-06-01 13:32:30.726,2204290182,17726,1,0.87842,0.02661,0.67554,-1.611,0.229,-4.794
2026-06-01 13:32:30.726,2204290182,17726,2,,,,,,
2026-06-01 13:32:30.926,2204290382,17926,1,0.89648,0.01855,0.66284,6.931,-0.939,0.115
2026-06-01 13:32:30.926,2204290382,17926,2,,,,,,
2026-06-01 13:32:31.143,2204290599,18143,1,0.89355,0.05127,0.65674,17.305,-0.542,2.26
2026-06-01 13:32:31.143,2204290599,18143,2,,,,,,
2026-06-01 13:32:31.343,2204290799,18343,1,0.90161,0.09595,0.64111,34.328,5.71,7.298
2026-06-01 13:32:31.343,2204290799,18343,2,,,,,,
2026-06-01 13:32:31.694,2204291150,18694,1,0.92139,0.1333,0.62109,25.229,2.817,16.702
2026-06-01 13:32:31.694,2204291150,18694,2,,,,,,
2026-06-01 13:32:31.894,2204291350,18894,1,0.88721,0.10474,0.65332,-24.176,-1.351,-16.985
2026-06-01 13:32:31.894,2204291350,18894,2,,,,,,
2026-06-01 13:32:32.123,2204291579,19123,1,0.89844,0.05591,0.62183,-25.504,-4.939,-18.336
2026-06-01 13:32:32.123,2204291579,19123,2,,,,,,
2026-06-01 13:32:32.323,2204291779,19323,1,0.91211,0.07202,0.62476,-11.031,-0.542,-7.74
2026-06-01 13:32:32.323,2204291779,19323,2,,,,,,
2026-06-01 13:32:32.523,2204291979,19523,1,0.9104,0.10278,0.62573,1.069,4.588,3.725
2026-06-01 13:32:32.523,2204291979,19523,2,,,,,,
2026-06-01 13:32:32.723,2204292179,19723,1,0.89453,0.0769,0.64331,2.969,2.74,-0.351
2026-06-01 13:32:32.723,2204292179,19723,2,,,,,,
2026-06-01 13:32:32.923,2204292379,19923,1,0.90527,0.09985,0.62988,0.351,-0.206,-2.427
2026-06-01 13:32:32.923,2204292379,19923,2,,,,,,
2026-06-01 13:32:33.123,2204292579,20123,1,0.91553,0.11401,0.6062,3.901,4.42,-1.809
2026-06-01 13:32:33.123,2204292579,20123,2,,,,,,
2026-06-01 13:32:33.323,2204292779,20323,1,0.90723,0.1084,0.62451,1.74,3.084,3.603
2026-06-01 13:32:33.323,2204292779,20323,2,,,,,,
2026-06-01 13:32:33.523,2204292979,20523,1,0.91016,0.07446,0.63232,-3.191,-0.374,1.496
2026-06-01 13:32:33.523,2204292979,20523,2,,,,,,
2026-06-01 13:32:33.723,2204293179,20723,1,0.90479,0.0686,0.6333,-2.435,-2.435,-0.885
2026-06-01 13:32:33.723,2204293179,20723,2,,,,,,
2026-06-01 13:32:33.923,2204293379,20923,1,0.93384,0.06104,0.61084,3.115,1.672,-3.229
2026-06-01 13:32:33.923,2204293379,20923,2,,,,,,
2026-06-01 13:32:34.123,2204293579,21123,1,0.91479,0.07544,0.63062,6.481,8.107,-5.626
2026-06-01 13:32:34.123,2204293579,21123,2,,,,,,
2026-06-01 13:32:34.323,2204293779,21323,1,0.89429,0.11792,0.63184,5.466,1.634,4.656
2026-06-01 13:32:34.323,2204293779,21323,2,,,,,,
2026-06-01 13:32:34.523,2204293979,21523,1,0.90674,0.0813,0.62183,-2.137,0.504,-2.13
2026-06-01 13:32:34.523,2204293979,21523,2,,,,,,
2026-06-01 13:32:39.665,2204299121,26665,1,0.8313,0.10083,0.68921,16.221,8.473,10.664
2026-06-01 13:32:39.665,2204299121,26665,2,,,,,,
2026-06-01 13:32:39.865,2204299321,26865,1,0.85962,0.03784,0.70923,-9.771,1.733,-8.679
2026-06-01 13:32:39.865,2204299321,26865,2,,,,,,
2026-06-01 13:32:39.065,2204298521,27065,1,0.84985,0.07397,0.69507,-1.718,-0.695,-7.29
2026-06-01 13:32:39.065,2204298521,27065,2,,,,,,
2026-06-01 13:32:40.265,2204299721,27265,1,0.8645,0.0896,0.67871,5.237,-3.733,0.611
2026-06-01 13:32:40.265,2204299721,27265,2,,,,,,
2026-06-01 13:32:40.465,2204299921,27465,1,0.87305,0.104,0.67163,3.099,-1.672,2.771
2026-06-01 13:32:40.465,2204299921,27465,2,,,,,,
2026-06-01 13:32:40.665,2204300121,27665,1,0.86475,0.10913,0.6814,1.618,1.832,2.58
2026-06-01 13:32:40.665,2204300121,27665,2,,,,,,
2026-06-01 13:32:40.865,2204300321,27865,1,0.87842,0.0979,0.66748,-1.489,0.931,-1.092
2026-06-01 13:32:40.865,2204300321,27865,2,,,,,,
2026-06-01 13:32:40.065,2204299521,28065,1,0.88965,0.13232,0.65747,1.366,-2.855,1.809
2026-06-01 13:32:40.065,2204299521,28065,2,,,,,,
2026-06-01 13:32:41.269,2204300725,28269,1,0.78613,0.09766,0.79248,95.015,10.015,89.481
2026-06-01 13:32:41.269,2204300725,28269,2,,,,,,
2026-06-01 13:32:41.469,2204300925,28469,1,0.92285,0.24512,0.55811,-186.115,52.076,-137.985
2026-06-01 13:32:41.469,2204300925,28469,2,,,,,,
2026-06-01 13:32:41.669,2204301125,28669,1,0.88135,0.13452,0.65479,-45.405,5.802,-22.321
2026-06-01 13:32:41.669,2204301125,28669,2,,,,,,
2026-06-01 13:32:41.869,2204301325,28869,1,0.8833,0.09741,0.64624,-19.435,-5.748,-13.855
2026-06-01 13:32:41.869,2204301325,28869,2,,,,,,
2026-06-01 13:32:41.069,2204300525,29069,1,0.89478,0.10303,0.63989,7.916,2.725,3.656
2026-06-01 13:32:41.069,2204300525,29069,2,,,,,,
2026-06-01 13:32:42.269,2204301725,29269,1,0.8999,0.09912,0.63745,-0.13,-1.725,-0.046
2026-06-01 13:32:42.269,2204301725,29269,2,,,,,,
2026-06-01 13:32:42.469,2204301925,29469,1,0.90283,0.09863,0.64063,0.237,1.695,0.664
2026-06-01 13:32:42.469,2204301925,29469,2,,,,,,
2026-06-01 13:32:42.669,2204302125,29669,1,0.89697,0.11011,0.64282,1.885,-0.229,0.878
2026-06-01 13:32:42.669,2204302125,29669,2,,,,,,
2026-06-01 13:32:42.869,2204302325,29869,1,0.9126,0.11426,0.62598,1.71,1.649,-2.206
2026-06-01 13:32:42.869,2204302325,29869,2,,,,,,
2026-06-01 13:32:42.069,2204301525,30069,1,0.89966,0.10278,0.6377,-1.42,0.611,-2.359
2026-06-01 13:32:42.069,2204301525,30069,2,,,,,,
2026-06-01 13:32:43.269,2204302725,30269,1,0.90381,0.11401,0.61841,-2.229,1.267,-2.076
2026-06-01 13:32:43.269,2204302725,30269,2,,,,,,
2026-06-01 13:32:43.469,2204302925,30469,1,0.9043,0.11157,0.63086,-1.748,0.618,-1.634
2026-06-01 13:32:43.469,2204302925,30469,2,,,,,,
2026-06-01 13:32:43.669,2204303125,30669,1,0.92529,0.11499,0.63232,0.779,0.817,-1.321
2026-06-01 13:32:43.669,2204303125,30669,2,,,,,,
2026-06-01 13:32:43.869,2204303325,30869,1,0.90552,0.12231,0.63062,2.267,3.656,1.229
2026-06-01 13:32:43.869,2204303325,30869,2,,,,,,
2026-06-01 13:32:43.069,2204302525,31069,1,0.90918,0.1106,0.62793,-0.435,3.069,-0.992
2026-06-01 13:32:43.069,2204302525,31069,2,,,,,,
2026-06-01 13:32:44.282,2204303738,31282,1,0.90259,0.11792,0.64038,2.122,2.397,1.29
2026-06-01 13:32:44.282,2204303738,31282,2,,,,,,
2026-06-01 13:32:44.482,2204303938,31482,1,0.90088,0.11572,0.64307,4.664,3.275,1.802
2026-06-01 13:32:44.482,2204303938,31482,2,,,,,,
2026-06-01 13:32:44.682,2204304138,31682,1,0.90234,0.10742,0.63062,1.336,2.137,0.015
2026-06-01 13:32:44.682,2204304138,31682,2,,,,,,
2026-06-01 13:32:44.909,2204304365,31909,1,0.90479,0.12036,0.62793,2.229,1.084,-1.183
2026-06-01 13:32:44.909,2204304365,31909,2,,,,,,
2026-06-01 13:32:44.109,2204303565,32109,1,0.90674,0.12622,0.62671,-0.237,1.221,-1.656
2026-06-01 13:32:44.109,2204303565,32109,2,,,,,,
2026-06-01 13:32:45.309,2204304765,32309,1,0.90405,0.1167,0.62378,-0.626,2.214,-0.107
2026-06-01 13:32:45.309,2204304765,32309,2,,,,,,
2026-06-01 13:32:45.509,2204304965,32509,1,0.90552,0.10962,0.62915,-1.206,2.611,0.496
2026-06-01 13:32:45.509,2204304965,32509,2,,,,,,
2026-06-01 13:32:45.709,2204305165,32709,1,0.90039,0.11597,0.63599,0.771,2.366,0.008
2026-06-01 13:32:45.709,2204305165,32709,2,,,,,,
2026-06-01 13:32:45.909,2204305365,32909,1,0.89819,0.11597,0.62744,2.198,2.344,-0.71
2026-06-01 13:32:45.909,2204305365,32909,2,,,,,,
2026-06-01 13:32:45.109,2204304565,33109,1,0.90308,0.11523,0.62402,1.664,1.351,-1.168
2026-06-01 13:32:45.109,2204304565,33109,2,,,,,,
2026-06-01 13:32:46.309,2204305765,33309,1,0.89868,0.09912,0.62524,-1.244,2.847,3.069
2026-06-01 13:32:46.309,2204305765,33309,2,,,,,,
2026-06-01 13:32:46.509,2204305965,33509,1,0.89868,0.09253,0.63867,2.542,1.939,2.412
2026-06-01 13:32:46.509,2204305965,33509,2,,,,,,
2026-06-01 13:32:46.709,2204306165,33709,1,0.90894,0.10181,0.63672,1.916,-1.466,-5.511
2026-06-01 13:32:46.709,2204306165,33709,2,,,,,,
2026-06-01 13:32:46.909,2204306365,33909,1,0.88892,0.12866,0.6438,-0.099,4.595,-4.885
2026-06-01 13:32:46.909,2204306365,33909,2,,,,,,
2026-06-01 13:32:46.109,2204305565,34109,1,0.88647,0.12769,0.63501,0.985,-1.13,0.427
2026-06-01 13:32:46.109,2204305565,34109,2,,,,,,
2026-06-01 13:32:47.309,2204306765,34309,1,0.90527,0.11646,0.63916,1.153,1.099,3.099
2026-06-01 13:32:47.309,2204306765,34309,2,,,,,,
2026-06-01 13:32:47.509,2204306965,34509,1,0.89819,0.10254,0.63721,1.672,3.924,3.397
2026-06-01 13:32:47.509,2204306965,34509,2,,,,,,
2026-06-01 13:32:47.709,2204307165,34709,1,0.90234,0.10449,0.63818,1.198,1.756,0.809
2026-06-01 13:32:47.709,2204307165,34709,2,,,,,,
2026-06-01 13:32:47.909,2204307365,34909,1,0.896,0.11035,0.63916,2.122,1.695,-0.901
2026-06-01 13:32:47.909,2204307365,34909,2,,,,,,
2026-06-01 13:32:47.109,2204306565,35109,1,0.90039,0.1062,0.63232,1.664,1.344,-0.863
2026-06-01 13:32:47.109,2204306565,35109,2,,,,,,
2026-06-01 13:32:48.309,2204307765,35309,1,0.90454,0.1106,0.63354,0.527,0.366,-1.267
2026-06-01 13:32:48.309,2204307765,35309,2,,,,,,
2026-06-01 13:32:48.509,2204307965,35509,1,0.90088,0.11499,0.63013,-0.557,1.725,-0.443
2026-06-01 13:32:48.509,2204307965,35509,2,,,,,,
2026-06-01 13:32:48.709,2204308165,35709,1,0.9021,0.1145,0.6333,-0.435,0.855,-0.168
2026-06-01 13:32:48.709,2204308165,35709,2,,,,,,
2026-06-01 13:32:48.909,2204308365,35909,1,0.90698,0.10962,0.62622,0.679,1.534,0.328
2026-06-01 13:32:48.909,2204308365,35909,2,,,,,,
2026-06-01 13:32:48.109,2204307565,36109,1,0.9043,0.0957,0.63184,-0.748,1.855,0.206
2026-06-01 13:32:48.109,2204307565,36109,2,,,,,,
2026-06-01 13:32:49.309,2204308765,36309,1,0.87793,0.15991,0.64771,-0.87,-1.435,-0.824
2026-06-01 13:32:49.309,2204308765,36309,2,,,,,,
2026-06-01 13:32:49.509,2204308965,36509,1,0.89844,0.09033,0.6499,-0.443,4.893,0.901
2026-06-01 13:32:49.509,2204308965,36509,2,,,,,,
2026-06-01 13:32:49.709,2204309165,36709,1,0.89429,0.09888,0.64648,3.779,-5.45,2.878
2026-06-01 13:32:49.709,2204309165,36709,2,,,,,,
2026-06-01 13:32:49.909,2204309365,36909,1,0.89624,0.0791,0.63525,2.855,-1.565,4.137
2026-06-01 13:32:49.909,2204309365,36909,2,,,,,,
2026-06-01 13:32:49.109,2204308565,37109,1,0.91626,0.08203,0.61279,0.977,1.069,1.443
2026-06-01 13:32:49.109,2204308565,37109,2,,,,,,
2026-06-01 13:32:50.314,2204309770,37314,1,0.91406,0.07373,0.62866,0.847,4.023,0.267
2026-06-01 13:32:50.314,2204309770,37314,2,,,,,,
2026-06-01 13:32:50.514,2204309970,37514,1,0.8999,0.06152,0.64111,-2.809,2.061,-3.542
2026-06-01 13:32:50.514,2204309970,37514,2,,,,,,
2026-06-01 13:32:50.714,2204310170,37714,1,0.90063,0.06543,0.63208,-3.656,3.916,-1.641
2026-06-01 13:32:50.714,2204310170,37714,2,,,,,,
2026-06-01 13:32:50.914,2204310370,37914,1,0.88599,0.07666,0.65356,1.511,3.466,4.038
2026-06-01 13:32:50.914,2204310370,37914,2,,,,,,
2026-06-01 13:32:50.114,2204309570,38114,1,0.89819,0.06299,0.66479,2.519,4.26,2.038
2026-06-01 13:32:50.114,2204309570,38114,2,,,,,,
2026-06-01T13:32:58.979846,,,,,,,,,
2026-06-01 13:32:58.238,2204317694,7238,1,1.0564,0.04956,0.0769,-10.008,16.916,-1.122
2026-06-01 13:32:58.238,2204317694,7238,2,0.96069,0.06738,-0.4502,2.588,-1.702,-2.618
2026-06-01 13:32:58.438,2204317894,7438,1,0.92725,0.06543,0.08154,3.954,-29.977,7.916
2026-06-01 13:32:58.438,2204317894,7438,2,0.97559,0.0542,-0.41138,7.847,1.031,-2.992
2026-06-01 13:32:59.638,2204319094,7638,1,1.05371,0.04297,0.04932,1.672,0.244,-0.611
2026-06-01 13:32:59.638,2204319094,7638,2,0.95337,0.05884,-0.45386,-6.916,1.0,3.107
2026-06-01 13:32:59.838,2204319294,7838,1,1.0647,0.05103,0.04297,0.618,-11.565,1.176
2026-06-01 13:32:59.838,2204319294,7838,2,0.95337,0.04517,-0.44849,5.496,-0.824,-2.855
2026-06-01 13:32:59.038,2204318494,8038,1,1.0437,0.03638,0.00659,0.435,4.412,-1.435
2026-06-01 13:32:59.038,2204318494,8038,2,1.04272,-0.01392,-0.48877,19.031,41.786,-1.588
2026-06-01 13:32:59.238,2204318694,8238,1,1.07544,0.05396,0.05786,-7.718,9.412,-2.313
2026-06-01 13:32:59.238,2204318694,8238,2,0.98145,0.04395,-0.39233,-32.87,-7.641,14.466
2026-06-01 13:32:59.438,2204318894,8438,1,1.07056,-0.04224,0.21924,-26.908,86.107,-5.74
2026-06-01 13:32:59.438,2204318894,8438,2,0.95142,0.05469,-0.35254,-30.763,26.443,18.221
2026-06-01 13:33:00.638,2204320094,8638,1,1.02759,-0.08716,0.27637,0.565,11.328,-1.435
2026-06-01 13:33:00.638,2204320094,8638,2,1.09155,-0.0415,-0.1687,-21.565,17.023,10.58
2026-06-01 13:33:00.838,2204320294,8838,1,0.99976,-0.10132,0.37793,-0.641,1.863,0.763
2026-06-01 13:33:00.838,2204320294,8838,2,1.02026,-0.02271,-0.18066,14.763,3.916,-5.969
2026-06-01 13:33:00.038,2204319494,9038,1,0.99219,-0.08862,0.5061,0.969,21.008,-1.183
2026-06-01 13:33:00.038,2204319494,9038,2,1.02441,-0.00464,-0.17993,0.305,-3.473,-3.45
2026-06-01 13:33:00.238,2204319694,9238,1,0.91992,-0.34106,0.27686,21.145,29.29,14.786
2026-06-01 13:33:00.238,2204319694,9238,2,1.05103,-0.04541,-0.14722,-2.794,1.389,9.702
2026-06-01 13:33:00.438,2204319894,9438,1,0.84253,0.01367,0.72998,7.16,114.847,-16.924
2026-06-01 13:33:00.438,2204319894,9438,2,1.01074,0.00659,-0.12329,32.267,5.748,7.893
2026-06-01 13:33:01.638,2204321094,9638,1,0.94531,-0.21582,0.44678,33.779,-89.687,66.053
2026-06-01 13:33:01.638,2204321094,9638,2,1.02661,-0.03174,-0.20068,4.794,3.893,4.244
2026-06-01 13:33:01.886,2204321342,9886,1,1.00806,-0.17114,0.4751,-6.977,-4.718,-0.664
2026-06-01 13:33:01.886,2204321342,9886,2,1.04517,-0.01392,-0.18091,-6.733,2.511,4.092
2026-06-01 13:33:01.086,2204320542,10086,1,0.94238,-0.14355,0.53052,-31.092,30.695,-42.954
2026-06-01 13:33:01.086,2204320542,10086,2,0.99927,-0.02905,-0.17871,0.153,-3.55,-6.733
2026-06-01 13:33:01.286,2204320742,10286,1,0.98096,-0.08813,0.49731,24.695,-27.45,13.221
2026-06-01 13:33:01.286,2204320742,10286,2,1.01489,-0.02368,-0.19727,18.885,-8.237,-12.145
2026-06-01 13:33:01.486,2204320942,10486,1,0.93555,-0.03711,0.57031,7.618,-1.344,-4.298
2026-06-01 13:33:01.486,2204320942,10486,2,1.02588,-0.02661,-0.20996,-19.847,-6.573,6.924
2026-06-01 13:33:02.686,2204322142,10686,1,0.96826,-0.00903,0.57227,-6.366,18.908,-15.336
2026-06-01 13:33:02.686,2204322142,10686,2,1.0144,-0.00293,-0.26953,4.71,-0.489,-2.618
2026-06-01 13:33:02.886,2204322342,10886,1,0.85645,-0.05615,0.7771,-35.725,24.634,-70.267
2026-06-01 13:33:02.886,2204322342,10886,2,1.00708,0.07373,-0.36914,116.0,-28.115,-32.076
2026-06-01 13:33:02.086,2204321542,11086,1,0.8418,0.03662,0.75293,0.542,23.626,-7.489
2026-06-01 13:33:02.086,2204321542,11086,2,0.98706,0.0542,-0.2312,49.58,26.756,-7.214
2026-06-01 13:33:02.286,2204321742,11286,1,0.78857,0.07935,0.57715,10.221,-21.977,-15.176
2026-06-01 13:33:02.286,2204321742,11286,2,1.02612,0.06445,-0.17334,27.809,16.489,-7.137
2026-06-01 13:33:02.486,2204321942,11486,1,0.83276,0.06226,0.62964,74.008,-35.924,186.137
2026-06-01 13:33:02.486,2204321942,11486,2,0.99194,0.04053,-0.1897,8.198,6.786,-1.962
2026-06-01 13:33:03.686,2204323142,11686,1,0.88354,0.03979,0.68945,3.244,2.45,1.527
2026-06-01 13:33:03.686,2204323142,11686,2,1.01318,0.03784,-0.18555,-0.015,-4.13,1.252
2026-06-01 13:33:03.886,2204323342,11886,1,0.80298,0.1001,0.7644,-12.885,27.901,-50.947
2026-06-01 13:33:03.886,2204323342,11886,2,1.03271,0.04761,-0.14111,-28.924,-8.122,12.145
2026-06-01 13:33:03.086,2204322542,12086,1,0.85547,0.0896,0.70166,-0.573,-13.389,-7.687
2026-06-01 13:33:03.086,2204322542,12086,2,1.00586,0.0127,-0.21973,-22.901,2.046,-6.313
2026-06-01 13:33:03.286,2204322742,12286,1,0.8728,0.05786,0.67969,1.641,5.405,1.023
2026-06-01 13:33:03.286,2204322742,12286,2,1.04907,0.04517,-0.2041,-0.756,1.511,-0.092
2026-06-01 13:33:03.486,2204322942,12486,1,0.87085,0.03223,0.68237,10.305,-3.611,18.275
2026-06-01 13:33:03.486,2204322942,12486,2,1.01318,0.00977,-0.23706,-3.435,-1.122,-0.481
2026-06-01 13:33:04.686,2204324142,12686,1,0.86914,0.04199,0.66602,3.519,0.359,1.351
2026-06-01 13:33:04.686,2204324142,12686,2,1.02661,0.03027,-0.21338,-12.916,-4.412,5.588
2026-06-01 13:33:04.886,2204324342,12886,1,0.88599,0.04639,0.67041,1.435,1.466,4.13
2026-06-01 13:33:04.886,2204324342,12886,2,1.02905,0.02808,-0.20703,-10.504,-2.282,2.962
2026-06-01 13:33:04.093,2204323549,13093,1,0.8894,0.05591,0.67554,-0.458,1.084,-6.0
2026-06-01 13:33:04.093,2204323549,13093,2,1.00732,0.02515,-0.24292,-2.588,1.519,1.267
2026-06-01 13:33:04.293,2204323749,13293,1,0.80127,0.02539,0.71362,37.588,-4.618,51.695
2026-06-01 13:33:04.293,2204323749,13293,2,1.01807,0.03394,-0.23779,-9.511,-2.573,1.878
2026-06-01 13:33:04.493,2204323949,13493,1,0.94043,-0.0708,0.69995,10.168,-36.145,0.206
2026-06-01 13:33:04.493,2204323949,13493,2,1.02637,0.02612,-0.26807,-13.069,-13.382,3.71
2026-06-01 13:33:05.693,2204325149,13693,1,0.93652,0.05127,0.58203,-5.084,-14.305,-21.809
2026-06-01 13:33:05.693,2204325149,13693,2,1.00537,-0.02515,-0.44946,-37.611,-19.076,10.672
2026-06-01 13:33:05.893,2204325349,13893,1,0.95239,0.0625,0.55542,20.786,-18.985,13.687
2026-06-01 13:33:05.893,2204325349,13893,2,1.01025,0.08398,-0.4458,26.16,-1.58,-11.626
2026-06-01 13:33:05.093,2204324549,14093,1,0.9248,0.04492,0.56616,14.122,-9.55,17.702
2026-06-01 13:33:05.093,2204324549,14093,2,0.9585,0.00342,-0.33594,62.015,1.153,-25.412
2026-06-01 13:33:05.293,2204324749,14293,1,0.96606,-0.04883,0.54224,21.389,-13.305,34.473
2026-06-01 13:33:05.293,2204324749,14293,2,0.96948,0.03735,-0.40259,-8.626,0.885,3.626
2026-06-01 13:33:05.493,2204324949,14493,1,0.99121,-0.08179,0.4873,-6.756,3.893,-2.992
2026-06-01 13:33:05.493,2204324949,14493,2,1.03101,0.0498,-0.29883,-3.916,-2.725,3.481
2026-06-01 13:33:06.693,2204326149,14693,1,0.97534,-0.06177,0.50879,7.305,-1.969,7.992
2026-06-01 13:33:06.693,2204326149,14693,2,0.97266,0.03857,-0.36279,-6.588,1.931,2.534
2026-06-01 13:33:06.894,2204326350,14894,1,0.98242,-0.05811,0.49023,-5.939,3.763,-7.71
2026-06-01 13:33:06.894,2204326350,14894,2,0.9834,0.02759,-0.37012,-4.115,1.931,2.397
2026-06-01 13:33:06.094,2204325550,15094,1,0.97632,-0.04419,0.49756,1.71,-0.382,-1.947
2026-06-01 13:33:06.094,2204325550,15094,2,0.96606,0.02759,-0.37842,-2.282,0.366,0.771
2026-06-01 13:33:06.294,2204325750,15294,1,0.97705,-0.03931,0.49463,-4.603,-0.023,-2.534
2026-06-01 13:33:06.294,2204325750,15294,2,1.01025,0.07935,-0.30029,76.26,78.374,10.718
2026-06-01 13:33:06.494,2204325950,15494,1,0.97656,-0.05078,0.49316,5.916,-5.015,5.603
2026-06-01 13:33:06.494,2204325950,15494,2,0.94531,-0.08887,0.19775,73.969,99.061,2.282
2026-06-01 13:33:07.694,2204327150,15694,1,0.98682,-0.05981,0.48242,10.718,-0.718,10.443
2026-06-01 13:33:07.694,2204327150,15694,2,1.03271,-0.0249,0.10815,-16.221,-24.122,7.626
2026-06-01 13:33:07.894,2204327350,15894,1,0.99829,-0.08228,0.47168,9.664,-3.511,13.473
2026-06-01 13:33:07.894,2204327350,15894,2,1.00122,-0.02075,-0.01733,-46.458,-55.046,11.45
2026-06-01 13:33:07.094,2204326550,16094,1,0.98145,-0.08179,0.48389,-0.878,6.565,2.855
2026-06-01 13:33:07.094,2204326550,16094,2,1.19263,0.14014,-0.54956,-41.458,-26.511,-17.061
2026-06-01 13:33:07.294,2204326750,16294,1,0.9895,-0.0813,0.50684,-9.924,14.435,-12.038
2026-06-01 13:33:07.294,2204326750,16294,2,0.99243,0.05396,-0.16357,105.023,61.718,-36.634
2026-06-01 13:33:07.494,2204326950,16494,1,0.88721,0.04199,0.71216,-31.809,67.672,-83.351
2026-06-01 13:33:07.494,2204326950,16494,2,1.11401,0.07227,-0.13208,71.282,53.87,-10.458
2026-06-01 13:33:08.694,2204328150,16694,1,0.83594,0.09131,0.7832,11.038,-13.71,11.679
2026-06-01 13:33:08.694,2204328150,16694,2,0.98975,0.04468,0.12793,21.672,55.435,7.389
2026-06-01 13:33:08.894,2204328350,16894,1,0.83862,0.04565,0.81348,-2.725,8.817,-3.023
2026-06-01 13:33:08.894,2204328350,16894,2,1.00391,0.05518,0.0813,-1.221,15.527,2.008
2026-06-01 13:33:08.094,2204327550,17094,1,0.83032,0.06055,0.75684,1.695,-1.252,-1.519
2026-06-01 13:33:08.094,2204327550,17094,2,0.99609,0.05103,0.1062,2.137,-3.473,0.802
2026-06-01 13:33:08.294,2204327750,17294,1,0.82788,0.06836,0.74414,-0.038,3.893,-2.397
2026-06-01 13:33:08.294,2204327750,17294,2,0.9165,0.13818,0.72021,-33.023,-40.328,13.16
2026-06-01 13:33:08.494,2204327950,17494,1,0.8335,0.06592,0.74487,-6.534,2.099,-10.656
2026-06-01 13:33:08.494,2204327950,17494,2,1.01538,0.03564,0.07935,-9.015,-3.26,-2.198
2026-06-01 13:33:09.694,2204329150,17694,1,0.83374,0.06592,0.74463,-2.802,0.611,-6.26
2026-06-01 13:33:09.694,2204329150,17694,2,1.01074,0.06299,0.05884,-5.58,-2.427,0.42
2026-06-01 13:33:09.894,2204329350,17894,1,0.80786,0.10913,0.71973,-0.748,-1.145,-0.649
2026-06-01 13:33:09.894,2204329350,17894,2,1.00879,0.07544,0.07422,3.366,-3.534,2.0
2026-06-01 13:33:09.094,2204328550,18094,1,0.95386,-0.00879,0.94971,-8.069,-97.763,32.55
2026-06-01 13:33:09.094,2204328550,18094,2,1.02905,0.05078,0.08228,2.611,3.481,2.16
2026-06-01 13:33:09.294,2204328750,18294,1,0.87671,0.0874,0.65112,5.557,17.229,-7.466
2026-06-01 13:33:09.294,2204328750,18294,2,1.01782,0.05029,0.07373,-0.511,-0.038,0.046
2026-06-01 13:33:09.494,2204328950,18494,1,0.73657,0.3728,0.82788,15.634,14.771,3.664
2026-06-01 13:33:09.494,2204328950,18494,2,1.01001,0.0625,0.09375,0.053,-2.481,2.702
2026-06-01 13:33:10.694,2204330150,18694,1,1.04468,0.12939,0.74487,-39.641,46.45,-33.885
2026-06-01 13:33:10.694,2204330150,18694,2,1.00903,0.05029,0.07666,0.885,-2.939,1.74
2026-06-01 13:33:10.894,2204330350,18894,1,0.78369,0.11035,0.76807,1.557,11.55,1.962
2026-06-01 13:33:10.894,2204330350,18894,2,0.98804,0.06909,0.04688,0.427,5.504,2.321
2026-06-01 13:33:10.094,2204329550,19094,1,0.82446,0.08838,0.79932,-0.939,-4.061,-3.427
2026-06-01 13:33:10.094,2204329550,19094,2,1.02832,0.05298,0.07251,-0.29,0.916,0.779
2026-06-01 13:33:10.294,2204329750,19294,1,0.82886,0.03394,0.78784,9.702,21.504,14.817
2026-06-01 13:33:10.294,2204329750,19294,2,1.02271,0.05835,0.06836,-12.855,-2.519,-2.298
2026-06-01 13:33:10.494,2204329950,19494,1,0.70898,0.10498,0.84399,28.389,-6.519,27.069
2026-06-01 13:33:10.494,2204329950,19494,2,0.99707,0.08667,0.03369,5.832,-5.748,-0.305
2026-06-01 13:33:11.694,2204331150,19694,1,0.83228,0.09277,0.73242,11.511,-17.084,4.847
2026-06-01 13:33:11.694,2204331150,19694,2,1.03149,0.07251,0.00122,-0.061,2.0,2.74
2026-06-01 13:33:11.894,2204331350,19894,1,1.01709,0.02002,0.53101,-84.565,-191.328,-62.641
2026-06-01 13:33:11.894,2204331350,19894,2,1.04175,0.07324,-0.02148,-4.969,1.802,-2.504
2026-06-01 13:33:11.094,2204330550,20094,1,1.02783,0.01636,0.30225,7.092,-2.076,0.305
2026-06-01 13:33:11.094,2204330550,20094,2,1.02466,0.06836,-0.01489,-1.725,-2.321,1.13
2026-06-01 13:33:11.294,2204330750,20294,1,1.06006,0.05029,0.18604,3.038,-15.985,4.092
2026-06-01 13:33:11.294,2204330750,20294,2,1.0896,0.08984,-0.02441,1.046,-7.198,0.168
2026-06-01 13:33:11.494,2204330950,20494,1,1.05005,0.03369,0.2439,-1.992,-1.038,-0.435
2026-06-01 13:33:11.494,2204330950,20494,2,0.98779,0.07544,-0.05762,-6.985,2.87,0.053
2026-06-01 13:33:12.694,2204332150,20694,1,1.07886,0.03687,0.22485,-9.992,9.992,-2.779
2026-06-01 13:33:12.694,2204332150,20694,2,1.02441,0.05371,-0.14185,-6.947,2.397,-1.779
2026-06-01 13:33:12.894,2204332350,20894,1,1.06982,0.01001,0.24927,-2.954,7.366,-0.611
2026-06-01 13:33:12.894,2204332350,20894,2,1.02612,0.07178,-0.07813,-3.084,-2.588,-0.069
2026-06-01 13:33:12.094,2204331550,21094,1,1.04565,0.04639,0.44165,-0.473,33.863,-6.214
2026-06-01 13:33:12.094,2204331550,21094,2,1.05029,0.07642,-0.05103,-6.893,0.435,1.145
2026-06-01 13:33:12.294,2204331750,21294,1,1.01172,0.03906,0.4292,-2.206,-2.298,-1.84
2026-06-01 13:33:12.294,2204331750,21294,2,1.00586,0.07739,-0.07227,-5.832,3.198,0.511
2026-06-01 13:33:12.494,2204331950,21494,1,0.99561,0.03516,0.42773,2.947,-0.84,-0.092
2026-06-01 13:33:12.494,2204331950,21494,2,0.99976,0.06982,-0.03857,-4.435,-1.206,1.275
2026-06-01 13:33:13.694,2204333150,21694,1,1.0166,0.04761,0.39917,6.244,-2.473,1.0
2026-06-01 13:33:13.694,2204333150,21694,2,1.02051,0.08057,-0.0603,3.649,2.282,3.198
2026-06-01 13:33:13.894,2204333350,21894,1,1.0061,0.05005,0.43091,-4.71,11.084,-4.817
2026-06-01 13:33:13.894,2204333350,21894,2,1.03198,0.07275,-0.0708,1.916,-0.313,-0.542
2026-06-01 13:33:13.094,2204332550,22094,1,1.00317,0.05396,0.42676,2.16,6.084,-0.809
2026-06-01 13:33:13.094,2204332550,22094,2,1.03833,0.08325,-0.05713,-3.427,-2.023,0.931
2026-06-01 13:33:13.294,2204332750,22294,1,1.00635,0.04175,0.43237,-0.885,0.191,0.595
2026-06-01 13:33:13.294,2204332750,22294,2,1.01978,0.07568,-0.04834,-6.641,-0.382,1.198
2026-06-01 13:33:13.494,2204332950,22494,1,0.97534,0.04468,0.48022,-2.916,18.702,-4.107
2026-06-01 13:33:13.494,2204332950,22494,2,1.01758,0.08105,-0.05981,-1.702,-0.092,0.87
2026-06-01 13:33:14.694,2204334150,22694,1,0.98657,0.0459,0.47534,-2.443,-0.229,-2.107
2026-06-01 13:33:14.694,2204334150,22694,2,1.08398,0.42749,0.14063,-36.695,18.824,7.748
2026-06-01 13:33:14.894,2204334350,22894,1,0.99756,0.04736,0.47266,-0.229,3.321,-0.565
2026-06-01 13:33:14.894,2204334350,22894,2,1.052,-0.00464,-0.40381,67.618,23.153,10.748
2026-06-01 13:33:14.094,2204333550,23094,1,0.9917,0.04272,0.46582,-1.237,0.802,-1.435
2026-06-01 13:33:14.094,2204333550,23094,2,1.02856,0.05786,-0.05371,-3.366,0.252,-1.496
2026-06-01 13:33:14.294,2204333750,23294,1,0.98389,0.04688,0.48071,7.756,1.351,3.168
2026-06-01 13:33:14.294,2204333750,23294,2,1.02637,0.04785,-0.04614,-0.618,-1.359,3.74
2026-06-01 13:33:14.494,2204333950,23494,1,0.97876,0.05469,0.48022,0.542,2.382,-0.42
2026-06-01 13:33:14.494,2204333950,23494,2,1.03857,0.08008,-0.04468,-4.74,0.679,3.313
2026-06-01 13:33:15.694,2204335150,23694,1,0.99854,0.05591,0.49048,-2.366,9.824,-2.412
2026-06-01 13:33:15.694,2204335150,23694,2,1.06909,0.06348,-0.05103,3.489,-1.092,-1.962
2026-06-01 13:33:15.894,2204335350,23894,1,0.96606,0.05469,0.50806,0.924,-2.16,-2.534
2026-06-01 13:33:15.894,2204335350,23894,2,1.02319,0.06372,-0.04736,-0.427,-4.176,3.954
2026-06-01 13:33:15.094,2204334550,24094,1,0.98193,0.05981,0.52222,-0.672,0.13,-0.466
2026-06-01 13:33:15.094,2204334550,24094,2,1.00928,0.05518,-0.06152,-1.168,-1.359,1.267
2026-06-01 13:33:15.294,2204334750,24294,1,0.94946,0.05493,0.51172,-1.435,9.977,-6.618
2026-06-01 13:33:15.294,2204334750,24294,2,0.98389,0.04614,-0.06348,-2.519,-2.427,1.198
2026-06-01 13:33:15.494,2204334950,24494,1,1.0061,0.07959,0.50952,4.595,-87.023,-1.382
2026-06-01 13:33:15.494,2204334950,24494,2,1.00269,0.07056,-0.08032,0.656,2.0,1.779
2026-06-01 13:33:16.694,2204336150,24694,1,1.01807,0.06543,0.39844,-0.855,-0.198,-0.763
2026-06-01 13:33:16.694,2204336150,24694,2,1.00562,0.02197,-0.14014,4.748,0.298,-0.382
2026-06-01 13:33:16.894,2204336350,24894,1,1.01367,0.05151,0.40894,-0.55,2.733,-0.282
2026-06-01 13:33:16.894,2204336350,24894,2,1.01685,0.06519,-0.10742,-2.031,-1.198,0.321
2026-06-01 13:33:16.094,2204335550,25094,1,1.01074,0.05591,0.40674,2.015,3.481,1.214
2026-06-01 13:33:16.094,2204335550,25094,2,1.03906,0.06689,-0.10303,0.237,10.366,2.16
2026-06-01 13:33:16.294,2204335750,25294,1,1.00073,0.04858,0.41675,-0.733,2.26,-1.84
2026-06-01 13:33:16.294,2204335750,25294,2,1.02954,0.06226,-0.06665,-1.229,0.763,-0.29
2026-06-01 13:33:16.494,2204335950,25494,1,1.00293,0.05859,0.41602,0.649,1.763,-1.542
2026-06-01 13:33:16.494,2204335950,25494,2,1.02271,0.05591,-0.07422,-0.626,0.885,0.71
2026-06-01 13:33:17.694,2204337150,25694,1,1.00537,0.06567,0.42236,0.916,3.176,-0.473
2026-06-01 13:33:17.694,2204337150,25694,2,1.02734,0.06152,-0.08032,-2.71,-0.725,-0.298
2026-06-01 13:33:17.894,2204337350,25894,1,1.00757,0.05615,0.42505,0.939,2.023,0.031
2026-06-01 13:33:17.894,2204337350,25894,2,1.03711,0.06372,-0.06836,-3.756,-0.977,-0.198
2026-06-01 13:33:17.094,2204336550,26094,1,1.00757,0.05835,0.42065,0.267,1.275,0.13
2026-06-01 13:33:17.094,2204336550,26094,2,1.00708,0.07813,-0.10767,-11.412,-13.481,0.099
2026-06-01 13:33:17.294,2204336750,26294,1,0.9978,0.05518,0.40503,-6.908,5.137,-5.489
2026-06-01 13:33:17.294,2204336750,26294,2,1.06079,0.07227,-0.09131,-17.756,-22.84,-3.115
2026-06-01 13:33:17.494,2204336950,26494,1,0.78198,-0.33203,0.68237,177.092,42.992,121.557
2026-06-01 13:33:17.494,2204336950,26494,2,0.98511,0.15845,-0.5293,-56.084,-9.718,9.511
2026-06-01 13:33:18.694,2204338150,26694,1,0.90576,0.10571,0.62061,7.382,12.351,9.824
2026-06-01 13:33:18.694,2204338150,26694,2,0.99805,0.08057,-0.29175,-4.015,-1.756,1.992
2026-06-01 13:33:18.894,2204338350,26894,1,0.89941,0.12158,0.63159,-0.962,0.603,-1.908
2026-06-01 13:33:18.894,2204338350,26894,2,0.99268,0.05664,-0.30225,-8.702,-4.908,2.618
2026-06-01 13:33:18.094,2204337550,27094,1,0.90308,0.12061,0.62988,-0.061,1.45,-1.977
2026-06-01 13:33:18.094,2204337550,27094,2,1.00806,0.07056,-0.28638,-3.557,-1.26,0.145
2026-06-01 13:33:18.294,2204337750,27294,1,0.89551,0.12573,0.63281,0.435,0.511,-1.771
2026-06-01 13:33:18.294,2204337750,27294,2,1.00317,0.08765,-0.28857,-4.328,-1.397,0.435
2026-06-01 13:33:18.494,2204337950,27494,1,0.89575,0.13135,0.61206,0.26,1.26,-0.931
2026-06-01 13:33:18.494,2204337950,27494,2,1.00562,0.07544,-0.29248,-2.557,-0.687,2.458
2026-06-01 13:33:19.741,2204339197,27741,1,0.89282,0.12573,0.63306,1.038,1.992,-0.046
2026-06-01 13:33:19.741,2204339197,27741,2,1.00195,0.0835,-0.32178,-1.153,-1.809,-0.412
2026-06-01 13:33:19.034,2204338490,28034,1,0.89063,0.14355,0.62524,-0.427,0.756,-1.916
2026-06-01 13:33:19.034,2204338490,28034,2,0.98901,0.08179,-0.30811,-1.626,-1.534,0.916
2026-06-01 13:33:19.234,2204338690,28234,1,0.89746,0.13354,0.63867,-0.107,1.687,-1.771
2026-06-01 13:33:19.234,2204338690,28234,2,1.00464,0.08447,-0.31641,-3.901,0.924,0.29
2026-06-01 13:33:19.434,2204338890,28434,1,0.89966,0.12915,0.62207,1.122,2.359,-0.069
2026-06-01 13:33:19.434,2204338890,28434,2,0.9939,0.08032,-0.30859,0.031,0.29,-0.153
2026-06-01 13:33:20.634,2204340090,28634,1,0.89917,0.13379,0.62842,2.153,3.053,0.931
2026-06-01 13:33:20.634,2204340090,28634,2,0.9917,0.0813,-0.31519,-0.099,1.015,0.046
2026-06-01 13:33:20.834,2204340290,28834,1,0.9021,0.14331,0.62817,0.153,0.947,-1.534
2026-06-01 13:33:20.834,2204340290,28834,2,0.99365,0.0813,-0.31909,-2.855,-1.145,0.71
2026-06-01 13:33:20.034,2204339490,29034,1,0.90479,0.10376,0.63306,2.885,2.344,0.725
2026-06-01 13:33:20.034,2204339490,29034,2,1.00317,0.04565,-0.32617,7.275,3.198,-1.519
2026-06-01 13:33:20.234,2204339690,29234,1,0.91113,0.10059,0.63428,28.992,12.221,18.519
2026-06-01 13:33:20.234,2204339690,29234,2,1.01074,0.12378,-0.26294,41.206,10.389,-14.58
2026-06-01 13:33:20.453,2204339909,29453,1,0.89038,0.16333,0.63257,45.573,17.252,20.855
2026-06-01 13:33:20.453,2204339909,29453,2,0.98169,0.13477,-0.26367,50.87,20.023,-18.885
2026-06-01 13:33:21.653,2204341109,29653,1,0.84253,0.21021,0.66064,51.595,17.534,24.038
2026-06-01 13:33:21.653,2204341109,29653,2,0.99121,0.15112,-0.22852,64.122,9.198,-16.954
2026-06-01 13:33:21.853,2204341309,29853,1,0.87891,0.20728,0.61816,64.863,10.84,33.756
2026-06-01 13:33:21.853,2204341309,29853,2,0.9812,0.20288,-0.31836,75.916,8.641,-20.779
2026-06-01 13:33:21.053,2204340509,30053,1,0.91382,0.17432,0.62671,51.313,16.26,30.13
2026-06-01 13:33:21.053,2204340509,30053,2,1.04761,0.09375,-0.32422,53.595,6.198,-14.458
2026-06-01 13:33:21.253,2204340709,30253,1,0.87891,0.12085,0.66479,42.107,15.45,34.565
2026-06-01 13:33:21.253,2204340709,30253,2,1.01807,0.07642,-0.20996,70.84,21.42,-2.206
2026-06-01 13:33:21.453,2204340909,30453,1,0.93359,0.20435,0.66602,52.427,12.817,41.885
2026-06-01 13:33:21.453,2204340909,30453,2,0.92993,0.03638,-0.31201,27.748,-11.107,5.198
2026-06-01 13:33:22.653,2204342109,30653,1,0.82397,0.19287,0.63159,47.046,43.809,40.954
2026-06-01 13:33:22.653,2204342109,30653,2,1.03955,0.11377,-0.35596,36.656,14.328,-0.038
2026-06-01 13:33:22.853,2204342309,30853,1,0.86084,0.18604,0.66455,70.748,20.603,60.214
2026-06-01 13:33:22.853,2204342309,30853,2,0.96094,0.19019,-0.27319,108.244,19.771,-26.29
2026-06-01 13:33:22.053,2204341509,31053,1,0.80542,0.28345,0.6582,48.099,2.779,32.099
2026-06-01 13:33:22.053,2204341509,31053,2,0.96851,0.22974,-0.25098,40.908,-6.679,2.069
2026-06-01 13:33:22.253,2204341709,31253,1,0.83838,0.25952,0.67798,26.977,-8.382,13.031
2026-06-01 13:33:22.253,2204341709,31253,2,1.03516,0.14624,-0.30444,29.87,-16.573,5.221
2026-06-01 13:33:22.453,2204341909,31453,1,0.91064,0.23071,0.66284,24.863,0.916,20.214
2026-06-01 13:33:22.453,2204341909,31453,2,1.00757,0.08496,-0.35693,1.336,0.427,-2.275
2026-06-01 13:33:23.653,2204343109,31653,1,0.85669,0.13599,0.67334,27.008,18.947,22.298
2026-06-01 13:33:23.653,2204343109,31653,2,0.97144,0.08643,-0.3186,30.221,11.511,-13.237
2026-06-01 13:33:23.853,2204343309,31853,1,0.85938,0.12378,0.66382,38.13,15.336,21.977
2026-06-01 13:33:23.853,2204343309,31853,2,0.96655,0.04614,-0.36255,45.992,3.924,-5.618
2026-06-01 13:33:23.053,2204342509,32053,1,0.89355,0.11694,0.64038,52.656,15.573,30.435
2026-06-01 13:33:23.053,2204342509,32053,2,1.00708,0.08691,-0.32153,59.496,12.779,-21.924
2026-06-01 13:33:23.253,2204342709,32253,1,0.85986,0.06909,0.64282,54.42,7.237,31.137
2026-06-01 13:33:23.253,2204342709,32253,2,1.00342,0.04053,-0.44458,84.321,12.198,-25.985
2026-06-01 13:33:23.453,2204342909,32453,1,0.93945,0.18726,0.64478,81.275,35.702,61.214
2026-06-01 13:33:23.453,2204342909,32453,2,1.00024,0.04541,-0.29907,45.885,17.0,-18.42
2026-06-01 13:33:24.653,2204344109,32653,1,0.8374,0.17725,0.67285,52.389,40.489,35.267
2026-06-01 13:33:24.653,2204344109,32653,2,0.97998,0.18115,-0.32397,55.458,9.695,-14.664
2026-06-01 13:33:24.853,2204344309,32853,1,0.7998,0.23096,0.68237,39.42,16.702,20.328
2026-06-01 13:33:24.853,2204344309,32853,2,0.98657,0.19897,-0.21973,51.641,17.908,-13.252
2026-06-01 13:33:24.053,2204343509,33053,1,0.83008,0.30493,0.72241,28.565,7.366,15.321
2026-06-01 13:33:24.053,2204343509,33053,2,0.99609,0.22559,-0.23267,44.771,4.389,3.847
2026-06-01 13:33:24.269,2204343725,33269,1,0.82617,0.29028,0.67163,20.618,7.969,15.26
2026-06-01 13:33:24.269,2204343725,33269,2,0.98877,0.19629,-0.21069,-11.695,-1.489,4.107
2026-06-01 13:33:25.761,2204345217,33761,1,0.85986,0.1333,0.69922,-0.443,-7.412,-8.176
2026-06-01 13:33:25.761,2204345217,33761,2,1.01147,0.10986,-0.25415,-2.221,-10.603,-4.626
2026-06-01 13:33:25.961,2204345417,33961,1,0.87939,0.15479,0.68311,0.664,1.023,-2.565
2026-06-01 13:33:25.961,2204345417,33961,2,0.99463,0.0354,-0.31738,-20.244,7.458,-5.519
2026-06-01 13:33:25.161,2204344617,34161,1,0.83618,0.10986,0.63037,0.29,-2.771,-0.748
2026-06-01 13:33:25.161,2204344617,34161,2,1.0293,0.13379,-0.37817,-20.29,-29.679,-9.649
2026-06-01 13:33:25.361,2204344817,34361,1,0.83838,0.18921,0.63013,-12.351,-8.71,-3.939
2026-06-01 13:33:25.361,2204344817,34361,2,1.01904,0.13696,-0.28491,-21.031,-17.313,10.565
2026-06-01 13:33:25.561,2204345017,34561,1,0.84106,0.21045,0.65894,5.137,-4.977,3.13
2026-06-01 13:33:25.561,2204345017,34561,2,0.98877,0.14307,-0.3103,-5.046,-0.557,4.252
2026-06-01 13:33:26.761,2204346217,34761,1,0.89111,0.20068,0.6438,4.931,5.466,2.084
2026-06-01 13:33:26.761,2204346217,34761,2,0.96338,0.12158,-0.30249,-2.115,0.985,0.947
2026-06-01 13:33:26.961,2204346417,34961,1,0.85645,0.20898,0.66431,0.992,2.893,2.198
2026-06-01 13:33:26.961,2204346417,34961,2,1.01367,0.12988,-0.28003,6.809,3.969,2.824
2026-06-01 13:33:26.161,2204345617,35161,1,0.87573,0.15137,0.6582,10.275,5.756,4.458
2026-06-01 13:33:26.161,2204345617,35161,2,0.99658,0.10767,-0.32007,13.733,8.351,-7.74
2026-06-01 13:33:26.361,2204345817,35361,1,0.8562,0.19092,0.66943,16.924,9.908,14.847
2026-06-01 13:33:26.361,2204345817,35361,2,0.98706,0.13306,-0.29004,29.412,5.008,-1.374
2026-06-01 13:33:26.561,2204346017,35561,1,0.84985,0.20313,0.67212,18.649,9.855,10.718
2026-06-01 13:33:26.561,2204346017,35561,2,1.00195,0.14722,-0.26514,10.527,3.58,-4.992
2026-06-01 13:33:27.761,2204347217,35761,1,0.8479,0.19897,0.67651,5.137,3.794,0.695
2026-06-01 13:33:27.761,2204347217,35761,2,1.00781,0.14844,-0.26123,-2.565,0.092,0.519
2026-06-01 13:33:27.961,2204347417,35961,1,0.84399,0.20972,0.66699,-10.748,-3.748,-8.817
2026-06-01 13:33:27.961,2204347417,35961,2,1.00293,0.13477,-0.28662,-13.229,-3.214,8.0
2026-06-01 13:33:27.180,2204346636,36180,1,0.87646,0.19507,0.65894,-17.603,-3.466,-12.328
2026-06-01 13:33:27.180,2204346636,36180,2,0.99243,0.11792,-0.30273,-16.832,-4.595,10.198
2026-06-01 13:33:27.380,2204346836,36380,1,0.86719,0.18604,0.65723,-14.321,-0.466,-7.382
2026-06-01 13:33:27.380,2204346836,36380,2,1.00146,0.09155,-0.31836,-13.947,-3.107,8.763
2026-06-01 13:33:28.580,2204348036,36580,1,0.87939,0.17554,0.65918,-8.794,2.786,1.756
2026-06-01 13:33:28.580,2204348036,36580,2,1.00269,0.09106,-0.30347,-15.939,-5.511,7.023
2026-06-01 13:33:28.780,2204348236,36780,1,0.90137,0.13037,0.65967,-15.42,2.344,-9.542
2026-06-01 13:33:28.780,2204348236,36780,2,0.97754,0.09424,-0.31445,-15.802,2.771,6.733
2026-06-01 13:33:28.980,2204348436,36980,1,0.89185,0.16431,0.66772,-5.641,9.031,-3.634
2026-06-01 13:33:28.980,2204348436,36980,2,0.98486,0.10059,-0.30371,-14.55,0.702,8.321
2026-06-01 13:33:28.180,2204347636,37180,1,0.85742,0.16919,0.68823,-14.45,1.115,-13.328
2026-06-01 13:33:28.180,2204347636,37180,2,0.98999,0.03809,-0.2583,-22.427,2.641,7.061
2026-06-01 13:33:28.380,2204347836,37380,1,0.81519,0.09448,0.72266,-7.405,3.511,-7.336
2026-06-01 13:33:28.380,2204347836,37380,2,0.99683,0.01904,-0.30127,-11.756,-0.649,-0.504
2026-06-01 13:33:29.580,2204349036,37580,1,0.82568,0.13208,0.72437,5.405,-3.634,4.023
2026-06-01 13:33:29.580,2204349036,37580,2,0.98389,0.07788,-0.29883,-13.733,-13.977,-4.351
2026-06-01 13:33:29.780,2204349236,37780,1,0.90771,0.14111,0.70703,-2.183,-11.244,-2.374
2026-06-01 13:33:29.780,2204349236,37780,2,1.04028,0.04517,-0.28979,-1.924,-3.183,3.305
2026-06-01 13:33:29.980,2204349436,37980,1,0.86816,0.13403,0.67017,0.542,7.687,2.061
2026-06-01 13:33:29.980,2204349436,37980,2,1.00757,0.04321,-0.28809,-3.183,4.611,-0.885
2026-06-01 13:33:29.180,2204348636,38180,1,0.83301,0.14893,0.71484,0.382,10.405,1.092
2026-06-01 13:33:29.180,2204348636,38180,2,1.00562,0.06079,-0.26782,-4.847,-2.786,-0.802
2026-06-01 13:33:29.380,2204348836,38380,1,0.84229,0.14917,0.71875,-0.794,7.954,1.16
2026-06-01 13:33:29.380,2204348836,38380,2,1.01025,0.0686,-0.29321,5.267,0.84,0.786
2026-06-01 13:33:30.580,2204350036,38580,1,0.83081,0.12549,0.72925,-8.321,6.87,-1.214
2026-06-01 13:33:30.580,2204350036,38580,2,1.01489,0.05176,-0.302,-4.84,0.496,6.42
2026-06-01 13:33:30.780,2204350236,38780,1,0.84473,0.08618,0.71216,-13.824,-2.626,-12.939
2026-06-01 13:33:30.780,2204350236,38780,2,1.01001,0.03687,-0.29517,-18.229,-5.87,2.611
2026-06-01 13:33:30.980,2204350436,38980,1,0.8457,0.1333,0.71143,1.061,-3.756,-2.939
2026-06-01 13:33:30.980,2204350436,38980,2,0.99902,0.0459,-0.26831,-11.656,-7.252,-1.771
2026-06-01 13:33:30.180,2204349636,39180,1,0.84985,0.15332,0.72412,-1.031,0.977,-2.275
2026-06-01 13:33:30.180,2204349636,39180,2,0.99707,0.07568,-0.22314,6.756,4.435,0.725
2026-06-01 13:33:30.380,2204349836,39380,1,0.86182,0.13379,0.69604,-11.977,15.458,-8.031
2026-06-01 13:33:30.380,2204349836,39380,2,0.98804,-0.07495,-0.31494,-11.939,22.008,17.153
2026-06-01 13:33:31.580,2204351036,39580,1,0.84717,0.05444,0.67334,-4.511,9.168,-3.511
2026-06-01 13:33:31.580,2204351036,39580,2,0.93066,-0.04907,-0.34497,-40.977,-10.366,4.328
2026-06-01 13:33:31.780,2204351236,39780,1,0.92261,0.09399,0.73779,0.58,-1.191,1.542
2026-06-01 13:33:31.780,2204351236,39780,2,1.03247,-0.04932,-0.3396,-25.687,-9.031,-4.305
2026-06-01 13:33:31.980,2204351436,39980,1,0.87378,0.06323,0.69702,5.618,4.443,3.679
2026-06-01 13:33:31.980,2204351436,39980,2,1.03784,0.02612,-0.25684,7.076,7.832,-0.374
2026-06-01 13:33:31.209,2204350665,40209,1,0.85303,0.14014,0.70996,-2.198,2.763,-4.763
2026-06-01 13:33:31.209,2204350665,40209,2,0.98706,0.01563,-0.2478,7.672,7.885,4.802
2026-06-01 13:33:32.621,2204352077,40621,1,0.8103,0.20361,0.73096,6.137,-1.023,1.595
2026-06-01 13:33:32.621,2204352077,40621,2,0.95801,0.125,-0.27856,-21.855,-23.198,-1.679
2026-06-01 13:33:32.890,2204352346,40890,1,0.98901,0.17993,0.60962,26.977,3.344,25.023
2026-06-01 13:33:32.890,2204352346,40890,2,1.14526,0.11938,-0.36279,-24.053,-14.336,-16.122
2026-06-01 13:33:32.090,2204351546,41090,1,0.77271,0.20752,0.74341,-2.992,2.267,1.214
2026-06-01 13:33:32.090,2204351546,41090,2,1.01318,-0.02124,-0.21069,-23.305,-12.198,8.16
2026-06-01 13:33:32.290,2204351746,41290,1,0.82861,0.08032,0.72461,-12.519,-10.802,-5.763
2026-06-01 13:33:32.290,2204351746,41290,2,1.01392,0.00244,-0.31885,-74.137,-35.786,-7.153
2026-06-01 13:33:32.490,2204351946,41490,1,0.86499,0.06982,0.69165,-12.618,-5.481,-7.74
2026-06-01 13:33:32.490,2204351946,41490,2,0.98853,0.02954,-0.36816,-27.45,-10.0,0.595
2026-06-01 13:33:33.690,2204353146,41690,1,0.8689,0.09546,0.69067,5.046,-5.267,-0.748
2026-06-01 13:33:33.690,2204353146,41690,2,1.00049,0.07202,-0.31934,-0.756,-4.443,-2.916
2026-06-01 13:33:33.890,2204353346,41890,1,0.87646,0.12305,0.68018,5.573,2.359,0.069
2026-06-01 13:33:33.890,2204353346,41890,2,0.99683,0.10181,-0.31616,6.832,2.344,-2.443
2026-06-01 13:33:33.090,2204352546,42090,1,0.86353,0.14844,0.67871,3.282,3.0,-0.931
2026-06-01 13:33:33.090,2204352546,42090,2,1.00195,0.08691,-0.30786,9.321,5.427,0.412
2026-06-01 13:33:33.290,2204352746,42290,1,0.84229,0.14429,0.68872,4.267,4.092,0.649
2026-06-01 13:33:33.290,2204352746,42290,2,0.9978,0.08838,-0.31689,1.313,1.489,-1.634
2026-06-01 13:33:33.490,2204352946,42490,1,0.86133,0.15869,0.68921,-0.374,2.244,0.504
2026-06-01 13:33:33.490,2204352946,42490,2,1.00635,0.09644,-0.31177,2.145,1.26,2.641
2026-06-01 13:33:34.690,2204354146,42690,1,0.83618,0.14429,0.69189,1.313,2.87,1.351
2026-06-01 13:33:34.690,2204354146,42690,2,0.9834,0.07617,-0.32739,1.969,2.069,0.107
2026-06-01 13:33:34.890,2204354346,42890,1,0.83667,0.13867,0.67456,-5.336,1.214,-5.695
2026-06-01 13:33:34.890,2204354346,42890,2,0.99805,0.09253,-0.33179,-3.832,1.069,3.053
2026-06-01 13:33:34.090,2204353546,43090,1,0.8208,0.16357,0.68823,-12.458,8.382,-9.786
2026-06-01 13:33:34.090,2204353546,43090,2,0.96436,0.08618,-0.31543,-0.458,12.023,15.084
2026-06-01 13:33:34.290,2204353746,43290,1,0.88257,0.13623,0.68823,-8.557,-5.084,-6.87
2026-06-01 13:33:34.290,2204353746,43290,2,1.0,0.06226,-0.33301,-14.298,-0.87,1.168
2026-06-01 13:33:34.490,2204353946,43490,1,0.86157,0.14453,0.67847,-3.221,1.275,-3.015
2026-06-01 13:33:34.490,2204353946,43490,2,1.0,0.05249,-0.31909,3.473,2.855,1.763
2026-06-01 13:33:35.690,2204355146,43690,1,0.87842,0.14063,0.68726,4.626,2.221,1.672
2026-06-01 13:33:35.690,2204355146,43690,2,1.00049,0.04517,-0.30762,6.908,3.366,-0.374
2026-06-01 13:33:35.890,2204355346,43890,1,0.8877,0.14136,0.65991,11.221,0.13,7.229
2026-06-01 13:33:35.890,2204355346,43890,2,1.03027,0.05396,-0.31079,11.053,5.885,-5.137
2026-06-01 13:33:35.090,2204354546,44090,1,0.77417,0.13623,0.72925,21.817,0.473,4.153
2026-06-01 13:33:35.090,2204354546,44090,2,1.02295,0.04395,-0.29492,1.26,-10.115,-18.382
2026-06-01 13:33:35.290,2204354746,44290,1,0.85693,0.20947,0.65625,27.595,15.137,17.588
2026-06-01 13:33:35.290,2204354746,44290,2,1.00903,0.13916,-0.30566,29.931,18.183,-7.191
2026-06-01 13:33:35.490,2204354946,44490,1,0.81152,0.21167,0.70459,-0.763,11.031,6.664
2026-06-01 13:33:35.490,2204354946,44490,2,0.9917,0.10938,-0.26489,-14.038,-4.817,7.015
2026-06-01 13:33:36.690,2204356146,44690,1,0.84033,0.17798,0.70679,-19.282,-3.794,-6.832
2026-06-01 13:33:36.690,2204356146,44690,2,0.99316,0.06421,-0.30005,-33.183,-11.786,13.595
2026-06-01 13:33:36.939,2204356395,44939,1,0.85669,0.09937,0.70215,-15.618,-10.527,-16.573
2026-06-01 13:33:36.939,2204356395,44939,2,0.99341,0.04639,-0.32715,-24.947,-11.244,-0.458
2026-06-01 13:33:36.139,2204355595,45139,1,0.91162,0.12988,0.67212,3.786,-1.389,-1.557
2026-06-01 13:33:36.139,2204355595,45139,2,1.01465,0.04517,-0.33154,2.672,9.099,0.458
2026-06-01 13:33:36.339,2204355795,45339,1,0.87573,0.17236,0.68311,4.87,14.55,4.153
2026-06-01 13:33:36.339,2204355795,45339,2,1.01855,0.07153,-0.26953,13.397,15.794,6.618
2026-06-01 13:33:36.539,2204355995,45539,1,0.83179,0.12769,0.73975,-5.298,30.069,-0.351
2026-06-01 13:33:36.539,2204355995,45539,2,0.98438,0.03345,-0.24292,25.87,35.855,10.611
2026-06-01 13:33:37.739,2204357195,45739,1,0.65845,0.04956,0.75562,-14.969,30.626,-3.191
2026-06-01 13:33:37.739,2204357195,45739,2,0.92236,-0.10742,-0.05542,11.244,45.985,7.443
2026-06-01 13:33:37.939,2204357395,45939,1,0.4209,0.09912,0.7168,5.191,-2.603,8.015
2026-06-01 13:33:37.939,2204357395,45939,2,0.90649,0.08496,-0.09546,-18.405,-31.954,-19.664
2026-06-01 13:33:37.139,2204356595,46139,1,0.66577,0.13745,0.74243,-5.763,5.206,-6.389
2026-06-01 13:33:37.139,2204356595,46139,2,0.9917,-0.01831,-0.02417,-35.74,-19.634,1.947
2026-06-01 13:33:37.339,2204356795,46339,1,0.64185,0.15942,0.8938,-5.626,35.58,-7.16
2026-06-01 13:33:37.339,2204356795,46339,2,1.08325,0.00854,0.00586,-15.382,14.145,7.305
2026-06-01 13:33:37.539,2204356995,46539,1,0.62085,0.15234,1.16748,,23.13,8.855
2026-06-01 13:33:37.539,2204356995,46539,2,1.2981,-0.1106,0.12695,-19.695,9.649,13.168
2026-06-01 13:33:38.739,2204358195,46739,1,0.74463,0.04077,1.30029,-13.641,4.992,5.924
2026-06-01 13:33:38.739,2204358195,46739,2,1.03345,-0.21582,0.2229,4.817,15.427,-9.779
2026-06-01 13:33:38.939,2204358395,46939,1,0.34473,0.05615,0.8667,-1.435,-4.687,-16.45
2026-06-01 13:33:38.939,2204358395,46939,2,0.97754,-0.10864,0.08496,-39.214,-22.901,-17.74
2026-06-01 13:33:38.139,2204357595,47139,1,0.63257,0.02637,1.09619,8.298,-20.756,-4.16
2026-06-01 13:33:38.139,2204357595,47139,2,1.16455,-0.08789,0.00879,35.405,-9.305,-16.0
2026-06-01 13:33:38.339,2204357795,47339,1,1.08203,0.34692,1.00366,1.038,-3.382,2.954
2026-06-01 13:33:38.339,2204357795,47339,2,1.42896,-0.13721,0.02417,-5.885,-6.198,27.137
2026-06-01 13:33:38.539,2204357995,47539,1,0.75513,0.03735,0.90674,13.0,-20.435,22.985
2026-06-01 13:33:38.539,2204357995,47539,2,1.3479,-0.05127,-0.0896,-6.382,-60.687,13.16
2026-06-01 13:33:39.739,2204359195,47739,1,0.76733,0.11304,0.84668,-22.282,-6.679,-23.107
2026-06-01 13:33:39.739,2204359195,47739,2,0.84595,-0.03394,-0.1123,-31.435,6.061,-6.275
2026-06-01 13:33:39.939,2204359395,47939,1,0.25293,-0.04834,0.46973,6.519,-17.763,-2.527
2026-06-01 13:33:39.939,2204359395,47939,2,0.47705,-0.02954,-0.03516,18.756,-33.794,-23.0
2026-06-01 13:33:39.139,2204358595,48139,1,0.82666,0.23486,0.72705,0.855,-19.237,-4.985
2026-06-01 13:33:39.139,2204358595,48139,2,0.94263,0.1394,-0.33325,-93.275,-43.282,-4.511
2026-06-01 13:33:39.339,2204358795,48339,1,0.93481,0.17358,0.73389,-27.71,8.84,-27.13
2026-06-01 13:33:39.339,2204358795,48339,2,0.99316,0.07373,-0.30469,8.595,9.435,-0.038
2026-06-01 13:33:39.549,2204359005,48549,1,0.76147,0.12671,0.72998,-14.718,4.397,-12.618
2026-06-01 13:33:39.549,2204359005,48549,2,1.01807,0.10571,-0.29321,-6.969,-4.718,6.275
2026-06-01 13:33:40.749,2204360205,48749,1,0.81201,0.15649,0.72144,-7.779,1.046,-6.908
2026-06-01 13:33:40.749,2204360205,48749,2,0.99829,0.08838,-0.2832,-12.763,-2.641,5.122
2026-06-01 13:33:40.949,2204360405,48949,1,0.84497,0.17627,0.68604,-1.42,-2.221,-0.351
2026-06-01 13:33:40.949,2204360405,48949,2,1.0105,0.10986,-0.28857,-0.198,-1.588,-1.573
2026-06-01 13:33:40.149,2204359605,49149,1,0.9187,0.1521,0.67603,-3.176,11.282,-2.298
2026-06-01 13:33:40.149,2204359605,49149,2,0.95435,0.06958,-0.24463,3.29,19.763,3.656
2026-06-01 13:33:40.349,2204359805,49349,1,0.43481,0.10181,0.62158,18.87,28.534,13.794
2026-06-01 13:33:40.349,2204359805,49349,2,0.87256,0.01953,-0.14941,48.351,-3.183,6.687
2026-06-01 13:33:40.549,2204360005,49549,1,0.6958,0.1355,0.76636,8.427,22.779,5.985
2026-06-01 13:33:40.549,2204360005,49549,2,1.02612,-0.01514,0.0332,36.542,24.977,14.466
2026-06-01 13:33:41.749,2204361205,49749,1,0.68237,0.13257,0.87891,28.695,38.71,27.282
2026-06-01 13:33:41.749,2204361205,49749,2,1.13599,0.23853,-0.07568,-4.435,11.382,-12.595
2026-06-01 13:33:41.949,2204361405,49949,1,0.80298,0.11792,1.10742,-17.84,24.206,-24.13
2026-06-01 13:33:41.949,2204361405,49949,2,1.35962,0.00806,0.02344,-48.901,31.649,16.0
2026-06-01 13:33:41.149,2204360605,50149,1,0.83447,-0.00464,0.96606,-44.206,-7.061,-1.809
2026-06-01 13:33:41.149,2204360605,50149,2,0.99536,0.01563,0.04517,7.053,2.344,-19.519
2026-06-01 13:33:41.349,2204360805,50349,1,0.35938,-0.07959,1.17798,-27.885,11.718,-19.511
2026-06-01 13:33:41.349,2204360805,50349,2,0.99731,-0.16016,0.1687,-2.863,0.969,6.206
2026-06-01 13:33:41.549,2204361005,50549,1,0.55078,0.08228,1.03198,-31.71,14.168,-10.992
2026-06-01 13:33:41.549,2204361005,50549,2,1.12256,-0.12012,0.06714,31.038,9.802,14.527
2026-06-01 13:33:42.749,2204362205,50749,1,0.47974,0.00415,0.96289,-14.573,23.611,-4.504
2026-06-01 13:33:42.749,2204362205,50749,2,1.01489,-0.14014,0.15283,-18.031,3.832,18.282
2026-06-01 13:33:42.949,2204362405,50949,1,0.38989,-0.17383,1.10522,-2.298,12.107,-2.771
2026-06-01 13:33:42.949,2204362405,50949,2,0.93994,-0.20996,0.08984,-31.702,-19.931,-8.069
2026-06-01 13:33:42.149,2204361605,51149,1,1.08765,0.2688,1.66064,49.427,29.45,1.122
2026-06-01 13:33:42.149,2204361605,51149,2,1.13208,-0.104,0.14355,18.939,1.168,-8.015
2026-06-01 13:33:42.349,2204361805,51349,1,0.55444,0.1582,1.21069,-4.565,-31.588,-7.046
2026-06-01 13:33:42.349,2204361805,51349,2,1.2627,0.03369,0.13745,4.733,-27.412,-12.519
2026-06-01 13:33:42.549,2204362005,51549,1,0.46094,0.16064,0.7251,-1.183,-13.153,-6.947
2026-06-01 13:33:42.549,2204362005,51549,2,0.59741,0.03223,0.02344,-3.695,-8.985,-10.405
2026-06-01 13:33:43.749,2204363205,51749,1,0.13501,-0.00854,0.53638,2.313,-47.885,-6.237
2026-06-01 13:33:43.749,2204363205,51749,2,0.82129,-0.01001,0.00439,10.061,-54.763,-20.649
2026-06-01 13:33:43.949,2204363405,51949,1,0.73169,0.04395,0.71313,15.481,-40.374,-1.542
2026-06-01 13:33:43.949,2204363405,51949,2,1.0498,0.11621,-0.27148,10.84,-12.328,-6.298
2026-06-01 13:33:43.149,2204362605,52149,1,0.89893,0.20728,0.70581,12.458,-4.573,-0.321
2026-06-01 13:33:43.149,2204362605,52149,2,1.01685,0.09009,-0.23608,-1.557,1.458,-1.702
2026-06-01 13:33:43.349,2204362805,52349,1,0.82886,0.18774,0.71851,-7.084,5.038,-4.176
2026-06-01 13:33:43.349,2204362805,52349,2,0.9939,0.09497,-0.29053,-1.947,-0.748,2.206
2026-06-01 13:33:43.549,2204363005,52549,1,0.83545,0.15942,0.70728,2.656,3.954,2.374
2026-06-01 13:33:43.549,2204363005,52549,2,1.05444,0.05835,-0.28247,-1.191,2.489,3.565
2026-06-01 13:33:44.749,2204364205,52749,1,0.76367,0.12842,0.66772,-3.092,30.061,-1.206
2026-06-01 13:33:44.749,2204364205,52749,2,0.64185,0.03613,-0.14331,5.481,42.534,7.824
2026-06-01 13:33:44.949,2204364405,52949,1,0.51465,0.04785,0.6062,-1.496,-3.55,2.481
2026-06-01 13:33:44.949,2204364405,52949,2,0.74658,0.09277,-0.16284,63.748,12.84,8.55
2026-06-01 13:33:44.149,2204363605,53149,1,0.8186,0.19873,0.77881,3.588,41.023,7.74
2026-06-01 13:33:44.149,2204363605,53149,2,0.9812,-0.14355,-0.0957,26.16,30.229,25.038
2026-06-01 13:33:44.349,2204363805,53349,1,0.5271,0.07007,1.06445,-0.031,33.282,14.511
2026-06-01 13:33:44.349,2204363805,53349,2,1.25391,0.02002,,7.061,44.901,-3.053
2026-06-01 13:33:44.549,2204364005,53549,1,0.71851,0.17651,1.16968,-37.092,14.076,-9.427
2026-06-01 13:33:44.549,2204364005,53549,2,1.40869,-0.11377,0.03467,-45.206,4.107,14.649
2026-06-01 13:33:45.749,2204365205,53749,1,0.64771,-0.08203,0.96216,-5.779,34.511,-1.321
2026-06-01 13:33:45.749,2204365205,53749,2,0.8269,0.00024,0.04492,24.489,46.351,-2.969
2026-06-01 13:33:45.949,2204365405,53949,1,0.55127,-0.01831,1.02173,1.664,-7.031,-0.847
2026-06-01 13:33:45.949,2204365405,53949,2,1.1228,-0.10474,0.04321,11.008,0.405,-5.496
2026-06-01 13:33:45.149,2204364605,54149,1,0.56641,0.0603,0.95654,3.366,17.366,-3.511
2026-06-01 13:33:45.149,2204364605,54149,2,0.93896,-0.04541,0.08716,-2.863,3.641,-0.985
2026-06-01 13:33:45.349,2204364805,54349,1,0.61572,0.09814,0.97925,8.939,7.046,5.153
2026-06-01 13:33:45.349,2204364805,54349,2,1.06055,-0.06323,0.11279,39.489,19.511,7.664
2026-06-01 13:33:45.552,2204365008,54552,1,0.43604,0.02051,0.93115,-8.916,22.885,-3.817
2026-06-01 13:33:45.552,2204365008,54552,2,0.99512,-0.06543,0.04492,-23.198,-15.305,0.687
2026-06-01 13:33:46.778,2204366234,54778,1,0.44238,0.05396,0.98462,16.771,20.053,9.786
2026-06-01 13:33:46.778,2204366234,54778,2,0.90308,-0.05176,0.11475,2.382,14.176,0.84
2026-06-01 13:33:46.978,2204366434,54978,1,0.3833,0.07007,0.96802,-8.374,-2.573,-12.145
2026-06-01 13:33:46.978,2204366434,54978,2,1.0,-0.09497,0.1189,-22.29,-9.595,9.71
2026-06-01 13:33:46.178,2204365634,55178,1,0.47461,0.01831,1.02563,-0.084,13.229,5.481
2026-06-01 13:33:46.178,2204365634,55178,2,0.99854,-0.07935,0.23462,-5.824,3.962,1.618
2026-06-01 13:33:46.378,2204365834,55378,1,0.6416,-0.03247,1.77466,34.702,40.046,5.198
2026-06-01 13:33:46.378,2204365834,55378,2,1.26001,-0.0481,0.41235,12.359,36.794,-0.145
2026-06-01 13:33:47.578,2204367034,55578,1,0.45776,0.10327,1.14258,8.435,-43.855,-15.45
2026-06-01 13:33:47.578,2204367034,55578,2,0.93726,-0.10718,0.23779,4.473,-38.053,-11.321
2026-06-01 13:33:47.778,2204367234,55778,1,0.37891,0.11938,0.67139,4.214,-49.321,-4.145
2026-06-01 13:33:47.778,2204367234,55778,2,0.58838,-0.01367,-0.12842,-38.198,-58.672,-14.802
2026-06-01 13:33:47.978,2204367434,55978,1,0.42749,0.09204,0.3999,19.244,-50.618,10.466
2026-06-01 13:33:47.978,2204367434,55978,2,0.88501,-0.04517,-0.13623,-8.061,-6.198,12.206
2026-06-01 13:33:47.178,2204366634,56178,1,0.74683,0.08496,0.73779,-5.435,-0.893,3.42
2026-06-01 13:33:47.178,2204366634,56178,2,1.08057,0.04102,-0.1814,4.473,-0.13,6.504
2026-06-01 13:33:47.378,2204366834,56378,1,0.83618,0.11646,0.75732,7.084,5.084,0.321
2026-06-01 13:33:47.378,2204366834,56378,2,1.02417,0.07007,-0.16699,-15.084,-4.115,-4.137
2026-06-01 13:33:48.578,2204368034,56578,1,0.80664,0.15698,0.74805,-2.672,4.42,-3.427
2026-06-01 13:33:48.578,2204368034,56578,2,1.01758,0.04736,-0.21021,-4.695,-1.748,2.824
2026-06-01 13:33:48.778,2204368234,56778,1,0.80371,0.15479,0.74146,0.542,4.214,1.145
2026-06-01 13:33:48.778,2204368234,56778,2,1.00635,0.0957,-0.22681,-8.939,-1.16,-3.336
2026-06-01 13:33:48.978,2204368434,56978,1,0.81689,0.15991,0.74243,-0.847,2.26,-0.756
2026-06-01 13:33:48.978,2204368434,56978,2,1.01978,0.06934,-0.24976,-3.977,-1.924,0.863
2026-06-01 13:33:48.178,2204367634,57178,1,0.81226,0.13135,0.75879,0.969,1.901,1.901
2026-06-01 13:33:48.178,2204367634,57178,2,1.01514,0.05811,-0.21899,0.672,1.786,-1.916
2026-06-01 13:33:48.378,2204367834,57378,1,0.79688,0.13159,0.75708,2.84,2.702,0.29
2026-06-01 13:33:48.378,2204367834,57378,2,1.01953,0.06812,-0.20581,5.176,3.26,-1.771
2026-06-01 13:33:49.578,2204369034,57578,1,0.8125,0.14429,0.76001,1.992,3.397,0.031
2026-06-01 13:33:49.578,2204369034,57578,2,1.0127,0.07178,-0.19751,-0.252,1.573,-0.221
2026-06-01 13:33:49.778,2204369234,57778,1,0.80518,0.15332,0.75879,-2.504,0.901,-2.374
2026-06-01 13:33:49.778,2204369234,57778,2,1.01855,0.05688,-0.19312,-3.015,0.099,1.504
2026-06-01 13:33:49.978,2204369434,57978,1,0.79419,0.14404,0.76172,2.008,3.748,1.481
2026-06-01 13:33:49.978,2204369434,57978,2,1.02051,0.0625,-0.20923,-0.023,0.176,0.809
2026-06-01 13:33:49.178,2204368634,58178,1,0.7981,0.14819,0.76367,3.557,3.954,1.611
2026-06-01 13:33:49.178,2204368634,58178,2,1.0127,0.07593,-0.20776,1.153,0.954,-0.351
2026-06-01 13:33:49.385,2204368841,58385,1,0.79663,0.15601,0.75977,0.107,1.328,0.176
2026-06-01 13:33:49.385,2204368841,58385,2,1.00732,0.07715,-0.18481,-1.153,0.359,0.87
2026-06-01 13:33:50.585,2204370041,58585,1,0.79956,0.12671,0.76855,-6.786,-1.412,-6.359
2026-06-01 13:33:50.585,2204370041,58585,2,1.01636,0.05835,-0.20996,-5.374,-0.458,3.221
2026-06-01 13:33:50.785,2204370241,58785,1,0.80005,0.12915,0.76172,-1.0,-0.115,-1.969
2026-06-01 13:33:50.785,2204370241,58785,2,1.02173,0.04321,-0.22754,-2.092,-2.878,0.763
2026-06-01 13:33:50.985,2204370441,58985,1,0.79663,0.14893,0.76025,-2.794,-1.855,-3.397
2026-06-01 13:33:50.985,2204370441,58985,2,1.00659,0.05981,-0.21802,-10.374,-5.26,-1.336
2026-06-01 13:33:50.185,2204369641,59185,1,0.82031,0.13696,0.76123,-1.687,1.176,-4.786
2026-06-01 13:33:50.185,2204369641,59185,2,1.01733,0.0542,-0.21289,-5.893,2.176,-0.763
2026-06-01 13:33:50.385,2204369841,59385,1,0.81396,0.14429,0.75513,-4.695,1.962,-5.069
2026-06-01 13:33:50.385,2204369841,59385,2,1.02051,0.06958,-0.24194,-4.87,2.008,0.664
2026-06-01 13:33:51.585,2204371041,59585,1,0.78784,0.14233,0.76147,4.13,2.511,4.107
2026-06-01 13:33:51.585,2204371041,59585,2,1.01318,0.08838,-0.2334,-0.008,-0.756,-2.58
2026-06-01 13:33:51.785,2204371241,59785,1,0.76953,0.1062,0.79736,0.664,0.298,-4.29
2026-06-01 13:33:51.785,2204371241,59785,2,1.00757,0.06714,-0.21948,2.863,-1.84,-1.511
2026-06-01 13:33:51.985,2204371441,59985,1,0.81982,0.14233,0.74023,16.84,4.542,10.931
2026-06-01 13:33:51.985,2204371441,59985,2,1.01123,0.09668,-0.22827,19.427,5.962,-10.099
2026-06-01 13:33:51.185,2204370641,60185,1,0.8064,0.17065,0.75342,13.366,5.374,12.244
2026-06-01 13:33:51.185,2204370641,60185,2,1.00269,0.12378,-0.23169,15.13,3.313,-2.626
2026-06-01 13:33:51.385,2204370841,60385,1,0.80273,0.16602,0.73975,8.29,3.855,5.672
2026-06-01 13:33:51.385,2204370841,60385,2,1.00439,0.12158,-0.22559,0.885,1.427,-1.84
2026-06-01 13:33:52.585,2204372041,60585,1,0.78906,0.15869,0.7561,2.725,2.031,1.901
2026-06-01 13:33:52.585,2204372041,60585,2,1.01758,0.12402,-0.22192,2.557,0.45,1.565
2026-06-01 13:33:52.785,2204372241,60785,1,0.77417,0.08789,0.76807,5.031,9.672,4.443
2026-06-01 13:33:52.785,2204372241,60785,2,1.00903,0.09644,-0.19287,16.122,10.634,2.756
2026-06-01 13:33:52.985,2204372441,60985,1,0.80713,0.20654,0.74146,28.672,2.344,5.664
2026-06-01 13:33:52.985,2204372441,60985,2,1.0144,0.12915,-0.20508,15.733,-1.733,-7.672
2026-06-01 13:33:52.185,2204371641,61185,1,0.79419,0.23511,0.74194,6.824,4.771,4.382
2026-06-01 13:33:52.185,2204371641,61185,2,1.0166,0.15015,-0.21826,1.863,-0.244,-0.656
2026-06-01 13:33:52.385,2204371841,61385,1,0.79443,0.2124,0.74121,-0.771,0.794,-0.344
2026-06-01 13:33:52.385,2204371841,61385,2,1.00415,0.13013,-0.19434,4.878,2.672,-0.802
2026-06-01 13:33:53.585,2204373041,61585,1,0.79175,0.2229,0.7439,-0.527,4.237,6.794
2026-06-01 13:33:53.585,2204373041,61585,2,1.00073,0.15259,-0.21753,-9.595,-3.397,5.901
2026-06-01 13:33:53.785,2204373241,61785,1,0.78491,0.2002,0.75342,-15.382,0.366,-8.076
2026-06-01 13:33:53.785,2204373241,61785,2,1.00928,0.14551,-0.24072,-21.053,-4.221,9.153
2026-06-01 13:33:53.985,2204373441,61985,1,0.78052,0.17676,0.76587,-25.588,-3.275,-16.336
2026-06-01 13:33:53.985,2204373441,61985,2,1.0022,0.09912,-0.20752,-26.237,-6.26,11.595
2026-06-01 13:33:53.185,2204372641,62185,1,0.80859,0.08594,0.77026,-30.756,-9.786,-12.214
2026-06-01 13:33:53.185,2204372641,62185,2,1.02466,0.06372,-0.26807,-22.756,-7.901,12.053
2026-06-01 13:33:53.385,2204372841,62385,1,0.8186,0.09863,0.75659,0.183,2.031,0.58
2026-06-01 13:33:53.385,2204372841,62385,2,1.02173,0.06323,-0.26538,-0.779,3.893,0.634
2026-06-01 13:33:54.585,2204374041,62585,1,0.81665,0.11304,0.75952,6.023,11.252,-3.023
2026-06-01 13:33:54.585,2204374041,62585,2,1.03369,0.05103,-0.19653,15.878,25.427,5.916
2026-06-01 13:33:54.785,2204374241,62785,1,0.89038,0.17114,0.71777,13.191,52.779,10.763
2026-06-01 13:33:54.785,2204374241,62785,2,1.10303,0.0376,-0.10229,25.29,48.679,6.298
2026-06-01 13:33:54.985,2204374441,62985,1,0.49854,0.12744,0.74365,-9.29,113.878,8.237
2026-06-01 13:33:54.985,2204374441,62985,2,0.93188,-0.02148,0.12915,16.916,124.611,16.496
2026-06-01 13:33:54.192,2204373648,63192,1,0.01025,0.12036,0.92773,-14.947,125.954,-4.748
2026-06-01 13:33:54.192,2204373648,63192,2,0.81226,-0.14233,0.56567,-22.45,93.45,29.046
2026-06-01 13:33:54.402,2204373858,63402,1,-0.40503,-0.01245,1.03809,-31.824,91.183,-17.702
2026-06-01 13:33:54.402,2204373858,63402,2,0.36328,0.02734,0.9436,2.824,31.328,-5.275
2026-06-01 13:33:55.736,2204375192,63736,1,-0.72778,-0.14014,0.8811,-2.916,35.336,-4.718
2026-06-01 13:33:55.736,2204375192,63736,2,0.30786,0.11914,0.89185,-6.809,16.58,-11.786
2026-06-01 13:33:55.936,2204375392,63936,1,-0.73511,-0.15894,0.75073,15.557,30.397,1.412
2026-06-01 13:33:55.936,2204375392,63936,2,0.1748,0.15796,0.99316,-4.382,13.771,-6.618
2026-06-01 13:33:55.136,2204374592,64136,1,-0.8667,-0.13184,0.82886,8.985,-2.794,-6.13
2026-06-01 13:33:55.136,2204374592,64136,2,0.19873,0.15015,0.94824,3.252,-11.931,-6.496
2026-06-01 13:33:55.336,2204374792,64336,1,-0.89502,-0.15161,1.01611,20.076,-50.237,1.756
2026-06-01 13:33:55.336,2204374792,64336,2,0.32397,0.05225,1.02148,-4.191,-65.305,-5.908
2026-06-01 13:33:55.536,2204374992,64536,1,-0.54785,-0.09937,0.99658,25.252,-126.275,4.931
2026-06-01 13:33:55.536,2204374992,64536,2,0.6582,-0.02563,0.59326,-25.282,-124.679,-18.405
2026-06-01 13:33:56.736,2204376192,64736,1,0.02344,0.06372,0.84326,18.061,-156.504,0.206
2026-06-01 13:33:56.736,2204376192,64736,2,0.87769,-0.05908,0.21558,-15.947,-116.229,-18.664
2026-06-01 13:33:56.936,2204376392,64936,1,0.73682,0.17334,0.62573,6.374,-104.092,-0.885
2026-06-01 13:33:56.936,2204376392,64936,2,1.09302,0.00464,0.00732,7.26,-81.641,-1.145
2026-06-01 13:33:56.136,2204375592,65136,1,0.89917,0.15894,0.70679,9.817,-27.611,8.29
2026-06-01 13:33:56.136,2204375592,65136,2,1.04004,0.02002,-0.15063,-10.183,-4.458,-0.626
2026-06-01 13:33:56.336,2204375792,65336,1,0.82568,0.2041,0.75635,-6.206,-0.885,-11.809
2026-06-01 13:33:56.336,2204375792,65336,2,0.99463,0.00708,-0.1604,-15.076,-8.168,5.924
2026-06-01 13:33:56.536,2204375992,65536,1,0.80371,0.10132,0.77148,-8.198,2.16,-5.84
2026-06-01 13:33:56.536,2204375992,65536,2,1.02417,0.00415,-0.25635,-2.359,0.855,1.015
2026-06-01 13:33:57.736,2204377192,65736,1,0.80054,0.09399,0.76782,2.153,0.817,-0.832
2026-06-01 13:33:57.736,2204377192,65736,2,1.02246,0.02515,-0.23901,-4.71,-1.176,2.313
2026-06-01 13:33:57.936,2204377392,65936,1,0.79956,0.10596,0.74243,-0.756,-0.977,-3.763
2026-06-01 13:33:57.936,2204377392,65936,2,1.04297,0.02002,-0.23584,-0.26,0.023,-0.466
2026-06-01 13:33:57.136,2204376592,66136,1,0.82959,0.13745,0.73633,-0.725,7.412,-3.817
2026-06-01 13:33:57.136,2204376592,66136,2,1.04639,-0.01147,-0.20996,1.374,12.977,0.832
2026-06-01 13:33:57.336,2204376792,66336,1,0.81885,0.11035,0.74658,14.466,36.13,12.084
2026-06-01 13:33:57.336,2204376792,66336,2,1.05566,-0.03027,-0.08105,9.191,34.481,-4.183
2026-06-01 13:33:57.536,2204376992,66536,1,0.73096,0.20337,0.71216,-1.832,84.954,7.756
2026-06-01 13:33:57.536,2204376992,66536,2,1.03369,0.01465,0.0022,19.702,94.87,18.458
2026-06-01 13:33:58.736,2204378192,66736,1,0.32813,0.125,0.79712,-13.435,124.427,2.55
2026-06-01 13:33:58.736,2204378192,66736,2,0.7334,0.09351,0.26367,19.275,117.634,15.13
2026-06-01 13:33:58.936,2204378392,66936,1,-0.07031,0.06323,0.9873,-11.649,111.038,-1.504
2026-06-01 13:33:58.936,2204378392,66936,2,0.6084,0.05322,0.49243,4.74,101.298,4.611
2026-06-01 13:33:58.136,2204377592,67136,1,-0.58911,-0.09766,1.09277,-21.977,83.901,-4.0
2026-06-01 13:33:58.136,2204377592,67136,2,0.27222,-0.04761,0.85938,8.13,60.756,6.443
2026-06-01 13:33:58.365,2204377821,67365,1,-0.73242,-0.12598,0.85596,-0.878,18.71,0.763
2026-06-01 13:33:58.365,2204377821,67365,2,0.24023,0.00195,0.93726,0.42,18.42,1.435
2026-06-01 13:33:58.565,2204378021,67565,1,-0.65942,-0.1731,0.73389,-1.351,18.466,-9.023
2026-06-01 13:33:58.565,2204378021,67565,2,0.23193,0.04297,0.96509,12.489,4.832,-0.26
2026-06-01 13:33:59.765,2204379221,67765,1,-0.74487,-0.12598,0.78223,-0.351,9.473,-5.275
2026-06-01 13:33:59.765,2204379221,67765,2,0.21973,0.04614,0.92188,0.191,3.092,-2.557
2026-06-01 13:33:59.965,2204379421,67965,1,-0.646,-0.13208,0.75098,-14.168,-13.824,-9.573
2026-06-01 13:33:59.965,2204379421,67965,2,0.21973,-0.05249,0.927,-6.069,-1.74,2.908
2026-06-01 13:33:59.165,2204378621,68165,1,-0.69556,-0.1582,0.75635,6.282,0.267,-4.29
2026-06-01 13:33:59.165,2204378621,68165,2,0.2373,0.03345,0.91455,-4.42,0.42,-0.611
2026-06-01 13:33:59.365,2204378821,68365,1,-0.70654,-0.17017,0.74683,5.13,4.076,-0.855
2026-06-01 13:33:59.365,2204378821,68365,2,0.20508,0.02954,0.90942,-1.443,0.191,-3.473
2026-06-01 13:33:59.565,2204379021,68565,1,-0.82617,-0.21387,0.84033,7.702,-4.298,-5.985
2026-06-01 13:33:59.565,2204379021,68565,2,0.2644,-0.05786,1.0188,-29.634,-31.626,-4.557
2026-06-01 13:34:00.765,2204380221,68765,1,-0.92944,-0.09375,1.02905,20.26,-94.252,-1.29
2026-06-01 13:34:00.765,2204380221,68765,2,0.44751,-0.03003,0.81982,-33.351,-124.557,-8.885
2026-06-01 13:34:00.965,2204380421,68965,1,-0.22119,0.04443,0.83325,36.664,-163.534,13.641
2026-06-01 13:34:00.965,2204380421,68965,2,0.91602,-0.08789,0.24463,-44.855,-172.901,-17.626
2026-06-01 13:34:00.165,2204379621,69165,1,0.37939,0.01025,0.53418,34.466,-144.344,17.672
2026-06-01 13:34:00.165,2204379621,69165,2,1.1582,0.03418,-0.00317,5.298,-104.924,-2.847
2026-06-01 13:34:00.365,2204379821,69365,1,0.78394,0.21997,0.70239,12.687,-42.214,6.13
2026-06-01 13:34:00.365,2204379821,69365,2,1.01147,0.01221,-0.19458,-0.687,-20.733,2.183
2026-06-01 13:34:00.565,2204380021,69565,1,0.85718,0.16455,0.71777,6.443,-7.336,-3.145
2026-06-01 13:34:00.565,2204380021,69565,2,1.0647,-0.01025,-0.16479,-6.435,-9.374,-0.29
2026-06-01 13:34:01.765,2204381221,69765,1,0.75366,0.18652,0.76636,-6.191,1.641,-2.939
2026-06-01 13:34:01.765,2204381221,69765,2,1.02075,0.01489,-0.25342,-8.382,-4.252,3.626
2026-06-01 13:34:01.965,2204381421,69965,1,0.77832,0.16797,0.77661,-1.893,-0.038,0.183
2026-06-01 13:34:01.965,2204381421,69965,2,1.00879,-0.00537,-0.23364,-5.863,-1.374,-1.618
2026-06-01 13:34:01.165,2204380621,70165,1,0.80762,0.14551,0.72559,-2.519,-3.664,-1.527
2026-06-01 13:34:01.165,2204380621,70165,2,1.00098,0.02148,-0.24609,-5.198,-5.42,-1.092
2026-06-01 13:34:01.365,2204380821,70365,1,0.86865,0.17017,0.70923,-1.725,9.786,-0.252
2026-06-01 13:34:01.365,2204380821,70365,2,1.08398,-0.01636,-0.22632,-4.321,7.443,0.107
2026-06-01 13:34:01.565,2204381021,70565,1,0.94971,0.16455,0.5874,-3.87,79.58,3.672
2026-06-01 13:34:01.565,2204381021,70565,2,0.9668,0.04126,-0.09741,33.229,134.695,3.618
2026-06-01 13:34:02.765,2204382221,70765,1,0.16455,0.07422,0.77246,-37.992,155.328,-2.427
2026-06-01 13:34:02.765,2204382221,70765,2,0.79492,0.03711,0.24878,-4.656,139.855,20.84
2026-06-01 13:34:02.965,2204382421,70965,1,-0.23169,0.06299,1.052,-8.031,119.718,10.351
2026-06-01 13:34:02.965,2204382421,70965,2,0.54541,0.12402,0.59375,1.74,93.229,10.565
2026-06-01 13:34:02.165,2204381621,71165,1,-0.55615,-0.10303,0.96948,-16.099,77.618,4.328
2026-06-01 13:34:02.165,2204381621,71165,2,0.3833,0.01392,0.88013,17.084,84.015,7.275
2026-06-01 13:34:02.365,2204381821,71365,1,-0.83789,-0.12939,0.97021,-6.756,42.389,-2.557
2026-06-01 13:34:02.365,2204381821,71365,2,0.1853,0.01685,0.96387,4.427,14.221,6.725
2026-06-01 13:34:02.565,2204382021,71565,1,-0.7251,-0.16895,0.73145,1.038,12.435,-5.679
2026-06-01 13:34:02.565,2204382021,71565,2,0.22168,-0.03442,0.92334,-2.427,9.649,-0.672
2026-06-01 13:34:03.765,2204383221,71765,1,-0.84937,-0.15747,0.71265,1.26,12.336,-6.977
2026-06-01 13:34:03.765,2204383221,71765,2,0.18579,0.05151,0.96509,7.42,-7.634,-6.053
2026-06-01 13:34:03.965,2204383421,71965,1,-0.63843,-0.1272,0.72461,11.183,-0.504,-0.221
2026-06-01 13:34:03.965,2204383421,71965,2,0.18701,0.03857,0.93481,-4.779,-1.366,-3.832
2026-06-01 13:34:03.165,2204382621,72165,1,-0.77905,-0.16089,0.86426,8.55,-19.603,-0.702
2026-06-01 13:34:03.165,2204382621,72165,2,0.22656,0.00562,0.95117,-5.206,-24.092,-4.763
2026-06-01 13:34:03.365,2204382821,72365,1,-0.5354,-0.08813,0.78442,7.611,-21.405,-1.13
2026-06-01 13:34:03.365,2204382821,72365,2,0.36914,0.01611,0.91968,-7.115,-15.916,5.389
2026-06-01 13:34:03.565,2204383021,72565,1,-0.63647,-0.28198,1.09473,13.725,-56.679,-20.55
2026-06-01 13:34:03.565,2204383021,72565,2,0.4436,-0.08667,0.92578,-7.603,-42.458,-16.214
2026-06-01 13:34:04.765,2204384221,72765,1,-0.52515,-0.06372,1.11401,37.26,-131.26,-3.137
2026-06-01 13:34:04.765,2204384221,72765,2,0.65942,-0.06592,0.55713,-34.992,-133.878,-19.084
2026-06-01 13:34:04.965,2204384421,72965,1,0.19653,0.06104,0.71387,31.366,-169.145,6.176
2026-06-01 13:34:04.965,2204384421,72965,2,0.87573,-0.05957,0.1521,31.985,-135.427,-11.061
2026-06-01 13:34:04.165,2204383621,73165,1,0.87256,0.16016,0.68042,9.931,-91.435,7.145
2026-06-01 13:34:04.165,2204383621,73165,2,1.125,-0.0542,-0.12134,-17.229,-66.489,0.137
2026-06-01 13:34:04.365,2204383821,73365,1,0.95166,0.1897,0.6853,-8.344,-15.076,-8.42
2026-06-01 13:34:04.365,2204383821,73365,2,1.0625,0.00269,-0.27612,-14.504,-14.282,-8.534
2026-06-01 13:34:04.565,2204384021,73565,1,0.8623,0.19946,0.72754,-6.718,9.153,-4.061
2026-06-01 13:34:04.565,2204384021,73565,2,1.00269,0.03516,-0.28979,-1.168,-0.534,8.313
2026-06-01 13:34:05.765,2204385221,73765,1,0.79688,0.14185,0.75952,-0.511,0.321,-2.145
2026-06-01 13:34:05.765,2204385221,73765,2,0.98779,0.01587,-0.27173,-2.344,-5.214,-0.008
2026-06-01 13:34:05.965,2204385421,73965,1,0.81348,0.14404,0.74927,1.771,-3.061,0.496
2026-06-01 13:34:05.965,2204385421,73965,2,1.01538,0.01807,-0.26196,-0.565,1.656,1.435
2026-06-01 13:34:05.165,2204384621,74165,1,0.80859,0.14697,0.75171,5.382,1.809,4.099
2026-06-01 13:34:05.165,2204384621,74165,2,1.01538,0.0144,-0.26709,1.679,1.481,-1.107
2026-06-01 13:34:05.365,2204384821,74365,1,0.79419,0.14551,0.78369,7.099,3.099,4.908
2026-06-01 13:34:05.365,2204384821,74365,2,0.98364,0.03345,-0.25928,-0.107,2.901,-4.977
2026-06-01 13:34:05.565,2204385021,74565,1,0.82178,0.17017,0.74756,4.618,3.664,4.298
2026-06-01 13:34:05.565,2204385021,74565,2,1.00952,0.04907,-0.26636,0.382,4.137,0.84
2026-06-01 13:34:06.765,2204386221,74765,1,0.78809,0.14624,0.75537,-1.634,1.969,-0.893
2026-06-01 13:34:06.765,2204386221,74765,2,1.01074,0.03223,-0.26123,-4.275,-0.824,1.878
2026-06-01 13:34:06.965,2204386421,74965,1,0.81958,0.15649,0.75781,2.733,3.504,1.45
2026-06-01 13:34:06.965,2204386421,74965,2,1.00781,0.04028,-0.26685,0.687,1.366,1.916
2026-06-01 13:34:06.165,2204385621,75165,1,0.79956,0.14014,0.75293,-1.725,3.26,-2.542
2026-06-01 13:34:06.165,2204385621,75165,2,1.00098,0.0271,-0.26563,-2.748,0.221,3.107
2026-06-01 13:34:06.365,2204385821,75365,1,0.80225,0.15039,0.75952,-1.565,3.008,-2.305
2026-06-01 13:34:06.365,2204385821,75365,2,1.01123,0.0271,-0.27637,-1.832,0.672,1.893
2026-06-01 13:34:06.565,2204386021,75565,1,0.78442,0.14233,0.77563,0.015,2.26,-1.603
2026-06-01 13:34:06.565,2204386021,75565,2,1.01807,0.00952,-0.27295,-2.084,0.878,2.221
2026-06-01 13:34:07.765,2204387221,75765,1,0.78857,0.14282,0.77368,-0.832,2.099,-0.855
2026-06-01 13:34:07.765,2204387221,75765,2,1.0105,0.01025,-0.26465,-3.298,1.099,1.382
2026-06-01 13:34:07.965,2204387421,75965,1,0.80396,0.13989,0.76953,0.664,1.107,0.511
2026-06-01 13:34:07.965,2204387421,75965,2,1.01343,0.01196,-0.26855,-1.183,0.771,0.763
2026-06-01 13:34:07.165,2204386621,76165,1,0.79761,0.1377,0.76196,-0.092,3.573,0.305
2026-06-01 13:34:07.165,2204386621,76165,2,1.01807,0.01636,-0.26538,0.313,3.13,0.145
2026-06-01 13:34:07.365,2204386821,76365,1,0.77881,0.13623,0.76929,1.115,2.221,0.13
2026-06-01 13:34:07.365,2204386821,76365,2,1.00806,0.00757,-0.24365,1.809,3.489,0.008
2026-06-01 13:34:07.565,2204387021,76565,1,0.79419,0.13574,0.76611,0.702,0.107,-0.626
2026-06-01 13:34:07.565,2204387021,76565,2,1.0188,0.01001,-0.24097,0.336,1.504,0.046
2026-06-01 13:34:08.765,2204388221,76765,1,0.79443,0.14209,0.77832,0.458,1.672,-1.634
2026-06-01 13:34:08.765,2204388221,76765,2,1.01367,0.0061,-0.25488,-0.779,0.977,0.344
2026-06-01 13:34:08.965,2204388421,76965,1,0.7915,0.14795,0.76782,1.595,1.366,-0.466
2026-06-01 13:34:08.965,2204388421,76965,2,1.01294,0.00952,-0.25806,-0.878,-1.794,0.038
2026-06-01 13:34:08.165,2204387621,77165,1,0.80029,0.14575,0.76416,1.397,1.443,-0.939
2026-06-01 13:34:08.165,2204387621,77165,2,1.0105,0.00854,-0.25195,-1.183,-0.924,0.992
2026-06-01 13:34:08.365,2204387821,77365,1,0.80396,0.1416,0.76343,-0.649,2.031,-0.611
2026-06-01 13:34:08.365,2204387821,77365,2,1.00171,0.01367,-0.27246,-1.641,-1.427,1.489
2026-06-01 13:34:08.565,2204388021,77565,1,0.78809,0.1521,0.76147,1.244,0.794,0.412
2026-06-01 13:34:08.565,2204388021,77565,2,1.01196,0.01563,-0.26001,-1.847,-1.412,1.321
2026-06-01 13:34:09.765,2204389221,77765,1,0.78198,0.15991,0.76514,-1.008,1.794,-1.885
2026-06-01 13:34:09.765,2204389221,77765,2,1.02075,0.01587,-0.25928,-3.901,-0.611,2.771
2026-06-01 13:34:09.965,2204389421,77965,1,0.81982,0.12524,0.73877,-4.45,1.649,-3.481
2026-06-01 13:34:09.965,2204389421,77965,2,1.0,0.00195,-0.29004,-3.366,-0.885,1.031
2026-06-01 13:34:09.165,2204388621,78165,1,0.79834,0.1311,0.77051,-0.137,1.748,-1.771
2026-06-01 13:34:09.165,2204388621,78165,2,1.01074,0.00391,-0.28467,-4.145,0.221,0.611
2026-06-01 13:34:09.365,2204388821,78365,1,0.80151,0.1416,0.75659,-0.16,1.115,-0.489
2026-06-01 13:34:09.365,2204388821,78365,2,1.01099,0.0105,-0.27441,-1.695,0.656,0.939
2026-06-01 13:34:09.565,2204389021,78565,1,0.79712,0.13843,0.76367,1.443,1.183,0.443
2026-06-01 13:34:09.565,2204389021,78565,2,1.01294,-0.00146,-0.27515,-0.603,-0.466,0.214
2026-06-01 13:34:10.765,2204390221,78765,1,0.80737,0.14502,0.7561,0.557,0.916,-0.626
2026-06-01 13:34:10.765,2204390221,78765,2,1.0127,0.01172,-0.29028,-1.71,1.092,0.626
2026-06-01 13:34:10.965,2204390421,78965,1,0.84692,0.12939,0.73535,-1.656,0.084,-0.634
2026-06-01 13:34:10.965,2204390421,78965,2,1.00024,-0.00317,-0.28833,-1.824,0.137,1.198
2026-06-01 13:34:10.165,2204389621,79165,1,0.81177,0.13232,0.75513,-1.336,-1.008,-0.603
2026-06-01 13:34:10.165,2204389621,79165,2,1.01147,0.00122,-0.29736,1.527,-0.008,0.542
2026-06-01 13:34:10.365,2204389821,79365,1,0.80664,0.13672,0.75488,2.542,0.664,0.458
2026-06-01 13:34:10.365,2204389821,79365,2,1.01367,0.00391,-0.28271,0.107,2.053,0.901
2026-06-01 13:34:10.565,2204390021,79565,1,0.80054,0.13257,0.75659,2.069,-0.084,0.359
2026-06-01 13:34:10.565,2204390021,79565,2,1.01855,-0.00269,-0.26758,-1.779,1.87,0.061
2026-06-01 13:34:11.765,2204391221,79765,1,0.80518,0.14624,0.73999,0.565,1.031,-1.71
2026-06-01 13:34:11.765,2204391221,79765,2,1.0105,-0.00024,-0.26294,-1.893,-0.588,0.695
2026-06-01 13:34:11.965,2204391421,79965,1,0.81104,0.14038,0.75439,0.481,1.817,-1.794
2026-06-01 13:34:11.965,2204391421,79965,2,1.01831,0.00073,-0.26318,-1.794,-0.084,0.214
2026-06-01 13:34:11.165,2204390621,80165,1,0.81299,0.1416,0.74902,0.527,0.939,-0.695
2026-06-01 13:34:11.165,2204390621,80165,2,1.01099,-0.01025,-0.27588,-2.16,0.107,0.779
2026-06-01 13:34:11.365,2204390821,80365,1,0.80981,0.14502,0.75488,0.748,1.221,0.137
2026-06-01 13:34:11.365,2204390821,80365,2,1.0144,-0.00293,-0.27515,-1.779,-1.023,0.656
2026-06-01 13:34:11.565,2204391021,80565,1,0.80957,0.12744,0.74194,-0.84,2.809,-1.443
2026-06-01 13:34:11.565,2204391021,80565,2,1.00732,0.00684,-0.2832,-2.603,0.015,-0.229
2026-06-01 13:34:12.765,2204392221,80765,1,0.80615,0.14038,0.74146,0.115,0.229,-2.092
2026-06-01 13:34:12.765,2204392221,80765,2,0.99731,0.00293,-0.28125,-2.046,0.267,0.16
2026-06-01 13:34:12.965,2204392421,80965,1,0.81104,0.15161,0.73926,0.321,1.336,-1.168
2026-06-01 13:34:12.965,2204392421,80965,2,1.00952,0.00781,-0.29053,-1.0,0.122,0.794
2026-06-01 13:34:12.165,2204391621,81165,1,0.82104,0.1582,0.73853,-0.046,2.359,1.046
2026-06-01 13:34:12.165,2204391621,81165,2,1.01147,0.00928,-0.30762,-3.618,-1.42,3.244
2026-06-01 13:34:12.365,2204391821,81365,1,0.77856,0.11646,0.7793,7.748,5.099,10.527
2026-06-01 13:34:12.365,2204391821,81365,2,1.00513,0.0105,-0.28784,10.137,1.748,-5.557
2026-06-01 13:34:13.602,2204393058,81602,1,0.8064,0.15747,0.74512,9.954,2.504,2.855
2026-06-01 13:34:13.602,2204393058,81602,2,1.00586,0.02075,-0.27344,0.756,-1.298,-3.214
2026-06-01 13:34:13.802,2204393258,81802,1,0.81494,0.16357,0.71899,3.687,1.542,-2.107
2026-06-01 13:34:13.802,2204393258,81802,2,1.01074,0.03247,-0.27393,1.084,1.084,-0.542
2026-06-01 13:34:13.002,2204392458,82002,1,0.84351,0.17969,0.72168,1.939,4.672,1.069
2026-06-01 13:34:13.002,2204392458,82002,2,1.00146,0.03394,-0.30737,2.534,0.313,-1.267
2026-06-01 13:34:13.202,2204392658,82202,1,0.79395,0.18408,0.74243,0.664,1.252,1.107
2026-06-01 13:34:13.202,2204392658,82202,2,1.00122,0.0437,-0.30762,-3.527,-1.985,0.351
2026-06-01 13:34:13.402,2204392858,82402,1,0.84033,0.14746,0.74756,-0.099,0.824,1.802
2026-06-01 13:34:13.402,2204392858,82402,2,1.00659,0.03979,-0.27295,2.359,2.244,-2.023
2026-06-01 13:34:14.602,2204394058,82602,1,0.79492,0.21387,0.71777,-6.168,-2.45,-8.557
2026-06-01 13:34:14.602,2204394058,82602,2,1.00391,0.05029,-0.28174,-25.939,-5.817,6.389
2026-06-01 13:34:14.802,2204394258,82802,1,0.85254,0.17163,0.70361,-27.58,-5.519,-19.008
2026-06-01 13:34:14.802,2204394258,82802,2,0.99927,-0.00024,-0.30298,-26.237,-0.313,12.267
2026-06-01 13:34:14.002,2204393458,83002,1,0.82813,0.12744,0.73218,-5.336,0.076,-5.328
2026-06-01 13:34:14.002,2204393458,83002,2,0.99316,-0.00122,-0.29785,-2.878,0.153,1.458
2026-06-01 13:34:14.202,2204393658,83202,1,0.8147,0.15747,0.7146,4.336,4.489,5.366
2026-06-01 13:34:14.202,2204393658,83202,2,1.00366,0.03296,-0.2627,2.718,8.794,-6.557
2026-06-01 13:34:14.402,2204393858,83402,1,0.75415,0.12158,0.81177,7.916,3.321,6.588
2026-06-01 13:34:14.402,2204393858,83402,2,1.02124,0.04492,-0.2998,4.992,13.557,-11.061
2026-06-01 13:34:15.616,2204395072,83616,1,0.82544,0.19458,0.7373,13.611,22.008,6.191
2026-06-01 13:34:15.616,2204395072,83616,2,0.96338,0.0896,-0.27637,22.71,19.397,-3.962
2026-06-01 13:34:15.816,2204395272,83816,1,0.74658,0.18262,0.7937,5.565,4.099,5.336
2026-06-01 13:34:15.816,2204395272,83816,2,0.99316,0.07251,-0.25317,5.679,-4.87,-1.389
2026-06-01 13:34:15.016,2204394472,84016,1,0.80103,0.17432,0.75781,0.122,0.107,0.405
2026-06-01 13:34:15.016,2204394472,84016,2,1.02246,0.07642,-0.24316,-4.947,-1.366,5.084
2026-06-01 13:34:15.216,2204394672,84216,1,0.80322,0.16577,0.76392,-5.053,5.176,-1.313
2026-06-01 13:34:15.216,2204394672,84216,2,1.00952,0.06934,-0.23486,-7.427,2.924,4.351
2026-06-01 13:34:15.416,2204394872,84416,1,0.77124,0.13794,0.79663,-1.29,-1.359,-2.977
2026-06-01 13:34:15.416,2204394872,84416,2,1.00635,0.04517,-0.24805,-4.58,-5.489,2.092
2026-06-01 13:34:16.616,2204396072,84616,1,0.8103,0.1228,0.75781,-0.023,-1.672,-2.641
2026-06-01 13:34:16.616,2204396072,84616,2,0.99341,0.02832,-0.28931,-3.008,-8.351,-2.573
2026-06-01 13:34:16.816,2204396272,84816,1,0.80786,0.11426,0.74878,5.13,-4.405,-0.336
2026-06-01 13:34:16.816,2204396272,84816,2,1.00244,0.03857,-0.28369,2.26,-5.511,-1.557
2026-06-01 13:34:16.016,2204395472,85016,1,0.81494,0.15527,0.72388,7.412,-2.229,1.382
2026-06-01 13:34:16.016,2204395472,85016,2,1.00415,0.04785,-0.27881,5.176,-0.588,-1.389
2026-06-01 13:34:16.216,2204395672,85216,1,0.81738,0.19531,0.72949,1.847,5.901,1.992
2026-06-01 13:34:16.216,2204395672,85216,2,0.99829,0.07666,-0.28076,-1.969,-0.687,0.45
2026-06-01 13:34:16.416,2204395872,85416,1,0.82495,0.18066,0.72974,-1.298,-1.115,-4.641
2026-06-01 13:34:16.416,2204395872,85416,2,1.00439,0.0625,-0.30225,-1.206,-0.496,2.382
2026-06-01 13:34:17.616,2204397072,85616,1,0.81641,0.19043,0.71509,0.878,3.336,-1.916
2026-06-01 13:34:17.616,2204397072,85616,2,1.00903,0.03418,-0.28467,-1.618,0.893,-2.649
2026-06-01 13:34:17.816,2204397272,85816,1,0.83911,0.20313,0.69995,2.466,2.87,-3.412
2026-06-01 13:34:17.816,2204397272,85816,2,0.99438,0.04614,-0.31543,-1.489,-1.55,0.099
2026-06-01 13:34:17.016,2204396472,86016,1,0.82227,0.1958,0.7229,-0.221,2.107,0.847
2026-06-01 13:34:17.016,2204396472,86016,2,1.00854,0.0498,-0.30859,-0.695,0.557,0.595
2026-06-01 13:34:17.216,2204396672,86216,1,0.82056,0.18652,0.7229,-2.389,2.008,-0.366
2026-06-01 13:34:17.216,2204396672,86216,2,1.00049,0.03613,-0.29761,-3.092,3.397,2.71
2026-06-01 13:34:17.416,2204396872,86416,1,0.80811,0.177,0.74512,-4.16,3.649,-3.87
2026-06-01 13:34:17.416,2204396872,86416,2,1.01147,0.03491,-0.29102,-1.198,2.336,2.824
2026-06-01 13:34:18.616,2204398072,86616,1,0.8064,0.17773,0.7334,-3.053,3.313,-5.0
2026-06-01 13:34:18.616,2204398072,86616,2,0.99316,0.03564,-0.28687,-4.008,4.397,0.244
2026-06-01 13:34:18.816,2204398272,86816,1,0.78979,0.17334,0.74414,1.832,2.023,-0.183
2026-06-01 13:34:18.816,2204398272,86816,2,1.0105,0.02051,-0.26221,-5.443,2.107,0.305
2026-06-01 13:34:18.016,2204397472,87016,1,0.79199,0.19092,0.75684,-0.718,0.122,-3.092
2026-06-01 13:34:18.016,2204397472,87016,2,0.99536,0.02148,-0.27026,0.794,-2.84,0.252
2026-06-01 13:34:18.216,2204397672,87216,1,0.83691,0.22021,0.70459,-4.42,0.435,-2.74
2026-06-01 13:34:18.216,2204397672,87216,2,1.00635,0.05835,-0.24731,0.183,0.687,3.748
2026-06-01 13:34:18.416,2204397872,87416,1,0.80396,0.19263,0.71436,-7.611,-4.435,-4.069
2026-06-01 13:34:18.416,2204397872,87416,2,1.00537,0.03418,-0.30957,-7.473,-2.908,3.298
2026-06-01 13:34:19.619,2204399075,87619,1,0.83716,0.19873,0.72363,-3.321,-0.58,-3.237
2026-06-01 13:34:19.619,2204399075,87619,2,1.00464,0.04224,-0.31128,-7.359,-3.931,3.985
2026-06-01 13:34:19.819,2204399275,87819,1,0.84424,0.17627,0.70996,-6.466,0.031,-7.992
2026-06-01 13:34:19.819,2204399275,87819,2,0.98901,0.02466,-0.34668,-4.626,1.229,-0.427
2026-06-01 13:34:19.019,2204398475,88019,1,0.83887,0.18579,0.7124,-5.015,1.069,-2.534
2026-06-01 13:34:19.019,2204398475,88019,2,0.99536,0.02051,-0.33081,-5.634,2.382,-1.267
2026-06-01 13:34:19.219,2204398675,88219,1,0.82715,0.18311,0.72949,-3.466,0.26,-0.305
2026-06-01 13:34:19.219,2204398675,88219,2,1.0,0.00293,-0.30908,-4.26,-1.519,4.634
2026-06-01 13:34:19.419,2204398875,88419,1,0.83984,0.16357,0.70898,-4.649,0.679,-1.359
2026-06-01 13:34:19.419,2204398875,88419,2,0.99023,-0.00098,-0.32666,-3.45,1.076,2.954
2026-06-01 13:34:20.619,2204400075,88619,1,0.7959,0.1626,0.72998,-1.359,-0.672,-0.305
2026-06-01 13:34:20.619,2204400075,88619,2,0.99951,-0.00488,-0.31055,-3.534,-0.321,3.344
2026-06-01 13:34:20.819,2204400275,88819,1,0.85254,0.15845,0.7041,0.458,0.786,0.229
2026-06-01 13:34:20.819,2204400275,88819,2,1.01196,,-0.32104,-3.359,1.366,0.947
2026-06-01 13:34:20.019,2204399475,89019,1,0.82422,0.1626,0.71899,3.672,3.74,-0.473
2026-06-01 13:34:20.019,2204399475,89019,2,1.00342,-0.00415,-0.33765,-0.611,0.443,-0.855
2026-06-01 13:34:20.219,2204399675,89219,1,0.82227,0.16089,0.73047,1.733,1.229,-0.611
2026-06-01 13:34:20.219,2204399675,89219,2,0.99609,,-0.32129,-0.702,-1.328,-0.267
2026-06-01 13:34:20.419,2204399875,89419,1,0.83325,0.1665,0.72314,2.466,1.031,0.267
2026-06-01 13:34:20.419,2204399875,89419,2,0.9917,0.00806,-0.3252,-3.733,-1.611,0.885
2026-06-01 13:34:21.619,2204401075,89619,1,0.83374,0.16821,0.71973,1.443,-0.679,0.977
2026-06-01 13:34:21.619,2204401075,89619,2,0.98999,0.00562,-0.33838,-2.275,-1.137,0.565
2026-06-01 13:34:21.819,2204401275,89819,1,0.83447,0.17188,0.70947,0.924,0.977,0.885
2026-06-01 13:34:21.819,2204401275,89819,2,0.99341,0.03247,-0.33154,-2.87,0.183,0.718
2026-06-01 13:34:21.019,2204400475,90019,1,0.85327,0.16113,0.70435,-2.382,1.595,-1.641
2026-06-01 13:34:21.019,2204400475,90019,2,0.9939,0.00684,-0.33765,-1.817,0.267,0.634
2026-06-01 13:34:21.219,2204400675,90219,1,0.83618,0.16357,0.72412,-1.527,0.809,-1.748
2026-06-01 13:34:21.219,2204400675,90219,2,1.00171,0.00415,-0.33545,-0.504,1.611,3.137
2026-06-01 13:34:21.419,2204400875,90419,1,0.84033,0.1665,0.70044,0.076,2.176,-0.45
2026-06-01 13:34:21.419,2204400875,90419,2,1.00146,0.00073,-0.33667,-4.183,3.954,0.504
2026-06-01 13:34:22.619,2204402075,90619,1,0.83398,0.15186,0.70459,-1.298,2.443,-1.702
2026-06-01 13:34:22.619,2204402075,90619,2,0.98511,-0.0105,-0.32129,-1.863,2.053,-0.351
2026-06-01 13:34:22.819,2204402275,90819,1,0.83936,0.15967,0.70435,0.794,2.298,-0.641
2026-06-01 13:34:22.819,2204402275,90819,2,0.99756,0.00659,-0.3374,-0.107,-0.275,-0.008
2026-06-01 13:34:22.019,2204401475,91019,1,0.84546,0.16504,0.70825,1.359,1.771,0.221
2026-06-01 13:34:22.019,2204401475,91019,2,0.99561,,-0.32813,-1.313,-1.656,0.679
2026-06-01 13:34:22.219,2204401675,91219,1,0.83472,0.18188,0.72852,0.618,2.176,-2.305
2026-06-01 13:34:22.219,2204401675,91219,2,0.99512,-0.00269,-0.34082,-4.092,2.908,1.137
2026-06-01 13:34:22.419,2204401875,91419,1,0.84351,0.13818,0.67529,-10.725,4.74,-5.916
2026-06-01 13:34:22.419,2204401875,91419,2,1.02246,-0.03906,-0.32275,-20.435,-0.092,8.351
2026-06-01 13:34:23.619,2204403075,91619,1,0.92334,0.08105,0.7583,-13.443,-4.229,-6.053
2026-06-01 13:34:23.619,2204403075,91619,2,0.97144,-0.05591,-0.32031,-5.565,13.176,0.847
2026-06-01 13:34:23.819,2204403275,91819,1,0.82617,0.14038,0.72339,4.252,0.771,-0.55
2026-06-01 13:34:23.819,2204403275,91819,2,0.98999,0.03369,-0.34717,-1.076,2.733,-3.931
2026-06-01 13:34:23.019,2204402475,92019,1,0.84644,0.14429,0.73584,-1.145,-4.519,-3.168
2026-06-01 13:34:23.019,2204402475,92019,2,1.00146,0.01514,-0.35229,-8.298,3.74,5.901
2026-06-01 13:34:23.219,2204402675,92219,1,0.83643,0.12646,0.74438,0.695,3.069,-3.435
2026-06-01 13:34:23.219,2204402675,92219,2,0.9917,-0.02368,-0.31934,12.466,2.153,-3.374
2026-06-01 13:34:23.419,2204402875,92419,1,0.82495,0.15918,0.72803,4.939,4.611,1.313
2026-06-01 13:34:23.419,2204402875,92419,2,0.99634,-0.00586,-0.30908,2.29,1.45,1.229
2026-06-01 13:34:24.619,2204404075,92619,1,0.82202,0.15625,0.7229,-1.405,-2.878,-3.618
2026-06-01 13:34:24.619,2204404075,92619,2,0.9873,-0.01001,-0.33472,-10.267,-2.527,3.702
2026-06-01 13:34:24.819,2204404275,92819,1,0.83203,0.14136,0.71875,-2.588,0.641,-5.649
2026-06-01 13:34:24.819,2204404275,92819,2,1.00342,-0.0293,-0.34009,-5.527,-0.939,1.389
2026-06-01 13:34:24.019,2204403475,93019,1,0.83618,0.16553,0.73657,3.947,1.985,-0.611
2026-06-01 13:34:24.019,2204403475,93019,2,1.0,-0.01978,-0.33154,0.931,1.802,-2.244
2026-06-01 13:34:24.219,2204403675,93219,1,0.8418,0.1582,0.71265,2.664,3.725,2.611
2026-06-01 13:34:24.219,2204403675,93219,2,1.01001,-0.02466,-0.31909,5.908,5.313,-0.366
2026-06-01 13:34:24.419,2204403875,93419,1,0.86841,0.12793,0.69751,12.916,2.374,4.55
2026-06-01 13:34:24.419,2204403875,93419,2,1.03027,-0.0437,-0.33496,11.176,3.466,-9.687
2026-06-01 13:34:25.619,2204405075,93619,1,0.8103,0.22241,0.73999,7.397,4.702,2.542
2026-06-01 13:34:25.619,2204405075,93619,2,1.00757,0.04028,-0.32886,-2.023,-6.198,9.504
2026-06-01 13:34:25.819,2204405275,93819,1,0.80908,0.19141,0.71924,-9.496,-13.214,-11.313
2026-06-01 13:34:25.819,2204405275,93819,2,0.98364,-0.04053,-0.33179,-29.427,-4.588,7.855
2026-06-01 13:34:25.019,2204404475,94019,1,0.88599,0.10498,0.70508,5.374,8.649,3.901
2026-06-01 13:34:25.019,2204404475,94019,2,1.0271,-0.08325,-0.26807,17.435,14.481,-6.122
2026-06-01 13:34:25.219,2204404675,94219,1,0.87476,0.17578,0.75293,24.733,46.008,27.427
2026-06-01 13:34:25.219,2204404675,94219,2,0.93481,0.07104,-0.25,84.137,55.595,-9.885
2026-06-01 13:34:25.419,2204404875,94419,1,0.69263,0.31567,0.80151,10.908,41.664,15.061
2026-06-01 13:34:25.419,2204404875,94419,2,0.91211,0.21265,-0.15186,28.794,38.832,-15.565
2026-06-01 13:34:26.619,2204406075,94619,1,0.65381,0.14307,0.9292,-6.595,-18.191,-13.519
2026-06-01 13:34:26.619,2204406075,94619,2,0.86621,0.3877,-0.00659,75.817,-21.634,-38.695
2026-06-01 13:34:26.819,2204406275,94819,1,0.6272,0.00366,0.91162,-24.832,-40.748,-39.603
2026-06-01 13:34:26.819,2204406275,94819,2,1.0,0.03076,-0.15137,-0.847,-44.672,-35.443
2026-06-01 13:34:26.019,2204405475,95019,1,0.81079,0.16919,0.7605,5.107,-15.893,1.496
2026-06-01 13:34:26.019,2204405475,95019,2,1.17725,0.04468,-0.12988,-8.687,-10.031,17.45
2026-06-01 13:34:26.219,2204405675,95219,1,0.74536,0.05029,0.74951,-26.031,18.962,-19.16
2026-06-01 13:34:26.219,2204405675,95219,2,1.04004,-0.146,-0.20972,-42.412,15.366,23.809
2026-06-01 13:34:26.419,2204405875,95419,1,0.73438,-0.00073,0.86621,15.672,22.725,4.344
2026-06-01 13:34:26.419,2204405875,95419,2,1.05835,-0.06348,-0.04028,24.672,-2.656,-8.885
2026-06-01 13:34:27.619,2204407075,95619,1,0.75293,0.125,0.78076,27.458,-13.573,12.038
2026-06-01 13:34:27.619,2204407075,95619,2,1.09717,-0.00537,-0.08228,41.305,-1.916,-16.87
2026-06-01 13:34:27.819,2204407275,95819,1,0.74756,0.45361,0.7395,6.443,19.504,9.0
2026-06-01 13:34:27.819,2204407275,95819,2,1.06982,0.22388,-0.1123,-20.198,30.015,11.313
2026-06-01 13:34:27.019,2204406475,96019,1,0.39673,0.09546,0.72729,-5.267,7.588,-13.687
2026-06-01 13:34:27.019,2204406475,96019,2,0.56763,0.05518,-0.0437,30.244,44.756,24.985
2026-06-01 13:34:27.219,2204406675,96219,1,0.61499,0.17114,0.91235,-4.214,-3.031,2.275
2026-06-01 13:34:27.219,2204406675,96219,2,1.021,0.06543,0.06177,-19.756,-9.16,-8.015
2026-06-01 13:34:27.419,2204406875,96419,1,0.60034,0.20142,1.00269,-10.916,7.725,0.679
2026-06-01 13:34:27.419,2204406875,96419,2,1.16553,0.11426,0.00342,-16.771,0.87,16.656
2026-06-01 13:34:28.619,2204408075,96619,1,0.55542,0.07153,1.16724,-15.87,29.985,3.573
2026-06-01 13:34:28.619,2204408075,96619,2,1.28931,0.01001,0.16943,-29.282,-6.817,8.924
2026-06-01 13:34:28.819,2204408275,96819,1,0.47192,-0.08643,1.22217,-12.649,17.885,6.656
2026-06-01 13:34:28.819,2204408275,96819,2,1.01636,-0.0896,0.05151,-6.214,-4.748,-0.664
2026-06-01 13:34:28.019,2204407475,97019,1,0.47437,-0.05029,0.90137,-5.977,-9.069,-10.573
2026-06-01 13:34:28.019,2204407475,97019,2,0.96899,-0.06396,0.05078,15.321,-4.824,-18.214
2026-06-01 13:34:28.219,2204407675,97219,1,0.72681,0.18945,1.27441,30.107,-22.412,13.389
2026-06-01 13:34:28.219,2204407675,97219,2,1.80444,0.04077,0.10107,31.359,18.16,8.565
2026-06-01 13:34:28.419,2204407875,97419,1,0.57568,0.25366,1.21094,3.29,24.29,-5.305
2026-06-01 13:34:28.419,2204407875,97419,2,1.17432,0.01172,0.19482,5.443,-2.374,-0.099
2026-06-01 13:34:29.619,2204409075,97619,1,0.573,0.16992,1.06226,11.725,-15.076,4.611
2026-06-01 13:34:29.619,2204409075,97619,2,0.95337,0.03369,0.07324,6.748,-11.977,-1.817
2026-06-01 13:34:29.819,2204409275,97819,1,0.31055,0.08325,0.56982,-1.725,-25.321,-3.076
2026-06-01 13:34:29.819,2204409275,97819,2,0.44434,-0.00537,-0.02173,-24.458,-51.26,-11.031
2026-06-01 13:34:29.019,2204408475,98019,1,0.57324,0.13159,0.6377,5.359,-51.809,-12.214
2026-06-01 13:34:29.019,2204408475,98019,2,1.37402,0.02002,-0.14429,-70.924,-38.725,16.183
2026-06-01 13:34:29.219,2204408675,98219,1,1.03687,0.21313,0.69995,18.252,9.122,10.328
2026-06-01 13:34:29.219,2204408675,98219,2,1.04248,-0.09888,-0.13062,-19.794,8.702,15.809
2026-06-01 13:34:29.419,2204408875,98419,1,0.45068,0.07983,0.57275,-0.489,40.031,6.282
2026-06-01 13:34:29.419,2204408875,98419,2,0.58423,-0.01245,-0.09277,-26.634,19.779,21.992
2026-06-01 13:34:30.619,2204410075,98619,1,0.62842,0.1189,0.62183,9.229,27.656,11.267
2026-06-01 13:34:30.619,2204410075,98619,2,0.85742,0.06323,-0.06567,-29.374,28.405,13.382
2026-06-01 13:34:30.819,2204410275,98819,1,0.66797,0.0083,0.90454,2.916,31.489,0.84
2026-06-01 13:34:30.819,2204410275,98819,2,1.10449,0.021,-0.10425,3.55,20.328,-12.015
2026-06-01 13:34:30.019,2204409475,99019,1,0.82959,0.11987,1.0874,-9.389,5.855,5.878
2026-06-01 13:34:30.019,2204409475,99019,2,1.3103,0.05786,0.12769,8.29,-3.557,0.496
2026-06-01 13:34:30.238,2204409694,99238,1,0.83228,0.4248,1.10889,-6.618,19.191,-1.069
2026-06-01 13:34:30.238,2204409694,99238,2,1.20654,-0.07568,0.36646,-48.221,9.015,16.382
2026-06-01 13:34:30.438,2204409894,99438,1,0.30713,0.02661,0.9375,-15.565,27.672,1.115
2026-06-01 13:34:30.438,2204409894,99438,2,0.98926,-0.11572,0.11548,-36.351,-2.366,19.053
2026-06-01 13:34:31.638,2204411094,99638,1,0.49219,0.00513,1.21875,1.832,7.427,7.046
2026-06-01 13:34:31.638,2204411094,99638,2,1.5835,-0.03711,0.23047,2.58,13.145,17.832
2026-06-01 13:34:31.838,2204411294,99838,1,0.31006,0.10303,1.11523,-0.939,28.779,-7.87
2026-06-01 13:34:31.838,2204411294,99838,2,0.98584,-0.00439,0.30347,4.695,17.069,31.069
2026-06-01 13:34:31.038,2204410494,100038,1,0.47485,0.0625,1.31177,-4.924,-41.527,-27.573
2026-06-01 13:34:31.038,2204410494,100038,2,1.18091,-0.22705,0.21606,-12.412,-37.16,4.74
2026-06-01 13:34:31.238,2204410694,100238,1,0.58936,0.06909,1.02563,18.458,-38.786,-1.718
2026-06-01 13:34:31.238,2204410694,100238,2,0.98755,-0.08936,0.11719,-7.29,-42.053,-17.809
2026-06-01 13:34:31.438,2204410894,100438,1,0.36621,0.07104,0.58984,6.107,-2.26,-8.145
2026-06-01 13:34:31.438,2204410894,100438,2,0.51611,-0.00781,-0.03809,-32.847,-38.786,-23.496
2026-06-01 13:34:32.638,2204412094,100638,1,0.59595,0.10962,0.70435,24.046,-60.206,3.427
2026-06-01 13:34:32.638,2204412094,100638,2,1.18628,-0.1792,-0.29419,-38.153,-58.664,7.145
2026-06-01 13:34:32.838,2204412294,100838,1,0.76196,0.16699,0.72461,29.168,-23.863,24.214
2026-06-01 13:34:32.838,2204412294,100838,2,1.08179,0.02295,-0.18896,9.244,-0.603,11.679
2026-06-01 13:34:32.038,2204411494,101038,1,0.83789,0.13745,0.73584,-0.275,-4.008,2.122
2026-06-01 13:34:32.038,2204411494,101038,2,1.01416,0.02856,-0.2395,-3.466,2.42,-0.832
2026-06-01 13:34:32.238,2204411694,101238,1,0.81763,0.12549,0.75586,-3.489,10.389,-9.634
2026-06-01 13:34:32.238,2204411694,101238,2,0.99536,0.04126,-0.27466,1.931,6.702,-1.947
2026-06-01 13:34:32.438,2204411894,101438,1,0.74829,0.18359,0.79126,1.115,-1.092,3.542
2026-06-01 13:34:32.438,2204411894,101438,2,1.02319,0.02246,-0.2644,-6.374,-5.275,3.504
2026-06-01 13:34:33.638,2204413094,101638,1,0.95435,0.05493,0.66479,-5.534,8.771,-10.542
2026-06-01 13:34:33.638,2204413094,101638,2,0.94824,-0.00757,-0.3606,-7.069,4.275,-0.481
2026-06-01 13:34:33.838,2204413294,101838,1,0.82544,0.10596,0.76123,2.649,-8.954,-1.008
2026-06-01 13:34:33.838,2204413294,101838,2,1.01147,-0.00439,-0.28345,10.748,-2.176,-6.412
2026-06-01 13:34:33.038,2204412494,102038,1,0.80078,0.08057,0.75195,16.45,5.038,8.847
2026-06-01 13:34:33.038,2204412494,102038,2,1.00781,0.00781,-0.2749,33.763,11.779,-17.282
2026-06-01 13:34:33.238,2204412694,102238,1,0.84473,0.19116,0.69189,20.061,7.504,18.458
2026-06-01 13:34:33.238,2204412694,102238,2,1.03394,0.07422,-0.2312,18.771,3.435,-7.679
2026-06-01 13:34:33.438,2204412894,102438,1,0.80029,0.19409,0.7605,8.626,9.359,3.58
2026-06-01 13:34:33.438,2204412894,102438,2,1.05664,0.08594,-0.25269,5.313,1.855,0.901
2026-06-01 13:34:34.638,2204414094,102638,1,0.83301,0.18359,0.7334,13.069,22.511,-2.298
2026-06-01 13:34:34.638,2204414094,102638,2,1.06519,0.03833,-0.09375,19.725,48.076,11.893
2026-06-01 13:34:34.838,2204414294,102838,1,0.18994,0.03296,0.43066,-27.076,114.519,-2.42
2026-06-01 13:34:34.838,2204414294,102838,2,-0.09253,-0.05713,-0.0647,-66.527,43.069,21.366
2026-06-01 13:34:34.038,2204413494,103038,1,0.70264,0.18604,0.86499,5.191,4.565,12.046
2026-06-01 13:34:34.038,2204413494,103038,2,1.07959,-0.02246,0.00293,-45.817,-10.389,10.542
2026-06-01 13:34:34.238,2204413694,103238,1,0.63696,0.09204,1.15454,-17.573,34.809,0.244
2026-06-01 13:34:34.238,2204413694,103238,2,1.06567,0.08154,0.27368,69.656,34.618,-7.038
2026-06-01 13:34:34.438,2204413894,103438,1,0.57593,0.05908,1.36401,-42.557,8.794,-31.611
2026-06-01 13:34:34.438,2204413894,103438,2,1.24658,-0.1062,0.24243,13.389,-17.023,0.313
2026-06-01 13:34:35.638,2204415094,103638,1,0.76294,-0.02637,1.32666,26.977,-31.611,5.771
2026-06-01 13:34:35.638,2204415094,103638,2,1.40869,-0.12085,0.27856,-24.237,70.191,-4.885
2026-06-01 13:34:35.838,2204415294,103838,1,0.58643,0.19971,1.25098,26.656,17.015,33.313
2026-06-01 13:34:35.838,2204415294,103838,2,1.13745,0.0083,0.1521,-9.198,-15.588,-2.519
2026-06-01 13:34:35.038,2204414494,104038,1,0.72241,0.24097,1.04321,7.435,-47.534,8.931
2026-06-01 13:34:35.038,2204414494,104038,2,1.17944,0.00732,0.02319,6.221,-30.756,2.427
2026-06-01 13:34:35.238,2204414694,104238,1,0.20801,-0.02856,0.31909,-8.198,-42.733,-10.183
2026-06-01 13:34:35.238,2204414694,104238,2,0.20532,0.06201,-0.03394,-1.214,-41.107,-13.977
2026-06-01 13:34:35.438,2204414894,104438,1,0.91113,0.19922,0.97876,-11.267,-6.16,-26.252
2026-06-01 13:34:35.438,2204414894,104438,2,1.47217,0.12524,0.0791,-71.168,15.42,14.267
2026-06-01 13:34:36.638,2204416094,104638,1,0.0481,-0.00439,0.48853,-0.023,78.092,9.191
2026-06-01 13:34:36.638,2204416094,104638,2,0.52954,0.14526,-0.13257,-99.878,18.443,10.145
2026-06-01 13:34:36.838,2204416294,104838,1,0.51636,0.03833,0.64722,9.458,34.55,12.618
2026-06-01 13:34:36.838,2204416294,104838,2,0.97803,0.20605,0.02148,-22.435,27.634,4.275
2026-06-01 13:34:36.038,2204415494,105038,1,0.69019,0.07642,1.26074,-25.511,0.191,11.13
2026-06-01 13:34:36.038,2204415494,105038,2,1.55664,0.07104,0.28125,18.351,17.237,-0.237
2026-06-01 13:34:36.238,2204415694,105238,1,0.68994,0.06396,1.38403,7.786,24.672,-16.656
2026-06-01 13:34:36.238,2204415694,105238,2,1.13037,-0.07397,0.07715,13.733,14.664,-12.672
2026-06-01 13:34:36.438,2204415894,105438,1,0.57568,0.15601,0.95337,-16.344,30.74,-20.26
2026-06-01 13:34:36.438,2204415894,105438,2,1.01904,-0.03711,0.18115,-16.168,15.985,3.282
2026-06-01 13:34:37.638,2204417094,105638,1,0.83716,0.08984,1.99994,-43.473,-26.344,-46.809
2026-06-01 13:34:37.638,2204417094,105638,2,1.20435,-0.04834,0.68579,178.794,6.122,-31.42
2026-06-01 13:34:37.838,2204417294,105838,1,0.44556,0.27588,1.31323,12.0,-15.038,18.947
2026-06-01 13:34:37.838,2204417294,105838,2,1.04468,-0.03882,0.09497,6.634,-32.313,-1.183
2026-06-01 13:34:37.038,2204416494,106038,1,0.31885,0.10376,0.47412,-15.641,-23.916,-5.977
2026-06-01 13:34:37.038,2204416494,106038,2,0.22778,0.00342,-0.05273,-29.588,-63.076,-6.641
2026-06-01 13:34:37.238,2204416694,106238,1,0.46802,0.00439,0.48291,0.252,-54.672,-1.252
2026-06-01 13:34:37.238,2204416694,106238,2,0.53638,-0.08276,0.07471,-25.115,28.481,5.756
2026-06-01 13:34:37.466,2204416922,106466,1,0.07007,0.05176,0.36792,-8.191,58.176,3.382
2026-06-01 13:34:37.466,2204416922,106466,2,0.32715,0.01099,-0.01489,-4.0,46.817,10.756
2026-06-01 13:34:38.666,2204418122,106666,1,0.48511,0.04614,1.12012,-32.366,40.649,-18.153
2026-06-01 13:34:38.666,2204418122,106666,2,1.23291,0.15186,0.13452,-20.55,32.847,-2.939
2026-06-01 13:34:38.866,2204418322,106866,1,0.67358,-0.01465,1.43335,-23.206,-0.496,4.725
2026-06-01 13:34:38.866,2204418322,106866,2,1.52222,-0.20044,0.2854,66.672,5.824,-10.809
2026-06-01 13:34:38.066,2204417522,107066,1,0.77173,0.11768,1.46729,-4.076,-13.641,-18.321
2026-06-01 13:34:38.066,2204417522,107066,2,1.25195,-0.07813,0.20239,3.092,6.931,-6.763
2026-06-01 13:34:38.266,2204417722,107266,1,0.29443,0.0542,1.00781,3.878,1.511,-4.756
2026-06-01 13:34:38.266,2204417722,107266,2,0.85205,-0.12671,0.12158,-18.084,-4.076,10.046
2026-06-01 13:34:38.466,2204417922,107466,1,0.56885,0.08813,1.05347,-6.389,-11.664,-3.534
2026-06-01 13:34:38.466,2204417922,107466,2,1.09375,-0.09741,0.16333,-8.336,10.038,14.427
2026-06-01 13:34:39.666,2204419122,107666,1,0.43286,-0.05737,1.00513,-19.031,6.214,-18.824
2026-06-01 13:34:39.666,2204419122,107666,2,1.03052,-0.14819,0.12207,-4.321,2.992,3.122
2026-06-01 13:34:39.866,2204419322,107866,1,0.45068,0.00659,1.01758,-0.42,12.725,3.206
2026-06-01 13:34:39.866,2204419322,107866,2,0.9812,-0.12671,0.18774,-2.565,5.0,5.061
2026-06-01 13:34:39.066,2204418522,108066,1,0.41821,-0.02661,1.06567,-8.191,-5.168,-4.321
2026-06-01 13:34:39.066,2204418522,108066,2,1.02686,-0.18115,0.15405,-10.344,-3.321,5.351
2026-06-01 13:34:39.266,2204418722,108266,1,0.38843,-0.06616,1.05884,-14.069,0.305,-9.504
2026-06-01 13:34:39.266,2204418722,108266,2,0.99341,-0.20654,0.11768,-11.466,-4.267,0.794
2026-06-01 13:34:39.466,2204418922,108466,1,0.37354,-0.07153,1.09326,1.664,-12.992,-9.183
2026-06-01 13:34:39.466,2204418922,108466,2,1.03491,-0.14844,0.09009,17.359,-3.878,-12.817
2026-06-01 13:34:40.666,2204420122,108666,1,0.94849,0.04346,1.35889,3.382,33.916,-10.664
2026-06-01 13:34:40.666,2204420122,108666,2,1.36304,-0.22266,0.25586,44.534,44.718,3.664
2026-06-01 13:34:40.866,2204420322,108866,1,0.32788,0.07202,1.22412,27.336,7.687,17.87
2026-06-01 13:34:40.866,2204420322,108866,2,1.08325,-0.21558,0.17114,-6.786,-21.42,9.038
2026-06-01 13:34:40.066,2204419522,109066,1,0.53247,0.05322,0.85913,21.664,-28.023,18.031
2026-06-01 13:34:40.066,2204419522,109066,2,0.87891,-0.09033,0.14404,0.298,-21.756,3.031
2026-06-01 13:34:40.266,2204419722,109266,1,0.35693,-0.00562,0.64893,34.618,-42.878,19.435
2026-06-01 13:34:40.266,2204419722,109266,2,0.49292,-0.04224,0.01294,32.725,-23.214,-6.817
2026-06-01 13:34:40.466,2204419922,109466,1,0.80957,0.23511,0.71826,30.046,-35.084,13.87
2026-06-01 13:34:40.466,2204419922,109466,2,1.18628,-0.14575,-0.15942,-29.557,-15.939,16.198
2026-06-01 13:34:41.666,2204421122,109666,1,0.9187,0.229,0.67529,-5.588,-8.267,-0.168
2026-06-01 13:34:41.666,2204421122,109666,2,1.0957,0.02905,-0.05542,-0.763,27.832,5.702
2026-06-01 13:34:41.866,2204421322,109866,1,0.40259,0.12622,0.56152,-4.458,13.969,-5.634
2026-06-01 13:34:41.866,2204421322,109866,2,0.65186,-0.07764,-0.04077,-25.924,18.214,2.656
2026-06-01 13:34:41.066,2204420522,110066,1,0.51123,0.16455,0.8313,0.42,16.786,3.634
2026-06-01 13:34:41.066,2204420522,110066,2,0.94775,0.13867,-0.04175,-10.191,27.183,-0.573
2026-06-01 13:34:41.266,2204420722,110266,1,0.70313,0.1355,0.95801,3.282,1.954,7.137
2026-06-01 13:34:41.266,2204420722,110266,2,1.21216,-0.07202,0.02783,-11.832,15.71,-10.198
2026-06-01 13:34:41.466,2204420922,110466,1,1.00439,0.24048,1.33398,-5.397,6.916,-6.733
2026-06-01 13:34:41.466,2204420922,110466,2,1.24731,-0.04004,0.06909,-3.863,6.458,6.504
2026-06-01 13:34:42.666,2204422122,110666,1,0.62085,0.10449,0.97925,-14.313,37.412,-9.16
2026-06-01 13:34:42.666,2204422122,110666,2,0.99927,0.02026,0.11279,-32.42,5.29,11.473
2026-06-01 13:34:42.866,2204422322,110866,1,0.49658,0.09155,0.96216,3.87,13.374,3.351
2026-06-01 13:34:42.866,2204422322,110866,2,1.05518,-0.00977,0.07349,-23.794,-4.87,3.496
2026-06-01 13:34:42.066,2204421522,111066,1,0.50317,0.10645,1.02563,-7.588,20.008,-3.206
2026-06-01 13:34:42.066,2204421522,111066,2,0.95825,0.0083,0.1355,-18.481,12.015,6.87
2026-06-01 13:34:42.266,2204421722,111266,1,0.43823,0.08228,1.01318,-6.893,11.336,0.939
2026-06-01 13:34:42.266,2204421722,111266,2,0.99438,-0.06445,0.22437,11.962,14.137,6.687
2026-06-01 13:34:42.466,2204421922,111466,1,0.39966,0.03833,1.02002,1.656,15.191,5.046
2026-06-01 13:34:42.466,2204421922,111466,2,0.97021,-0.05957,0.22681,-4.901,7.405,3.084
2026-06-01 13:34:43.666,2204423122,111666,1,0.54785,0.08936,1.54248,7.832,-32.466,-5.542
2026-06-01 13:34:43.666,2204423122,111666,2,1.99994,-0.09082,0.4812,-30.649,25.115,22.305
2026-06-01 13:34:43.866,2204423322,111866,1,0.20679,0.05664,1.40356,6.817,1.954,7.855
2026-06-01 13:34:43.866,2204423322,111866,2,1.01831,-0.00464,0.37231,15.046,-25.344,-3.924
2026-06-01 13:34:43.066,2204422522,112066,1,0.44824,0.08716,0.77954,5.58,-34.603,13.389
2026-06-01 13:34:43.066,2204422522,112066,2,0.65088,0.07715,0.06494,23.351,-51.565,-11.611
2026-06-01 13:34:43.266,2204422722,112266,1,0.28491,0.01855,0.4397,12.359,-44.275,6.038
2026-06-01 13:34:43.266,2204422722,112266,2,0.72974,0.00244,-0.08008,-0.061,-30.374,0.366
2026-06-01 13:34:43.466,2204422922,112466,1,0.85791,0.16772,0.77271,11.267,-21.893,3.489
2026-06-01 13:34:43.466,2204422922,112466,2,1.02051,0.04858,-0.11987,-7.374,-9.557,3.137
2026-06-01 13:34:44.666,2204424122,112666,1,0.82446,0.15576,0.73218,-19.733,12.176,-12.527
2026-06-01 13:34:44.666,2204424122,112666,2,0.95435,0.05908,-0.10547,-17.725,19.031,7.107
2026-06-01 13:34:44.866,2204424322,112866,1,0.396,0.09058,0.45776,2.611,34.046,-1.672
2026-06-01 13:34:44.866,2204424322,112866,2,0.75562,-0.01563,-0.06885,-14.718,47.802,17.786
2026-06-01 13:34:44.066,2204423522,113066,1,0.45508,0.17627,0.93457,-0.664,15.954,-2.84
2026-06-01 13:34:44.066,2204423522,113066,2,1.12061,-0.16699,0.16846,-26.664,22.511,21.786
2026-06-01 13:34:44.266,2204423722,113266,1,0.57544,0.13794,1.09692,0.412,19.115,25.855
2026-06-01 13:34:44.266,2204423722,113266,2,1.17627,-0.03979,0.25708,14.863,22.221,9.893
2026-06-01 13:34:44.466,2204423922,113466,1,0.59131,-0.00635,1.50659,13.672,14.908,2.137
2026-06-01 13:34:44.466,2204423922,113466,2,1.2478,-0.11499,0.23267,42.412,17.076,-12.977
2026-06-01 13:34:45.666,2204425122,113666,1,0.34985,0.05786,1.04492,-1.061,12.328,-1.603
2026-06-01 13:34:45.666,2204425122,113666,2,0.86133,-0.06812,0.19604,-5.496,-7.374,-9.71
2026-06-01 13:34:45.866,2204425322,113866,1,0.43433,0.04272,1.00684,-9.366,-15.885,-7.168
2026-06-01 13:34:45.866,2204425322,113866,2,1.07715,-0.00732,0.16675,-13.031,-17.282,-9.802
2026-06-01 13:34:45.066,2204424522,114066,1,0.88159,0.20581,1.44629,14.542,-18.519,-15.87
2026-06-01 13:34:45.066,2204424522,114066,2,1.02539,-0.09863,0.20874,-5.389,-9.16,-4.069
2026-06-01 13:34:45.310,2204424766,114310,1,0.36304,0.07056,1.17749,-4.489,-31.985,0.237
2026-06-01 13:34:45.310,2204424766,114310,2,1.05835,-0.07886,0.12598,2.183,-35.687,10.023
2026-06-01 13:34:45.510,2204424966,114510,1,0.54907,0.13647,0.7583,18.893,-15.473,14.802
2026-06-01 13:34:45.510,2204424966,114510,2,0.52295,0.08179,0.04346,7.901,-32.191,-0.809
2026-06-01 13:34:46.710,2204426166,114710,1,0.33691,0.10425,0.49854,31.397,-42.359,10.901
2026-06-01 13:34:46.710,2204426166,114710,2,0.79468,0.06323,0.01904,4.13,-49.84,2.427
2026-06-01 13:34:46.910,2204426366,114910,1,0.70215,0.14648,0.78809,-13.55,-14.122,-10.046
2026-06-01 13:34:46.910,2204426366,114910,2,1.02954,-0.03979,-0.11597,-11.947,-6.885,-1.802
2026-06-01 13:34:46.110,2204425566,115110,1,0.8313,0.14233,0.74414,0.771,17.985,8.206
2026-06-01 13:34:46.110,2204425566,115110,2,1.03101,-0.05566,-0.10205,-30.672,24.977,2.458
2026-06-01 13:34:46.310,2204425766,115310,1,0.42896,0.05225,0.61963,-2.885,14.573,-5.504
2026-06-01 13:34:46.310,2204425766,115310,2,0.42163,0.01611,-0.01807,-48.023,21.427,4.885
2026-06-01 13:34:46.510,2204425966,115510,1,0.57031,0.11572,0.84302,-2.344,21.771,1.58
2026-06-01 13:34:46.510,2204425966,115510,2,0.84229,0.09229,0.02661,-7.099,15.252,6.817
2026-06-01 13:34:47.710,2204427166,115710,1,0.70483,0.18774,0.84229,0.496,1.55,11.664
2026-06-01 13:34:47.710,2204427166,115710,2,1.18652,0.12842,-0.02344,-25.664,-1.351,-2.092
2026-06-01 13:34:47.910,2204427366,115910,1,0.99585,0.20728,1.36572,0.008,-20.679,4.267
2026-06-01 13:34:47.910,2204427366,115910,2,1.34106,,0.04614,6.313,17.672,0.931
2026-06-01 13:34:47.110,2204426566,116110,1,0.68164,0.1123,1.03784,-24.817,0.84,-16.046
2026-06-01 13:34:47.110,2204426566,116110,2,1.09033,-0.11011,0.04565,-4.511,26.282,-2.328
2026-06-01 13:34:47.310,2204426766,116310,1,0.44849,0.08813,0.97363,-10.305,20.359,-9.267
2026-06-01 13:34:47.310,2204426766,116310,2,1.05591,-0.05371,0.18286,-8.534,3.931,8.069
2026-06-01 13:34:47.510,2204426966,116510,1,0.48047,0.03955,0.9856,-10.023,22.176,-8.031
2026-06-01 13:34:47.510,2204426966,116510,2,0.92407,-0.01172,0.25903,9.298,12.649,-0.718
2026-06-01 13:34:48.710,2204428166,116710,1,0.78491,0.03003,1.89282,-11.847,9.115,-25.809
2026-06-01 13:34:48.710,2204428166,116710,2,1.42358,-0.073,0.49951,43.458,40.13,-13.206
2026-06-01 13:34:48.910,2204428366,116910,1,0.47388,0.15039,1.15186,8.359,-42.435,-11.328
2026-06-01 13:34:48.910,2204428366,116910,2,0.96216,0.04712,0.20508,34.496,-32.504,-14.046
2026-06-01 13:34:48.110,2204427566,117110,1,0.3313,0.14429,0.64307,24.832,-23.809,14.237
2026-06-01 13:34:48.110,2204427566,117110,2,0.50195,-0.0166,0.01465,-54.87,-81.122,-3.74
2026-06-01 13:34:48.310,2204427766,117310,1,0.48853,0.09204,0.4751,29.763,-64.0,23.481
2026-06-01 13:34:48.310,2204427766,117310,2,0.72241,0.03467,-0.08936,-21.931,-47.13,-1.435
2026-06-01 13:34:48.510,2204427966,117510,1,0.76611,0.11377,0.74512,20.336,-0.321,13.344
2026-06-01 13:34:48.510,2204427966,117510,2,1.03516,0.05884,-0.23218,-10.366,-7.771,-9.962
2026-06-01 13:34:49.710,2204429166,117710,1,0.59473,0.06494,0.56714,-5.58,66.198,5.122
2026-06-01 13:34:49.710,2204429166,117710,2,0.45947,0.13403,-0.00781,29.076,61.145,3.641
2026-06-01 13:34:49.910,2204429366,117910,1,0.47095,0.04541,0.65015,-7.473,51.924,-6.947
2026-06-01 13:34:49.910,2204429366,117910,2,0.93823,0.07837,-0.00146,2.634,50.832,2.763
2026-06-01 13:34:49.182,2204428638,118182,1,0.53467,0.10864,1.00366,12.023,17.382,13.275
2026-06-01 13:34:49.182,2204428638,118182,2,1.25806,-0.15356,0.28491,-25.45,-4.763,9.641
2026-06-01 13:34:49.382,2204428838,118382,1,0.49707,-0.05396,1.39893,-14.282,26.817,18.481
2026-06-01 13:34:49.382,2204428838,118382,2,1.30542,-0.08716,0.40283,-25.489,-4.924,7.962
2026-06-01 13:34:50.582,2204430038,118582,1,0.42456,-0.06641,1.19702,-1.969,4.779,-18.405
2026-06-01 13:34:50.582,2204430038,118582,2,1.0,-0.13696,0.16162,-8.344,-10.847,-5.328
2026-06-01 13:34:50.782,2204430238,118782,1,0.44678,-0.00098,1.04004,-13.511,-15.519,-16.489
2026-06-01 13:34:50.782,2204430238,118782,2,1.07397,-0.07129,0.20215,0.763,-10.015,-1.206
2026-06-01 13:34:50.982,2204430438,118982,1,0.90625,-0.05347,1.51245,-23.176,34.069,-29.969
2026-06-01 13:34:50.982,2204430438,118982,2,1.24658,-0.11816,0.31519,26.237,66.107,-2.763
2026-06-01 13:34:50.182,2204429638,119182,1,0.46777,0.08594,1.24854,-11.107,-31.344,-11.771
2026-06-01 13:34:50.182,2204429638,119182,2,1.16113,-0.06323,0.30054,14.748,-34.351,-2.794
2026-06-01 13:34:50.382,2204429838,119382,1,0.41699,0.15552,0.8562,14.16,-30.74,2.015
2026-06-01 13:34:50.382,2204429838,119382,2,0.65649,-0.03027,0.05396,-6.107,-45.26,-6.855
2026-06-01 13:34:51.582,2204431038,119582,1,0.2749,0.06494,0.50317,13.855,-59.267,3.809
2026-06-01 13:34:51.582,2204431038,119582,2,0.64087,0.0564,-0.06152,25.145,-31.71,-7.45
2026-06-01 13:34:51.782,2204431238,119782,1,0.69458,0.04736,0.80127,29.672,-3.145,19.695
2026-06-01 13:34:51.782,2204431238,119782,2,1.05444,-0.03955,-0.07886,-30.099,7.55,13.412
2026-06-01 13:34:51.986,2204431442,119986,1,0.83789,0.15283,0.68506,6.16,32.229,9.55
2026-06-01 13:34:51.986,2204431442,119986,2,0.66602,0.10181,-0.02734,-17.794,53.382,5.298
2026-06-01 13:34:51.186,2204430642,120186,1,0.41333,0.07056,0.71533,-31.977,36.122,-22.588
2026-06-01 13:34:51.186,2204430642,120186,2,0.81274,-0.06348,-0.05371,23.221,29.878,-2.069
2026-06-01 13:34:51.386,2204430842,120386,1,0.55249,0.07935,0.88892,10.015,-4.351,2.817
2026-06-01 13:34:51.386,2204430842,120386,2,1.05591,0.0144,0.19629,-15.603,8.267,11.176
2026-06-01 13:34:52.586,2204432042,120586,1,0.59253,0.12817,1.07666,27.145,-0.336,22.992
2026-06-01 13:34:52.586,2204432042,120586,2,1.24072,-0.11255,0.17139,-18.527,-28.748,8.298
2026-06-01 13:34:52.786,2204432242,120786,1,0.77637,0.10498,1.27417,16.137,15.534,3.855
2026-06-01 13:34:52.786,2204432242,120786,2,1.43726,0.14038,0.09912,-13.756,-0.115,-15.038
2026-06-01 13:34:52.986,2204432442,120986,1,0.64771,0.07129,0.90601,-21.183,40.458,-7.107
2026-06-01 13:34:52.986,2204432442,120986,2,0.82178,-0.02197,0.11182,22.328,22.573,0.924
2026-06-01 13:34:52.186,2204431642,121186,1,0.479,0.06958,1.06567,-13.55,15.458,-11.702
2026-06-01 13:34:52.186,2204431642,121186,2,1.18164,-0.01538,0.14746,-12.145,1.275,-2.038
2026-06-01 13:34:52.386,2204431842,121386,1,0.43286,0.07471,0.92627,1.931,36.771,-1.557
2026-06-01 13:34:52.386,2204431842,121386,2,0.78296,-0.02368,0.18384,21.489,25.015,-3.649
2026-06-01 13:34:53.586,2204433042,121586,1,0.66602,0.00708,1.7207,-1.641,31.015,-5.817
2026-06-01 13:34:53.586,2204433042,121586,2,1.14258,0.0603,0.31958,76.962,20.573,-3.626
2026-06-01 13:34:53.786,2204433242,121786,1,0.41797,0.06445,1.09521,13.069,-30.542,-11.145
2026-06-01 13:34:53.786,2204433242,121786,2,0.9104,-0.05957,0.25171,52.863,-24.313,-9.45
2026-06-01 13:34:53.986,2204433442,121986,1,0.1438,0.09082,0.64404,40.053,-31.847,29.206
2026-06-01 13:34:53.986,2204433442,121986,2,0.51904,0.01807,-0.05786,-14.695,-65.321,-5.718
2026-06-01 13:34:53.186,2204432642,122186,1,0.53369,0.06738,0.62695,2.183,-40.847,2.702
2026-06-01 13:34:53.186,2204432642,122186,2,1.17944,-0.00269,-0.10913,42.84,-0.939,-5.832
2026-06-01 13:34:53.386,2204432842,122386,1,0.69629,0.125,0.82349,7.672,5.496,5.672
2026-06-01 13:34:53.386,2204432842,122386,2,1.10913,0.00952,-0.08325,-11.42,8.901,1.893
2026-06-01 13:34:54.586,2204434042,122586,1,0.07935,0.12329,0.40259,-28.786,65.763,-14.786
2026-06-01 13:34:54.586,2204434042,122586,2,0.66968,0.02539,-0.06543,-147.0,-13.878,24.756
2026-06-01 13:34:54.786,2204434242,122786,1,0.51294,-0.00977,0.93115,-29.344,60.176,-4.382
2026-06-01 13:34:54.786,2204434242,122786,2,1.04541,0.1123,0.11011,31.008,75.359,0.031
2026-06-01 13:34:54.986,2204434442,122986,1,0.41772,0.07495,1.20068,-4.634,17.412,3.763
2026-06-01 13:34:54.986,2204434442,122986,2,1.03931,-0.11719,0.29956,-24.878,-17.542,3.847
2026-06-01 13:34:54.186,2204433642,123186,1,0.31079,0.14673,1.64453,32.794,59.053,28.802
2026-06-01 13:34:54.186,2204433642,123186,2,1.28955,0.05396,0.48608,10.901,10.573,3.0
2026-06-01 13:34:54.386,2204433842,123386,1,0.3269,0.04443,1.18652,8.924,1.145,-7.145
2026-06-01 13:34:54.386,2204433842,123386,2,0.85938,0.0249,0.2356,12.557,-0.908,-10.542
2026-06-01 13:34:55.586,2204435042,123586,1,0.28271,-0.02466,1.12402,-10.58,-23.0,-10.321
2026-06-01 13:34:55.586,2204435042,123586,2,1.06812,0.01929,0.31738,7.046,-29.672,-11.313
2026-06-01 13:34:55.786,2204435242,123786,1,0.61694,0.05298,1.50098,2.71,22.176,-8.824
2026-06-01 13:34:55.786,2204435242,123786,2,1.05591,-0.16846,0.25024,37.252,53.443,-1.206
2026-06-01 13:34:55.986,2204435442,123986,1,0.47583,0.11328,1.19067,3.954,-19.252,-1.443
2026-06-01 13:34:55.986,2204435442,123986,2,0.98901,-0.13354,0.16309,-3.023,-46.893,5.305
2026-06-01 13:34:55.186,2204434642,124186,1,0.57837,0.13525,0.78638,-1.053,-37.786,-6.473
2026-06-01 13:34:55.186,2204434642,124186,2,0.60474,-0.00659,0.07178,19.16,-24.565,-11.282
2026-06-01 13:34:55.386,2204434842,124386,1,0.28833,0.0459,0.55566,11.45,-35.977,-1.489
2026-06-01 13:34:55.386,2204434842,124386,2,0.50122,0.04199,-0.00293,20.855,-44.183,-6.893
2026-06-01 13:34:56.586,2204436042,124586,1,0.73682,0.13647,0.79956,-14.038,6.023,-3.611
2026-06-01 13:34:56.586,2204436042,124586,2,1.05615,-0.02954,-0.23584,9.908,0.008,0.748
2026-06-01 13:34:56.786,2204436242,124786,1,0.87817,0.21191,0.7041,8.802,25.962,11.84
2026-06-01 13:34:56.786,2204436242,124786,2,0.92627,0.00708,0.00342,-15.16,24.053,3.756
2026-06-01 13:34:56.986,2204436442,124986,1,0.37402,0.07739,0.5415,-11.519,23.687,-18.183
2026-06-01 13:34:56.986,2204436442,124986,2,0.37769,-0.08057,-0.03247,5.435,15.595,3.008
2026-06-01 13:34:56.186,2204435642,125186,1,0.39819,0.09326,1.03418,-24.603,33.443,-28.328
2026-06-01 13:34:56.186,2204435642,125186,2,1.04761,-0.15625,0.13159,0.885,-0.405,3.344
2026-06-01 13:34:56.386,2204435842,125386,1,0.57935,0.17749,1.18164,-16.634,1.115,-9.206
2026-06-01 13:34:56.386,2204435842,125386,2,1.43384,0.00952,0.18726,-11.863,2.504,0.115
2026-06-01 13:34:57.588,2204437044,125588,1,0.74512,0.2854,1.14648,-16.145,8.244,-14.733
2026-06-01 13:34:57.588,2204437044,125588,2,1.31226,-0.11011,0.18726,-30.366,-7.84,5.458
2026-06-01 13:34:57.788,2204437244,125788,1,0.52588,0.07227,1.09546,-34.252,18.672,-14.267
2026-06-01 13:34:57.788,2204437244,125788,2,0.92407,-0.0979,0.09888,-12.466,-3.267,4.969
2026-06-01 13:34:57.988,2204437444,125988,1,0.54883,0.12939,1.00049,-12.267,4.542,-6.969
2026-06-01 13:34:57.988,2204437444,125988,2,1.16162,-0.07837,0.12329,-7.282,21.435,8.435
2026-06-01 13:34:57.188,2204436644,126188,1,0.7002,0.12842,1.49487,10.679,26.458,-4.053
2026-06-01 13:34:57.188,2204436644,126188,2,1.13965,-0.16357,0.42505,62.855,14.214,-6.916
2026-06-01 13:34:57.388,2204436844,126388,1,0.71777,0.07104,1.05664,6.931,-26.809,-1.16
2026-06-01 13:34:57.388,2204436844,126388,2,0.95972,0.02319,0.06958,50.427,-35.115,-19.405
2026-06-01 13:34:58.588,2204438044,126588,1,0.27319,0.06543,0.44922,6.42,-25.664,2.023
2026-06-01 13:34:58.588,2204438044,126588,2,0.32593,0.03198,-0.02075,-42.29,-73.13,-8.511
2026-06-01 13:34:58.788,2204438244,126788,1,0.7583,0.09839,0.72852,-4.069,-64.221,-8.412
2026-06-01 13:34:58.788,2204438244,126788,2,1.13379,-0.02612,-0.21484,8.832,0.366,6.55
2026-06-01 13:34:58.988,2204438444,126988,1,0.81885,0.19653,0.73145,4.313,-8.718,2.053
