datetime,epoch_ms,ts_millis,mpu_id,ax,ay,az,gx,gy,gz
2026-06-01T16:18:43.626961,,,,,,,,,
2026-06-01 16:18:43.154,2214262610,7154,1,0.91406,0.16992,0.54614,14.29,26.061,18.901
2026-06-01 16:18:43.154,2214262610,7154,2,0.96094,-0.09082,-0.22803,8.481,10.458,-29.275
2026-06-01 16:18:43.354,2214262810,7354,1,0.92334,0.09961,0.60864,32.466,26.878,33.58
2026-06-01 16:18:43.354,2214262810,7354,2,1.17944,0.07886,-0.18994,51.748,30.336,-29.458
2026-06-01 16:18:43.656,2214263112,7656,1,0.68604,0.33643,0.71436,31.901,46.855,-14.656
2026-06-01 16:18:43.656,2214263112,7656,2,0.98291,0.17944,-0.05103,43.244,29.916,-21.573
2026-06-01 16:18:43.856,2214263312,7856,1,0.66772,0.41846,0.80518,5.427,16.328,-6.847
2026-06-01 16:18:43.856,2214263312,7856,2,1.0,0.16235,-0.02759,-1.061,-6.504,-1.099
2026-06-01 16:18:44.159,2214263615,8159,1,0.67627,0.42749,0.77661,-5.282,-1.084,15.718
2026-06-01 16:18:44.159,2214263615,8159,2,0.99463,0.15039,-0.06055,0.168,-4.466,22.985
2026-06-01 16:18:44.359,2214263815,8359,1,0.71387,0.36157,0.76489,-13.198,-23.71,15.496
2026-06-01 16:18:44.359,2214263815,8359,2,1.04321,0.12695,-0.10278,-17.595,-23.504,23.153
2026-06-01 16:18:44.559,2214264015,8559,1,0.87354,0.04028,0.61108,-14.679,-26.824,46.794
2026-06-01 16:18:44.559,2214264015,8559,2,1.02075,-0.02563,-0.14087,48.0,-18.061,-18.466
2026-06-01 16:18:44.759,2214264215,8759,1,0.95264,0.04517,0.70435,25.282,14.466,10.611
2026-06-01 16:18:44.759,2214264215,8759,2,1.00513,-0.0332,-0.0752,48.962,8.885,-8.634
2026-06-01 16:18:45.959,2214265415,8959,1,0.90649,0.05518,0.70923,19.366,11.099,11.847
2026-06-01 16:18:45.959,2214265415,8959,2,1.07031,-0.08057,-0.10962,31.321,9.122,3.435
2026-06-01 16:18:45.159,2214264615,9159,1,0.84741,0.05615,0.6709,27.641,15.87,14.504
2026-06-01 16:18:45.159,2214264615,9159,2,1.03125,-0.11816,-0.15698,60.298,6.901,-11.824
2026-06-01 16:18:45.359,2214264815,9359,1,0.91064,0.10498,0.62646,27.0,11.71,12.046
2026-06-01 16:18:45.359,2214264815,9359,2,1.00439,-0.01758,-0.20801,19.29,3.573,-2.58
2026-06-01 16:18:45.559,2214265015,9559,1,0.97021,0.23608,0.69727,-1.168,-3.008,-10.748
2026-06-01 16:18:45.559,2214265015,9559,2,1.06079,0.09595,-0.08838,-38.321,-10.794,-8.015
2026-06-01 16:18:45.759,2214265215,9759,1,0.71558,0.2168,0.72021,-8.351,6.282,1.053
2026-06-01 16:18:45.759,2214265215,9759,2,1.0481,0.15845,-0.02954,-24.855,-0.557,-4.115
2026-06-01 16:18:46.959,2214266415,9959,1,0.80127,0.15283,0.74658,-29.466,10.908,-9.466
2026-06-01 16:18:46.959,2214266415,9959,2,1.03784,0.12476,-0.12598,-43.115,-3.183,-15.275
2026-06-01 16:18:46.159,2214265615,10159,1,0.77393,0.29395,0.75293,-37.969,-14.122,-28.29
2026-06-01 16:18:46.159,2214265615,10159,2,1.01587,0.10913,-0.16895,-54.748,-13.908,11.374
2026-06-01 16:18:46.359,2214265815,10359,1,0.76587,0.05713,0.70166,-64.389,-39.565,-40.405
2026-06-01 16:18:46.359,2214265815,10359,2,1.07983,-0.03979,-0.09814,-92.947,-28.55,9.542
2026-06-01 16:18:46.559,2214266015,10559,1,0.91528,0.04395,0.61108,-102.229,-16.779,-52.771
2026-06-01 16:18:46.559,2214266015,10559,2,0.98242,-0.03101,-0.26538,-127.412,-3.145,20.969
2026-06-01 16:18:46.759,2214266215,10759,1,0.99609,-0.01465,0.50562,-102.069,-15.046,-73.878
2026-06-01 16:18:46.759,2214266215,10759,2,1.02319,-0.24951,-0.30225,-132.672,3.511,45.374
2026-06-01 16:18:47.959,2214267415,10959,1,0.94653,-0.10986,0.5686,-39.878,5.794,-20.16
2026-06-01 16:18:47.959,2214267415,10959,2,0.94629,-0.28516,-0.23511,-42.29,8.336,0.397
2026-06-01 16:18:47.159,2214266615,11159,1,0.9978,-0.03857,0.59766,2.435,-6.015,3.786
2026-06-01 16:18:47.159,2214266615,11159,2,0.99365,-0.18701,-0.21704,14.733,-5.786,-3.275
2026-06-01 16:18:47.359,2214266815,11359,1,0.94043,0.03833,0.56616,7.695,-0.84,3.733
2026-06-01 16:18:47.359,2214266815,11359,2,1.00928,-0.16504,-0.19922,5.122,-0.924,-5.511
2026-06-01 16:18:47.559,2214267015,11559,1,0.91162,0.05835,0.60181,13.779,5.802,2.573
2026-06-01 16:18:47.559,2214267015,11559,2,0.99463,-0.11328,-0.18506,15.382,-2.626,-10.763
2026-06-01 16:18:47.759,2214267215,11759,1,0.90869,0.11914,0.60889,24.122,3.55,4.534
2026-06-01 16:18:47.759,2214267215,11759,2,1.01758,-0.08618,-0.20337,23.992,-2.092,-1.885
2026-06-01 16:18:48.959,2214268415,11959,1,0.9585,0.05786,0.55664,11.122,-1.198,3.939
2026-06-01 16:18:48.959,2214268415,11959,2,1.02637,-0.1604,-0.2063,19.878,0.099,-14.634
2026-06-01 16:18:48.159,2214267615,12159,1,0.91968,0.20996,0.56445,12.153,7.145,-8.321
2026-06-01 16:18:48.159,2214267615,12159,2,1.04004,-0.03223,-0.18188,-24.206,5.351,-19.931
2026-06-01 16:18:48.359,2214267815,12359,1,0.89478,0.1665,0.61499,-25.542,1.656,-22.023
2026-06-01 16:18:48.359,2214267815,12359,2,1.02002,-0.052,-0.16187,-40.237,4.313,12.137
2026-06-01 16:18:48.559,2214268015,12559,1,0.91211,0.10107,0.6167,-20.13,-5.191,-11.947
2026-06-01 16:18:48.559,2214268015,12559,2,1.01514,-0.11768,-0.16479,-19.618,3.519,-1.687
2026-06-01 16:18:48.759,2214268215,12759,1,0.9248,0.11426,0.60034,7.092,2.313,4.29
2026-06-01 16:18:48.759,2214268215,12759,2,1.02515,-0.09131,-0.18994,11.519,-1.168,0.214
2026-06-01 16:18:49.959,2214269415,12959,1,0.92041,0.12622,0.59961,13.87,5.046,7.794
2026-06-01 16:18:49.959,2214269415,12959,2,1.02051,-0.0564,-0.19556,13.931,1.107,-3.42
2026-06-01 16:18:49.159,2214268615,13159,1,0.9043,0.14575,0.61523,8.748,4.382,2.542
2026-06-01 16:18:49.159,2214268615,13159,2,1.02954,-0.04541,-0.177,6.649,1.519,-2.962
2026-06-01 16:18:49.359,2214268815,13359,1,0.98291,0.16064,0.60889,-1.031,0.641,-2.16
2026-06-01 16:18:49.359,2214268815,13359,2,1.09888,-0.01855,-0.21265,0.42,6.321,-7.519
2026-06-01 16:18:49.559,2214269015,13559,1,0.84253,-0.12939,0.71289,-21.282,-5.298,-20.84
2026-06-01 16:18:49.559,2214269015,13559,2,1.01953,-0.2124,-0.25342,-5.985,-16.16,0.237
2026-06-01 16:18:49.759,2214269215,13759,1,0.92114,0.21094,0.57178,-13.511,-11.542,-30.473
2026-06-01 16:18:49.759,2214269215,13759,2,0.93213,-0.00391,-0.16333,-27.733,-0.046,7.718
2026-06-01 16:18:50.959,2214270415,13959,1,0.87061,0.27393,0.60938,-48.473,11.809,-25.718
2026-06-01 16:18:50.959,2214270415,13959,2,0.96265,0.17261,-0.29199,-81.366,-27.298,-32.817
2026-06-01 16:18:50.159,2214269615,14159,1,0.7771,0.33472,0.66895,-52.557,-10.771,-53.466
2026-06-01 16:18:50.159,2214269615,14159,2,0.94214,0.11084,-0.20972,-91.305,-24.29,25.023
2026-06-01 16:18:50.359,2214269815,14359,1,0.97974,-0.06128,0.72485,-88.137,-1.832,-42.992
2026-06-01 16:18:50.359,2214269815,14359,2,1.07349,-0.09937,-0.03882,-95.664,9.893,17.985
2026-06-01 16:18:50.559,2214270015,14559,1,0.84717,-0.07495,0.60498,-30.076,3.977,-36.695
2026-06-01 16:18:50.559,2214270015,14559,2,0.96851,-0.24023,-0.07324,-76.885,13.916,16.763
2026-06-01 16:18:50.759,2214270215,14759,1,0.88379,0.35718,0.79272,-21.779,-33.389,-26.099
2026-06-01 16:18:50.759,2214270215,14759,2,1.13647,-0.1062,0.00073,-22.672,12.733,27.275
2026-06-01 16:18:51.959,2214271415,14959,1,0.74976,0.15771,0.58569,35.015,14.359,13.542
2026-06-01 16:18:51.959,2214271415,14959,2,0.97534,0.19922,-0.08154,27.107,3.695,-9.893
2026-06-01 16:18:51.159,2214270615,15159,1,0.87598,0.29688,0.66602,5.359,16.519,14.198
2026-06-01 16:18:51.159,2214270615,15159,2,0.98511,0.21191,-0.23975,11.084,5.977,-2.55
2026-06-01 16:18:51.359,2214270815,15359,1,1.18604,0.29443,0.81641,38.038,-31.794,18.137
2026-06-01 16:18:51.359,2214270815,15359,2,0.95239,0.28564,0.22974,24.931,-34.702,-23.137
2026-06-01 16:18:51.559,2214271015,15559,1,0.7124,0.23706,0.80566,55.565,31.023,3.878
2026-06-01 16:18:51.559,2214271015,15559,2,0.96533,0.1665,-0.02881,61.229,13.107,-8.237
2026-06-01 16:18:51.759,2214271215,15759,1,0.63916,0.2124,0.61206,27.092,38.198,21.29
2026-06-01 16:18:51.759,2214271215,15759,2,0.86401,0.05518,-0.05664,9.183,28.74,11.145
2026-06-01 16:18:52.085,2214271541,16085,1,0.48779,0.22095,1.05981,-65.679,94.176,27.824
2026-06-01 16:18:52.085,2214271541,16085,2,0.7793,0.24707,0.27466,6.794,119.198,-8.45
2026-06-01 16:18:52.285,2214271741,16285,1,-0.01123,0.03076,1.06104,-40.198,75.847,4.534
2026-06-01 16:18:52.285,2214271741,16285,2,0.79663,-0.01416,0.98218,-51.137,90.305,-6.427
2026-06-01 16:18:52.485,2214271941,16485,1,-0.07129,-0.22266,1.20239,-9.015,53.863,18.885
2026-06-01 16:18:52.485,2214271941,16485,2,0.30615,0.0647,0.91968,3.595,66.565,-14.008
2026-06-01 16:18:52.685,2214272141,16685,1,-0.32227,-0.26001,1.14233,-3.664,35.389,6.336
2026-06-01 16:18:52.685,2214272141,16685,2,0.14478,0.16431,1.03882,2.779,40.847,5.122
2026-06-01 16:18:52.885,2214272341,16885,1,-0.30493,-0.21216,1.11084,-4.687,12.878,10.321
2026-06-01 16:18:52.885,2214272341,16885,2,0.20386,0.20313,0.93677,1.298,6.076,7.809
2026-06-01 16:18:53.085,2214272541,17085,1,-0.25977,-0.2041,1.04199,-2.687,2.046,5.695
2026-06-01 16:18:53.085,2214272541,17085,2,0.21973,0.19604,0.87964,-1.527,6.183,7.061
2026-06-01 16:18:53.285,2214272741,17285,1,-0.23267,-0.20557,1.03784,-3.473,-10.504,2.092
2026-06-01 16:18:53.285,2214272741,17285,2,0.22974,0.20093,0.92163,-2.321,1.763,8.336
2026-06-01 16:18:53.485,2214272941,17485,1,-0.23877,-0.20801,1.05957,-1.634,2.885,5.702
2026-06-01 16:18:53.485,2214272941,17485,2,0.24316,0.19189,0.90698,-0.924,0.137,4.168
2026-06-01 16:18:53.685,2214273141,17685,1,-0.22632,-0.20459,1.04468,0.924,-1.405,1.359
2026-06-01 16:18:53.685,2214273141,17685,2,0.25757,0.18384,0.89917,-0.947,-1.924,2.298
2026-06-01 16:18:53.885,2214273341,17885,1,-0.2146,-0.19678,1.05859,0.565,-0.214,0.328
2026-06-01 16:18:53.885,2214273341,17885,2,0.25439,0.18384,0.9043,-3.282,0.366,-0.893
2026-06-01 16:18:54.085,2214273541,18085,1,-0.22168,-0.19727,1.06909,-1.962,4.069,-1.519
2026-06-01 16:18:54.085,2214273541,18085,2,0.25049,0.18726,0.90137,-2.832,1.351,-0.221
2026-06-01 16:18:54.285,2214273741,18285,1,-0.21997,-0.21216,1.05884,0.74,2.74,-1.649
2026-06-01 16:18:54.285,2214273741,18285,2,0.24463,0.17505,0.89453,-0.794,-0.115,-3.038
2026-06-01 16:18:54.485,2214273941,18485,1,-0.23511,-0.19971,1.04761,3.71,1.0,-3.595
2026-06-01 16:18:54.485,2214273941,18485,2,0.24512,0.17969,0.91309,-0.672,-0.908,-2.397
2026-06-01 16:18:54.685,2214274141,18685,1,-0.23096,-0.18848,1.03955,1.168,2.802,-2.282
2026-06-01 16:18:54.685,2214274141,18685,2,0.24341,0.19092,0.90527,-2.29,1.443,-1.641
2026-06-01 16:18:54.885,2214274341,18885,1,-0.23462,-0.19824,1.06641,-2.252,3.206,-1.626
2026-06-01 16:18:54.885,2214274341,18885,2,0.25317,0.18408,0.91895,-1.458,1.641,-0.504
2026-06-01 16:18:55.085,2214274541,19085,1,-0.24292,-0.19922,1.05298,2.763,1.847,0.168
2026-06-01 16:18:55.085,2214274541,19085,2,0.23169,0.18945,0.9126,-1.901,1.504,0.893
2026-06-01 16:18:55.285,2214274741,19285,1,-0.2373,-0.19653,1.05957,-0.656,1.679,1.992
2026-06-01 16:18:55.285,2214274741,19285,2,0.24829,0.19971,0.90576,-1.901,-2.863,2.198
2026-06-01 16:18:55.507,2214274963,19507,1,-0.23511,-0.21216,1.07373,-1.031,-2.58,-1.832
2026-06-01 16:18:55.507,2214274963,19507,2,0.24829,0.18677,0.92041,-4.115,-3.527,0.557
2026-06-01 16:18:55.707,2214275163,19707,1,-0.26099,-0.22241,1.11499,6.489,-9.244,-0.985
2026-06-01 16:18:55.707,2214275163,19707,2,0.25317,0.13965,0.91357,6.565,-21.641,8.198
2026-06-01 16:18:56.907,2214276363,19907,1,-0.19946,-0.2019,1.11157,26.221,-33.053,12.756
2026-06-01 16:18:56.907,2214276363,19907,2,0.33325,0.19946,0.8855,23.573,-36.382,12.679
2026-06-01 16:18:56.107,2214275563,20107,1,-0.08276,-0.03735,1.16455,21.74,-43.702,7.496
2026-06-01 16:18:56.107,2214275563,20107,2,0.49829,0.27637,0.76147,-7.389,-56.427,17.16
2026-06-01 16:18:56.307,2214275763,20307,1,0.12061,-0.02075,1.1123,13.237,-61.679,0.794
2026-06-01 16:18:56.307,2214275763,20307,2,0.74463,0.20239,0.61084,2.664,-76.122,18.863
2026-06-01 16:18:56.507,2214275963,20507,1,0.43237,0.10303,1.02271,16.328,-65.405,2.023
2026-06-01 16:18:56.507,2214275963,20507,2,1.00977,0.20215,0.31958,-0.786,-81.74,21.824
2026-06-01 16:18:56.707,2214276163,20707,1,0.55151,0.08252,0.79932,23.45,-42.985,9.061
2026-06-01 16:18:56.707,2214276163,20707,2,0.95972,0.03052,0.1145,43.252,-47.458,26.901
2026-06-01 16:18:57.907,2214277363,20907,1,0.74512,0.20361,0.73169,32.626,-48.206,28.802
2026-06-01 16:18:57.907,2214277363,20907,2,1.02466,0.00415,-0.04639,47.473,-35.046,19.992
2026-06-01 16:18:57.107,2214276563,21107,1,1.01343,0.13159,0.5127,73.893,-6.908,48.122
2026-06-01 16:18:57.107,2214276563,21107,2,1.03027,-0.05566,-0.09009,88.206,-8.229,20.954
2026-06-01 16:18:57.307,2214276763,21307,1,0.90771,0.10376,0.52344,95.695,11.137,59.786
2026-06-01 16:18:57.307,2214276763,21307,2,1.01733,0.01392,-0.17383,116.84,8.519,-11.42
2026-06-01 16:18:57.507,2214276963,21507,1,0.89868,0.20068,0.6123,110.366,17.16,54.115
2026-06-01 16:18:57.507,2214276963,21507,2,1.02124,0.10181,-0.1499,120.16,1.305,-17.008
2026-06-01 16:18:57.707,2214277163,21707,1,1.02881,0.12622,0.58276,96.626,16.023,65.023
2026-06-01 16:18:57.707,2214277163,21707,2,1.14966,0.09277,-0.23193,115.71,17.779,-14.679
2026-06-01 16:18:58.907,2214278363,21907,1,0.94873,0.13745,0.50732,70.954,31.702,48.046
2026-06-01 16:18:58.907,2214278363,21907,2,0.9939,0.05054,-0.22119,93.893,28.405,1.855
2026-06-01 16:18:58.107,2214277563,22107,1,0.85107,0.09741,0.58936,55.573,4.481,37.053
2026-06-01 16:18:58.107,2214277563,22107,2,0.8999,-0.01953,-0.19971,48.214,-15.298,-0.412
2026-06-01 16:18:58.307,2214277763,22307,1,0.88672,0.2207,0.55127,44.977,-5.45,15.061
2026-06-01 16:18:58.307,2214277763,22307,2,0.90356,-0.0415,-0.22925,53.099,-7.153,51.748
2026-06-01 16:18:58.507,2214277963,22507,1,0.9729,0.23657,0.57935,72.489,40.557,19.611
2026-06-01 16:18:58.507,2214277963,22507,2,0.99023,0.06787,-0.25635,63.092,7.779,-19.214
2026-06-01 16:18:58.707,2214278163,22707,1,0.85547,0.3584,0.57153,34.122,29.634,30.885
2026-06-01 16:18:58.707,2214278163,22707,2,1.01782,0.17236,-0.16895,41.58,21.328,-11.244
2026-06-01 16:18:59.907,2214279363,22907,1,0.76245,0.41357,0.60034,40.916,1.817,37.649
2026-06-01 16:18:59.907,2214279363,22907,2,0.88794,0.17969,-0.20605,39.847,5.084,34.13
2026-06-01 16:18:59.107,2214278563,23107,1,0.79175,0.08936,0.63867,98.977,-1.29,62.947
2026-06-01 16:18:59.107,2214278563,23107,2,0.95752,-0.06006,0.13159,82.45,-17.237,-24.198
2026-06-01 16:18:59.307,2214278763,23307,1,0.87354,0.2561,0.5896,111.069,41.84,70.58
2026-06-01 16:18:59.307,2214278763,23307,2,1.02612,0.03809,-0.22925,126.847,23.832,20.374
2026-06-01 16:18:59.507,2214278963,23507,1,0.84619,0.20605,0.51929,55.863,45.031,53.481
2026-06-01 16:18:59.507,2214278963,23507,2,0.96265,-0.04761,-0.16772,20.168,3.611,-3.107
2026-06-01 16:18:59.734,2214279190,23734,1,1.37842,0.17847,1.01294,48.702,-22.893,7.771
2026-06-01 16:18:59.734,2214279190,23734,2,0.85474,-0.06567,-0.00952,95.137,16.168,-1.809
2026-06-01 16:19:00.948,2214280404,23948,1,0.76343,0.31689,0.64526,60.313,12.679,46.374
2026-06-01 16:19:00.948,2214280404,23948,2,0.98145,0.23682,-0.08691,32.542,-7.603,-33.412
2026-06-01 16:19:00.148,2214279604,24148,1,0.83911,0.27173,0.5686,-12.244,8.008,2.397
2026-06-01 16:19:00.148,2214279604,24148,2,0.85083,0.14575,-0.45801,-56.534,-18.168,33.718
2026-06-01 16:19:00.373,2214279829,24373,1,0.97607,0.29175,0.5332,-46.786,-61.748,-29.275
2026-06-01 16:19:00.373,2214279829,24373,2,1.88892,-0.40479,0.07031,-52.863,8.221,74.802
2026-06-01 16:19:00.573,2214280029,24573,1,0.81519,0.12158,0.69238,-29.282,3.252,-34.687
2026-06-01 16:19:00.573,2214280029,24573,2,0.93701,-0.22949,-0.14136,-11.473,2.87,10.13
2026-06-01 16:19:00.773,2214280229,24773,1,0.92676,0.11328,0.52368,1.84,12.015,-6.412
2026-06-01 16:19:00.773,2214280229,24773,2,1.00562,-0.16968,-0.16553,35.954,18.153,14.328
2026-06-01 16:19:01.973,2214281429,24973,1,1.12402,0.01587,0.73877,76.832,-47.702,29.947
2026-06-01 16:19:01.973,2214281429,24973,2,1.06445,0.18848,-0.29199,92.931,23.427,-64.74
2026-06-01 16:19:01.173,2214280629,25173,1,0.86963,0.32788,0.59082,65.626,53.756,29.405
2026-06-01 16:19:01.173,2214280629,25173,2,0.93555,-0.00195,-0.12939,75.87,4.031,-33.031
2026-06-01 16:19:01.373,2214280829,25373,1,0.54761,0.45776,0.57935,2.206,-4.947,7.611
2026-06-01 16:19:01.373,2214280829,25373,2,0.73364,0.17578,-0.00854,-11.344,-32.908,32.023
2026-06-01 16:19:01.573,2214281029,25573,1,0.75464,0.302,0.66724,-43.664,-50.183,-27.504
2026-06-01 16:19:01.573,2214281029,25573,2,1.16626,-0.0564,-0.04175,-90.519,11.534,18.122
2026-06-01 16:19:01.773,2214281229,25773,1,0.80957,0.11426,0.55835,-32.359,-19.71,3.069
2026-06-01 16:19:01.773,2214281229,25773,2,1.2793,0.04956,0.15283,36.542,-26.45,5.947
2026-06-01 16:19:02.973,2214282429,25973,1,0.94556,0.48804,0.49976,21.87,-16.855,6.763
2026-06-01 16:19:02.973,2214282429,25973,2,1.11279,0.14868,-0.32324,-7.45,2.267,6.29
2026-06-01 16:19:02.173,2214281629,26173,1,1.0874,0.146,0.45459,19.626,5.099,14.748
2026-06-01 16:19:02.173,2214281629,26173,2,0.92676,0.18164,-0.03711,-22.084,-0.855,-56.534
2026-06-01 16:19:02.373,2214281829,26373,1,0.83569,0.24219,0.61304,5.992,12.901,-21.748
2026-06-01 16:19:02.373,2214281829,26373,2,0.98511,0.03613,-0.06055,12.84,-10.359,10.252
2026-06-01 16:19:02.573,2214282029,26573,1,0.97754,0.35205,0.53589,12.939,3.237,-8.565
2026-06-01 16:19:02.573,2214282029,26573,2,0.98828,0.09033,-0.0752,5.137,-12.389,-19.847
2026-06-01 16:19:02.773,2214282229,26773,1,0.88696,0.33813,0.52563,-13.267,-3.672,-19.718
2026-06-01 16:19:02.773,2214282229,26773,2,1.06201,0.08911,-0.17676,-42.458,-7.466,-15.435
2026-06-01 16:19:03.973,2214283429,26973,1,0.85571,0.37695,0.52637,2.206,16.466,-20.87
2026-06-01 16:19:03.973,2214283429,26973,2,1.03296,-0.00488,-0.09839,1.931,12.267,-19.771
2026-06-01 16:19:03.173,2214282629,27173,1,0.8833,0.34546,0.55396,43.015,38.046,28.969
2026-06-01 16:19:03.173,2214282629,27173,2,0.99976,0.01855,-0.17163,67.924,10.885,3.153
2026-06-01 16:19:03.373,2214282829,27373,1,1.29443,0.4834,0.49878,21.305,4.786,45.244
2026-06-01 16:19:03.373,2214282829,27373,2,0.91357,0.17432,-0.29297,-3.565,11.878,-15.313
2026-06-01 16:19:03.573,2214283029,27573,1,0.74609,0.54346,0.57593,17.176,17.466,8.84
2026-06-01 16:19:03.573,2214283029,27573,2,0.88794,0.23828,-0.19385,-11.557,0.977,18.565
2026-06-01 16:19:03.798,2214283254,27798,1,0.86743,0.43481,0.54736,-38.076,-17.061,14.26
2026-06-01 16:19:03.798,2214283254,27798,2,1.12427,0.13354,-0.13721,-57.008,-11.328,-22.023
2026-06-01 16:19:04.998,2214284454,27998,1,0.8501,0.25342,0.59644,-31.58,-9.504,-5.794
2026-06-01 16:19:04.998,2214284454,27998,2,1.06836,0.13867,-0.15186,-8.267,-3.779,4.275
2026-06-01 16:19:04.207,2214283663,28207,1,0.89575,0.20386,0.58936,1.099,13.0,8.389
2026-06-01 16:19:04.207,2214283663,28207,2,0.95068,0.15625,-0.19873,9.191,6.038,-22.847
2026-06-01 16:19:04.407,2214283863,28407,1,0.85278,0.26489,0.58838,19.115,15.71,11.954
2026-06-01 16:19:04.407,2214283863,28407,2,0.94897,0.12817,-0.22754,32.092,4.397,4.74
2026-06-01 16:19:04.607,2214284063,28607,1,1.1001,0.20898,0.74878,36.725,30.237,33.679
2026-06-01 16:19:04.607,2214284063,28607,2,1.15991,0.19409,-0.26196,95.168,26.771,2.939
2026-06-01 16:19:04.807,2214284263,28807,1,0.70093,0.19995,0.63647,-1.611,7.26,23.855
2026-06-01 16:19:04.807,2214284263,28807,2,0.87402,0.13379,-0.01318,13.321,1.573,25.832
2026-06-01 16:19:05.007,2214284463,29007,1,0.94092,0.15112,0.72217,28.916,-0.435,19.046
2026-06-01 16:19:05.007,2214284463,29007,2,1.07007,0.13721,-0.05713,46.702,6.634,15.076
2026-06-01 16:19:05.207,2214284663,29207,1,0.86914,0.1582,0.61084,93.611,6.107,45.603
2026-06-01 16:19:05.207,2214284663,29207,2,1.04224,0.11206,-0.19165,96.504,-1.107,-6.168
2026-06-01 16:19:05.407,2214284863,29407,1,0.95825,0.26904,0.49414,53.649,13.321,25.252
2026-06-01 16:19:05.407,2214284863,29407,2,1.01416,0.14429,-0.17407,35.855,6.779,-3.672
2026-06-01 16:19:05.607,2214285063,29607,1,0.90161,0.18774,0.62451,8.878,1.863,11.053
2026-06-01 16:19:05.607,2214285063,29607,2,1.03076,0.12549,-0.14868,15.748,7.145,0.519
2026-06-01 16:19:05.807,2214285263,29807,1,0.86475,0.1499,0.62891,7.092,0.718,-9.145
2026-06-01 16:19:05.807,2214285263,29807,2,1.01099,0.11938,-0.10376,-10.015,-7.71,-10.122
2026-06-01 16:19:06.007,2214285463,30007,1,0.89136,0.14941,0.58594,4.015,15.153,-5.092
2026-06-01 16:19:06.007,2214285463,30007,2,1.05518,0.22266,-0.13232,12.069,12.71,-45.099
2026-06-01 16:19:06.207,2214285663,30207,1,0.83154,0.28491,0.62744,47.779,27.733,-1.962
2026-06-01 16:19:06.207,2214285663,30207,2,1.03052,0.07104,-0.18677,46.45,17.069,24.634
2026-06-01 16:19:06.407,2214285863,30407,1,0.90234,0.2981,0.50952,45.595,9.55,30.519
2026-06-01 16:19:06.407,2214285863,30407,2,1.03638,0.14063,-0.16553,40.084,2.603,17.908
2026-06-01 16:19:06.607,2214286063,30607,1,0.90381,0.34058,0.521,43.802,21.656,35.076
2026-06-01 16:19:06.607,2214286063,30607,2,1.01489,0.13281,-0.2085,59.603,10.626,-4.092
2026-06-01 16:19:06.807,2214286263,30807,1,0.94165,0.40576,0.59961,56.031,-0.557,43.695
2026-06-01 16:19:06.807,2214286263,30807,2,1.10767,0.05493,-0.21021,81.153,9.939,9.527
2026-06-01 16:19:07.007,2214286463,31007,1,0.75903,0.31104,0.63257,51.237,0.557,38.916
2026-06-01 16:19:07.007,2214286463,31007,2,1.0,0.08643,-0.11475,53.573,-7.458,15.58
2026-06-01 16:19:07.207,2214286663,31207,1,0.90894,0.18555,0.59766,40.359,29.412,32.771
2026-06-01 16:19:07.207,2214286663,31207,2,1.02246,-0.01733,-0.27026,46.924,-4.679,13.191
2026-06-01 16:19:07.407,2214286863,31407,1,0.94751,0.07959,0.4646,48.374,30.176,48.565
2026-06-01 16:19:07.407,2214286863,31407,2,0.91577,-0.0874,-0.31641,45.321,8.298,-10.924
2026-06-01 16:19:07.607,2214287063,31607,1,1.24609,0.25903,0.66748,31.122,-16.496,17.321
2026-06-01 16:19:07.607,2214287063,31607,2,1.198,-0.01074,-0.10376,2.885,-4.313,19.16
2026-06-01 16:19:07.807,2214287263,31807,1,0.86328,0.27026,0.63306,53.374,26.557,15.672
2026-06-01 16:19:07.807,2214287263,31807,2,0.99146,0.00903,-0.16382,80.282,34.519,-2.71
2026-06-01 16:19:08.007,2214287463,32007,1,0.86743,0.25098,0.50415,20.359,15.397,18.595
2026-06-01 16:19:08.007,2214287463,32007,2,0.80664,0.17358,-0.19995,24.26,-7.366,-24.405
2026-06-01 16:19:08.207,2214287663,32207,1,1.1521,0.10498,0.92188,-21.863,22.519,4.107
2026-06-01 16:19:08.207,2214287663,32207,2,1.00732,0.2666,-0.09399,15.008,2.122,0.771
2026-06-01 16:19:08.407,2214287863,32407,1,0.93262,0.05859,0.61084,-21.534,-5.542,-34.458
2026-06-01 16:19:08.407,2214287863,32407,2,0.9502,-0.06543,-0.14819,-57.336,1.191,9.412
2026-06-01 16:19:08.607,2214288063,32607,1,0.89478,0.09302,0.52808,2.824,4.618,-14.458
2026-06-01 16:19:08.607,2214288063,32607,2,0.99951,-0.25342,-0.25122,-15.481,15.748,22.824
2026-06-01 16:19:08.807,2214288263,32807,1,0.98975,0.0708,0.49951,37.137,-13.87,23.71
2026-06-01 16:19:08.807,2214288263,32807,2,1.17505,-0.06616,-0.00024,128.664,17.176,-0.71
2026-06-01 16:19:09.070,2214288526,33070,1,0.80762,0.29883,0.625,56.763,13.489,41.198
2026-06-01 16:19:09.070,2214288526,33070,2,0.91089,0.19946,-0.20264,95.893,26.649,-17.015
2026-06-01 16:19:09.270,2214288726,33270,1,0.86108,0.27466,0.50415,18.115,7.74,27.748
2026-06-01 16:19:09.270,2214288726,33270,2,1.0481,0.17773,-0.31372,28.489,-13.878,-1.214
2026-06-01 16:19:09.470,2214288926,33470,1,0.89648,0.3584,0.39746,-27.748,-10.252,-0.893
2026-06-01 16:19:09.470,2214288926,33470,2,1.71631,-0.05151,-0.0813,-108.672,-16.405,36.29
2026-06-01 16:19:09.670,2214289126,33670,1,0.76904,0.06592,0.74243,31.336,4.992,14.443
2026-06-01 16:19:09.670,2214289126,33670,2,0.98389,-0.04956,0.53052,-59.069,-38.504,-7.42
2026-06-01 16:19:09.870,2214289326,33870,1,0.80103,0.05664,0.63892,-50.725,18.374,-39.603
2026-06-01 16:19:09.870,2214289326,33870,2,0.92212,-0.10059,-0.14941,-88.672,9.656,20.824
2026-06-01 16:19:10.070,2214289526,34070,1,0.78003,-0.09351,0.57129,-41.328,-28.282,-31.031
2026-06-01 16:19:10.070,2214289526,34070,2,1.05273,-0.19775,0.04761,-7.092,3.794,31.489
2026-06-01 16:19:10.426,2214289882,34426,1,0.95459,0.1665,0.40088,-28.221,-50.58,1.145
2026-06-01 16:19:10.426,2214289882,34426,2,1.00757,0.09839,-0.14478,-17.794,24.26,-47.595
2026-06-01 16:19:10.626,2214290082,34626,1,0.93115,0.21436,0.40454,23.153,87.542,48.832
2026-06-01 16:19:10.626,2214290082,34626,2,1.00635,0.13428,-0.16504,-55.084,-6.679,10.84
2026-06-01 16:19:10.826,2214290282,34826,1,0.98657,0.20508,0.5918,-208.328,104.527,-41.679
2026-06-01 16:19:10.826,2214290282,34826,2,1.01099,-0.03613,-0.04102,-64.122,-11.053,13.099
2026-06-01 16:19:11.026,2214290482,35026,1,1.03174,0.00635,0.37549,19.557,-156.061,-0.084
2026-06-01 16:19:11.026,2214290482,35026,2,1.05933,-0.04834,-0.1272,-15.214,9.473,-17.992
2026-06-01 16:19:11.226,2214290682,35226,1,0.87842,0.14868,0.27393,-48.87,168.366,-26.748
2026-06-01 16:19:11.226,2214290682,35226,2,1.12476,-0.15039,-0.05078,-61.573,0.298,17.802
2026-06-01 16:19:11.426,2214290882,35426,1,1.0083,0.09424,0.47144,12.298,-28.985,-1.847
2026-06-01 16:19:11.426,2214290882,35426,2,0.97583,-0.01904,-0.05371,10.176,0.702,-8.916
2026-06-01 16:19:11.626,2214291082,35626,1,0.97192,0.01685,0.41895,-18.389,22.42,8.389
2026-06-01 16:19:11.626,2214291082,35626,2,1.03052,-0.19214,-0.11108,15.122,-10.557,12.405
2026-06-01 16:19:11.826,2214291282,35826,1,1.00244,0.05835,0.43799,-18.641,16.962,4.305
2026-06-01 16:19:11.826,2214291282,35826,2,1.04761,-0.1001,-0.12354,22.672,-2.084,-17.534
2026-06-01 16:19:12.026,2214291482,36026,1,1.02856,0.21851,0.34204,29.534,24.42,-9.366
2026-06-01 16:19:12.026,2214291482,36026,2,0.8855,-0.06909,-0.07275,-17.191,-5.214,7.695
2026-06-01 16:19:12.226,2214291682,36226,1,0.98145,0.21582,0.45313,7.802,39.176,-2.168
2026-06-01 16:19:12.226,2214291682,36226,2,0.99219,-0.0083,-0.1626,-7.519,27.298,2.397
2026-06-01 16:19:12.426,2214291882,36426,1,0.9104,0.25269,0.50952,27.366,35.481,4.153
2026-06-01 16:19:12.426,2214291882,36426,2,1.02246,0.01416,-0.12573,28.359,10.542,-20.641
2026-06-01 16:19:12.626,2214292082,36626,1,0.92969,0.27148,0.56079,29.267,-2.107,13.542
2026-06-01 16:19:12.626,2214292082,36626,2,1.07739,0.03735,-0.18726,25.267,-0.115,6.328
2026-06-01 16:19:12.826,2214292282,36826,1,0.92114,0.29785,0.44312,10.794,-20.061,-2.275
2026-06-01 16:19:12.826,2214292282,36826,2,1.01196,0.01929,-0.14722,10.26,-1.55,0.351
2026-06-01 16:19:13.026,2214292482,37026,1,1.2417,0.31592,0.53198,7.733,-62.595,6.267
2026-06-01 16:19:13.026,2214292482,37026,2,1.06519,-0.28125,-0.11401,-20.992,-30.519,37.504
2026-06-01 16:19:13.226,2214292682,37226,1,0.95435,0.18115,0.56934,-18.527,-12.237,7.763
2026-06-01 16:19:13.226,2214292682,37226,2,1.02466,-0.0791,-0.3335,2.611,-26.634,-7.473
2026-06-01 16:19:13.426,2214292882,37426,1,1.03394,0.12036,0.42603,-20.084,-5.511,-5.374
2026-06-01 16:19:13.426,2214292882,37426,2,1.01782,-0.04077,-0.39551,-8.55,-9.756,9.397
2026-06-01 16:19:13.626,2214293082,37626,1,1.01563,0.05176,0.43848,-30.794,4.733,12.588
2026-06-01 16:19:13.626,2214293082,37626,2,1.0127,-0.0376,-0.39771,-5.076,3.74,-4.42
2026-06-01 16:19:13.826,2214293282,37826,1,1.00146,-0.02539,0.34229,15.718,9.985,-3.58
2026-06-01 16:19:13.826,2214293282,37826,2,1.00073,-0.03979,-0.2832,-19.733,25.336,2.153
2026-06-01 16:19:14.026,2214293482,38026,1,1.01733,-0.00757,0.15869,151.687,-84.756,-0.847
2026-06-01 16:19:14.026,2214293482,38026,2,0.97559,-0.08203,-0.45215,21.901,-28.527,1.115
2026-06-01 16:19:14.226,2214293682,38226,1,1.0144,0.10815,0.38867,0.504,17.458,-2.924
2026-06-01 16:19:14.226,2214293682,38226,2,0.98853,-0.03027,-0.28833,8.947,-4.107,1.511
2026-06-01 16:19:14.426,2214293882,38426,1,0.99072,0.1687,0.36597,1.489,-6.366,-5.305
2026-06-01 16:19:14.426,2214293882,38426,2,1.00708,-0.06274,-0.22876,12.664,1.115,5.634
2026-06-01 16:19:14.626,2214294082,38626,1,1.09448,0.146,0.39673,21.542,-5.221,11.359
2026-06-01 16:19:14.626,2214294082,38626,2,0.92896,-0.04126,-0.47461,29.0,-94.557,-1.832
2026-06-01 16:19:14.826,2214294282,38826,1,1.01123,0.15601,0.38403,4.382,-0.443,5.45
2026-06-01 16:19:14.826,2214294282,38826,2,0.89795,-0.06348,-0.34424,10.191,87.947,-49.046
2026-06-01 16:19:15.026,2214294482,39026,1,1.00293,0.13379,0.36987,10.962,2.137,7.924
2026-06-01 16:19:15.026,2214294482,39026,2,0.84229,-0.12695,-0.37988,6.885,-84.931,-2.786
2026-06-01 16:19:15.226,2214294682,39226,1,1.03735,0.1355,0.37402,3.481,-7.725,2.038
2026-06-01 16:19:15.226,2214294682,39226,2,0.73779,-0.16626,-0.30469,14.595,-29.336,-5.336
2026-06-01 16:19:15.426,2214294882,39426,1,1.02026,0.11621,0.32764,1.015,-4.824,0.038
2026-06-01 16:19:15.426,2214294882,39426,2,0.8252,-0.18066,-0.67725,-5.107,-2.275,6.756
2026-06-01 16:19:15.626,2214295082,39626,1,1.02539,0.12085,0.3335,-11.695,7.725,-3.725
2026-06-01 16:19:15.626,2214295082,39626,2,0.87061,-0.17871,-0.62402,-17.099,48.947,2.504
2026-06-01 16:19:15.826,2214295282,39826,1,1.00806,0.09741,0.41187,-16.252,7.374,0.122
2026-06-01 16:19:15.826,2214295282,39826,2,0.92603,-0.1582,-0.52393,17.824,-8.031,-8.328
2026-06-01 16:19:16.091,2214295547,40091,1,1.0022,0.12036,0.39038,-6.939,-3.611,-3.893
2026-06-01 16:19:16.091,2214295547,40091,2,0.89282,-0.10522,-0.63428,-15.481,-40.992,-0.084
2026-06-01 16:19:16.291,2214295747,40291,1,1.0144,0.1189,0.33936,0.313,-4.481,-4.71
2026-06-01 16:19:16.291,2214295747,40291,2,0.84277,-0.17163,-0.62329,-10.74,5.992,5.336
2026-06-01 16:19:16.491,2214295947,40491,1,1.01587,0.12598,0.39551,-13.687,7.557,-3.153
2026-06-01 16:19:16.491,2214295947,40491,2,0.87329,-0.0896,-0.43994,-14.626,101.763,-24.412
2026-06-01 16:19:16.691,2214296147,40691,1,0.99829,0.1167,0.40527,-0.672,1.389,-0.84
2026-06-01 16:19:16.691,2214296147,40691,2,0.94995,-0.10156,-0.44434,0.87,0.534,0.405
2026-06-01 16:19:17.891,2214297347,40891,1,1.01196,0.12305,0.40332,-3.198,-1.42,0.55
2026-06-01 16:19:17.891,2214297347,40891,2,0.97021,-0.09424,-0.44043,-3.412,8.771,0.824
2026-06-01 16:19:17.091,2214296547,41091,1,0.98218,0.09204,0.41138,-3.679,13.504,0.198
2026-06-01 16:19:17.091,2214296547,41091,2,1.02466,-0.03784,-0.45508,18.183,-17.267,-39.008
2026-06-01 16:19:17.371,2214296827,41370,1,1.00269,0.13208,0.46826,19.069,7.221,-7.527
2026-06-01 16:19:17.371,2214296827,41370,2,0.96167,-0.0437,-0.39941,12.626,-0.916,-13.382
2026-06-01 16:19:17.570,2214297026,41570,1,0.9729,0.14941,0.45947,-1.542,-6.664,-5.695
2026-06-01 16:19:17.570,2214297026,41570,2,0.98145,0.0127,-0.40527,-11.176,-7.664,-0.588
2026-06-01 16:19:17.770,2214297226,41770,1,1.02661,0.16064,0.448,-35.084,-3.802,-11.389
2026-06-01 16:19:17.770,2214297226,41770,2,1.04834,0.03613,-0.37061,-24.023,4.168,1.115
2026-06-01 16:19:18.970,2214298426,41970,1,0.89404,0.17749,0.47144,-34.122,9.435,-19.298
2026-06-01 16:19:18.970,2214298426,41970,2,0.94775,0.00269,-0.375,-33.267,14.763,27.649
2026-06-01 16:19:18.170,2214297626,42170,1,0.93164,0.15503,0.49707,-4.344,3.282,-4.069
2026-06-01 16:19:18.170,2214297626,42170,2,0.99512,0.01123,-0.32397,-0.832,5.855,2.458
2026-06-01 16:19:18.370,2214297826,42370,1,0.94922,0.19507,0.49976,1.489,3.84,-0.779
2026-06-01 16:19:18.370,2214297826,42370,2,0.99683,0.03687,-0.33594,-0.557,4.725,0.145
2026-06-01 16:19:18.570,2214298026,42570,1,0.95776,0.19116,0.48828,-4.069,1.679,-3.031
2026-06-01 16:19:18.570,2214298026,42570,2,0.9834,-0.00195,-0.33154,0.489,1.748,2.115
2026-06-01 16:19:18.770,2214298226,42770,1,0.95874,0.15869,0.4707,3.221,5.206,0.718
2026-06-01 16:19:18.770,2214298226,42770,2,0.98755,-0.02979,-0.34033,12.061,1.733,-2.168
2026-06-01 16:19:19.970,2214299426,42970,1,0.97754,0.17651,0.47632,12.924,0.313,3.725
2026-06-01 16:19:19.970,2214299426,42970,2,0.99316,0.0061,-0.38159,4.382,-5.687,0.084
2026-06-01 16:19:19.170,2214298626,43170,1,0.96704,0.19604,0.4751,-4.412,-3.573,-1.412
2026-06-01 16:19:19.170,2214298626,43170,2,0.97876,-0.00146,-0.38525,-11.443,-1.695,7.176
2026-06-01 16:19:19.370,2214298826,43370,1,0.97607,0.16431,0.47095,-15.672,-7.611,-3.137
2026-06-01 16:19:19.370,2214298826,43370,2,0.97534,-0.04004,-0.36206,-15.58,-3.847,10.366
2026-06-01 16:19:19.570,2214299026,43570,1,0.98828,0.12793,0.46191,-3.267,-2.947,1.405
2026-06-01 16:19:19.570,2214299026,43570,2,0.98657,-0.04834,-0.3689,-3.794,-0.198,5.053
2026-06-01 16:19:19.770,2214299226,43770,1,0.98657,0.11914,0.4541,6.947,1.969,2.321
2026-06-01 16:19:19.770,2214299226,43770,2,0.97827,-0.04956,-0.37598,4.55,-1.611,-1.374
2026-06-01 16:19:20.970,2214300426,43970,1,0.9856,0.15234,0.44482,5.626,3.16,1.359
2026-06-01 16:19:20.970,2214300426,43970,2,0.97632,-0.04102,-0.38428,4.763,-1.534,-4.191
2026-06-01 16:19:20.170,2214299626,44170,1,0.9873,0.13232,0.44556,4.046,2.817,0.626
2026-06-01 16:19:20.170,2214299626,44170,2,0.979,-0.02881,-0.37451,4.359,-0.115,-5.061
2026-06-01 16:19:20.370,2214299826,44370,1,0.97144,0.14575,0.46289,5.427,1.718,-0.756
2026-06-01 16:19:20.370,2214299826,44370,2,0.97119,-0.02295,-0.36401,2.985,-1.771,-3.458
2026-06-01 16:19:20.570,2214300026,44570,1,0.97607,0.16602,0.46045,0.542,1.206,-2.756
2026-06-01 16:19:20.570,2214300026,44570,2,0.98169,-0.00366,-0.38599,-4.015,-1.366,-2.977
2026-06-01 16:19:20.797,2214300253,44797,1,0.97827,0.16772,0.45972,-6.183,3.679,-6.626
2026-06-01 16:19:20.797,2214300253,44797,2,0.98999,0.00732,-0.37891,-6.145,4.908,-0.221
2026-06-01 16:19:21.997,2214301453,44997,1,0.95459,0.18018,0.47974,-2.702,10.466,-5.878
2026-06-01 16:19:21.997,2214301453,44997,2,0.94995,0.04785,-0.36914,-6.237,5.336,-4.985
2026-06-01 16:19:21.197,2214300653,45197,1,0.95898,0.24316,0.48169,-21.504,-4.45,-8.336
2026-06-01 16:19:21.197,2214300653,45197,2,0.96362,0.06592,-0.42212,-33.649,-6.107,9.618
2026-06-01 16:19:21.397,2214300853,45397,1,0.96875,0.21069,0.46191,-25.305,-9.55,-15.344
2026-06-01 16:19:21.397,2214300853,45397,2,0.98901,0.01221,-0.42017,-29.084,-4.573,25.863
2026-06-01 16:19:21.597,2214301053,45597,1,1.00293,0.15527,0.48633,2.344,10.618,3.534
2026-06-01 16:19:21.597,2214301053,45597,2,0.93408,-0.01245,-0.36206,4.985,3.565,-0.733
2026-06-01 16:19:21.797,2214301253,45797,1,0.95435,0.14819,0.46655,4.588,-0.275,7.603
2026-06-01 16:19:21.797,2214301253,45797,2,0.95874,-0.00586,-0.36865,8.252,-2.763,5.824
2026-06-01 16:19:22.997,2214302453,45997,1,0.97949,0.11206,0.45508,-7.87,0.382,2.786
2026-06-01 16:19:22.997,2214302453,45997,2,0.9585,-0.06543,-0.37256,3.382,-2.115,5.802
2026-06-01 16:19:22.197,2214301653,46197,1,1.00732,0.09692,0.45386,14.069,-0.443,10.328
2026-06-01 16:19:22.197,2214301653,46197,2,0.99341,-0.09912,-0.35303,22.618,-0.328,-2.061
2026-06-01 16:19:22.397,2214301853,46397,1,0.97656,0.12695,0.45288,18.565,3.985,8.725
2026-06-01 16:19:22.397,2214301853,46397,2,0.98853,-0.06006,-0.36523,12.084,-0.519,-0.351
2026-06-01 16:19:22.597,2214302053,46597,1,0.98535,0.11035,0.45386,2.145,2.031,1.359
2026-06-01 16:19:22.597,2214302053,46597,2,0.98804,-0.07397,-0.36768,-2.321,-0.527,0.496
2026-06-01 16:19:22.797,2214302253,46797,1,0.99023,0.10425,0.44727,1.038,1.664,1.427
2026-06-01 16:19:22.797,2214302253,46797,2,0.97998,-0.08521,-0.36987,0.031,0.214,0.023
2026-06-01 16:19:23.997,2214303453,46997,1,0.99512,0.0979,0.45215,1.817,1.817,1.053
2026-06-01 16:19:23.997,2214303453,46997,2,0.979,-0.08105,-0.36621,-0.122,0.313,1.359
2026-06-01 16:19:23.197,2214302653,47197,1,0.98633,0.0979,0.44946,-0.557,2.771,-0.031
2026-06-01 16:19:23.197,2214302653,47197,2,0.97998,-0.09644,-0.35669,-4.244,1.137,0.679
2026-06-01 16:19:23.397,2214302853,47397,1,0.9917,0.10278,0.4436,-1.603,1.527,-0.802
2026-06-01 16:19:23.397,2214302853,47397,2,0.99609,-0.08374,-0.3623,-3.725,1.496,1.672
2026-06-01 16:19:23.597,2214303053,47597,1,0.9873,0.09546,0.45435,-0.214,1.962,-0.336
2026-06-01 16:19:23.597,2214303053,47597,2,0.96826,-0.09131,-0.37256,-3.58,-1.603,1.275
2026-06-01 16:19:23.797,2214303253,47797,1,0.9978,0.09277,0.44043,2.427,1.13,0.611
2026-06-01 16:19:23.797,2214303253,47797,2,0.99683,-0.07935,-0.36157,2.489,1.733,0.634
2026-06-01 16:19:24.997,2214304453,47997,1,0.99414,0.10571,0.44214,-1.786,1.763,0.221
2026-06-01 16:19:24.997,2214304453,47997,2,0.98486,-0.07739,-0.36719,-2.557,2.084,1.901
2026-06-01 16:19:24.197,2214303653,48197,1,0.98389,0.10059,0.45776,-12.931,0.992,-2.634
2026-06-01 16:19:24.197,2214303653,48197,2,0.98438,-0.08862,-0.36841,-17.344,2.137,7.771
2026-06-01 16:19:24.397,2214303853,48397,1,0.99658,0.07544,0.44751,-20.893,-1.786,-6.542
2026-06-01 16:19:24.397,2214303853,48397,2,0.979,-0.11646,-0.35107,-23.924,4.267,12.863
2026-06-01 16:19:24.597,2214304053,48597,1,0.98975,0.05762,0.4458,-22.71,-3.015,-8.74
2026-06-01 16:19:24.597,2214304053,48597,2,0.97266,-0.15039,-0.36987,-30.718,-1.611,8.412
2026-06-01 16:19:24.797,2214304253,48797,1,1.00659,0.07056,0.42627,-14.954,-0.321,-7.069
2026-06-01 16:19:24.797,2214304253,48797,2,0.99146,-0.14307,-0.36792,-19.046,3.183,7.214
2026-06-01 16:19:25.997,2214305453,48997,1,0.99878,0.07666,0.43359,-17.794,2.878,-7.015
2026-06-01 16:19:25.997,2214305453,48997,2,0.96289,-0.13159,-0.3623,-22.809,6.557,14.122
2026-06-01T16:19:25.852951,,,,,,,,,
2026-06-01 16:19:25.197,2214304653,49197,1,1.00732,0.05737,0.45923,-21.359,5.168,-12.908
2026-06-01 16:19:25.197,2214304653,49197,2,0.97925,-0.17383,-0.3208,-18.015,18.435,7.649
2026-06-01 16:19:25.405,2214304861,49405,1,0.98389,0.09033,0.45776,-22.359,15.168,-3.802
2026-06-01 16:19:25.405,2214304861,49405,2,0.9895,-0.16089,-0.27832,-24.206,25.0,14.847
2026-06-01 16:19:25.605,2214305061,49605,1,0.99365,-0.10205,0.57715,-3.221,3.511,-4.893
2026-06-01 16:19:25.605,2214305061,49605,2,0.96045,-0.21167,-0.29736,-2.603,-6.985,-17.656
2026-06-01 16:19:25.805,2214305261,49805,1,0.91943,0.05225,0.52319,6.0,-2.435,-8.634
2026-06-01 16:19:25.805,2214305261,49805,2,0.91895,-0.22949,-0.28247,-11.435,-10.107,5.542
2026-06-01 16:19:26.005,2214305461,50005,1,0.94312,0.09717,0.46216,-16.221,-4.298,-9.046
2026-06-01 16:19:26.005,2214305461,50005,2,0.94849,-0.14429,-0.32837,-18.0,-2.573,8.214
2026-06-01 16:19:26.205,2214305661,50205,1,0.96509,0.11426,0.49194,-30.748,-12.16,-10.29
2026-06-01 16:19:26.205,2214305661,50205,2,0.98657,-0.09888,-0.31763,-26.725,-2.718,7.275
2026-06-01 16:19:26.405,2214305861,50405,1,0.99341,0.21069,0.47778,-49.13,-5.145,-16.977
2026-06-01 16:19:26.405,2214305861,50405,2,1.02686,0.00171,-0.39771,-57.405,-1.962,3.336
2026-06-01 16:19:26.605,2214306061,50605,1,0.98804,0.17871,0.41602,-53.153,-3.618,-38.069
2026-06-01 16:19:26.605,2214306061,50605,2,0.96729,-0.05737,-0.38647,-68.496,8.275,20.145
2026-06-01 16:19:26.805,2214306261,50805,1,1.01758,0.21069,0.44678,-54.908,1.603,-26.649
2026-06-01 16:19:26.805,2214306261,50805,2,0.99414,-0.08081,-0.39917,-79.656,9.74,10.519
2026-06-01 16:19:27.005,2214306461,51005,1,0.93042,0.21484,0.49023,-39.313,-0.55,-19.763
2026-06-01 16:19:27.005,2214306461,51005,2,0.94556,-0.05322,-0.40552,-52.824,4.298,15.305
2026-06-01 16:19:27.205,2214306661,51205,1,0.91943,0.10962,0.49146,-13.305,14.015,0.985
2026-06-01 16:19:27.205,2214306661,51205,2,0.96851,-0.05859,-0.33032,24.221,1.412,4.634
2026-06-01 16:19:27.405,2214306861,51405,1,1.07373,0.13281,0.5896,15.702,-0.45,16.527
2026-06-01 16:19:27.405,2214306861,51405,2,0.99805,-0.11401,-0.2981,48.191,-9.237,-10.45
2026-06-01 16:19:27.605,2214307061,51605,1,0.93091,0.09326,0.45435,29.794,0.641,12.748
2026-06-01 16:19:27.605,2214307061,51605,2,0.95776,-0.09131,-0.30859,41.679,-10.076,-14.557
2026-06-01 16:19:27.805,2214307261,51805,1,0.99683,0.1355,0.49878,8.916,0.405,3.237
2026-06-01 16:19:27.805,2214307261,51805,2,1.02783,-0.13037,-0.31372,-11.794,3.756,7.702
2026-06-01 16:19:28.005,2214307461,52005,1,0.97168,0.04639,0.48706,3.557,8.099,4.42
2026-06-01 16:19:28.005,2214307461,52005,2,1.021,-0.30249,-0.28149,-9.962,1.504,14.229
2026-06-01 16:19:28.205,2214307661,52205,1,0.94287,0.05054,0.51294,34.351,7.183,33.26
2026-06-01 16:19:28.205,2214307661,52205,2,0.96582,-0.12622,-0.31641,39.855,-8.977,-8.687
2026-06-01 16:19:28.405,2214307861,52405,1,1.00195,0.0083,0.49438,18.664,-0.756,24.481
2026-06-01 16:19:28.405,2214307861,52405,2,1.00635,-0.18091,-0.34766,22.29,-5.405,10.565
2026-06-01 16:19:28.605,2214308061,52605,1,0.96777,-0.06909,0.4563,18.321,2.481,31.55
2026-06-01 16:19:28.605,2214308061,52605,2,0.97168,-0.26904,-0.33667,29.557,-1.908,9.58
2026-06-01 16:19:28.805,2214308261,52805,1,1.00537,-0.198,0.53076,19.809,7.863,23.557
2026-06-01 16:19:28.805,2214308261,52805,2,1.00195,-0.31128,-0.29443,33.565,10.878,-4.321
2026-06-01 16:19:29.005,2214308461,53005,1,0.89233,-0.09058,0.56152,25.122,29.145,24.038
2026-06-01 16:19:29.005,2214308461,53005,2,0.95923,-0.17065,-0.25732,18.282,10.427,2.511
2026-06-01 16:19:29.205,2214308661,53205,1,0.92529,-0.14624,0.58179,-8.458,5.893,-4.931
2026-06-01 16:19:29.205,2214308661,53205,2,0.98413,-0.23315,-0.19507,-15.855,2.763,3.221
2026-06-01 16:19:29.405,2214308861,53405,1,0.95288,-0.14771,0.62354,-16.206,5.87,-20.214
2026-06-01 16:19:29.405,2214308861,53405,2,1.00635,-0.22925,-0.15967,-29.206,9.153,-0.267
2026-06-01 16:19:29.605,2214309061,53605,1,0.81274,-0.14331,0.64966,-21.634,9.313,-23.237
2026-06-01 16:19:29.605,2214309061,53605,2,0.87793,-0.14526,-0.11133,-24.031,2.053,-18.718
2026-06-01 16:19:29.805,2214309261,53805,1,0.98535,-0.08398,0.71729,-10.275,-4.748,-38.046
2026-06-01 16:19:29.805,2214309261,53805,2,1.27954,-0.06494,-0.14258,-24.435,6.656,-35.527
2026-06-01 16:19:30.005,2214309461,54005,1,1.0083,0.1394,0.65234,-24.092,1.756,-52.924
2026-06-01 16:19:30.005,2214309461,54005,2,1.12524,-0.10938,-0.3042,-57.427,5.336,14.779
2026-06-01 16:19:30.205,2214309661,54205,1,0.86279,0.01685,0.52783,-32.008,-27.534,-14.802
2026-06-01 16:19:30.205,2214309661,54205,2,0.94678,-0.08374,-0.27612,-26.489,-21.733,10.794
2026-06-01 16:19:30.405,2214309861,54405,1,0.95142,0.03198,0.54297,-3.672,-15.496,-6.252
2026-06-01 16:19:30.405,2214309861,54405,2,1.03955,-0.1897,-0.33765,-23.511,-25.023,6.817
2026-06-01 16:19:30.722,2214310178,54722,1,0.96509,-0.01489,0.43579,75.855,23.527,28.908
2026-06-01 16:19:30.722,2214310178,54722,2,1.05029,-0.15527,-0.27173,101.947,11.282,-50.977
2026-06-01 16:19:31.922,2214311378,54922,1,0.88013,0.10229,0.44946,20.687,21.42,18.969
2026-06-01 16:19:31.922,2214311378,54922,2,0.99341,-0.08276,-0.24585,11.863,-3.221,-5.183
2026-06-01 16:19:31.122,2214310578,55122,1,1.0625,0.09912,0.48608,4.878,7.679,-4.328
2026-06-01 16:19:31.122,2214310578,55122,2,0.9895,-0.05469,-0.271,18.267,18.611,-15.031
2026-06-01 16:19:31.322,2214310778,55322,1,0.90576,-0.00928,0.55273,24.878,-0.145,-4.656
2026-06-01 16:19:31.322,2214310778,55322,2,0.96851,-0.22705,-0.37964,27.221,-16.107,6.718
2026-06-01 16:19:31.522,2214310978,55522,1,0.95361,0.04028,0.43994,18.328,-21.847,11.046
2026-06-01 16:19:31.522,2214310978,55522,2,1.18408,-0.0874,-0.30908,5.214,-25.992,4.389
2026-06-01 16:19:31.722,2214311178,55722,1,0.94751,0.11694,0.42212,-22.519,-21.351,-17.198
2026-06-01 16:19:31.722,2214311178,55722,2,0.93188,-0.17822,-0.31567,-6.42,7.137,24.931
2026-06-01 16:19:32.074,2214311530,56074,1,0.99561,0.12354,0.42456,-5.519,-10.176,4.099
2026-06-01 16:19:32.074,2214311530,56074,2,1.01831,-0.14893,-0.3252,-7.351,25.595,0.351
2026-06-01 16:19:32.306,2214311762,56306,1,1.09253,0.17407,0.38013,-21.076,7.023,-11.947
2026-06-01 16:19:32.306,2214311762,56306,2,0.96362,-0.05737,-0.41821,-48.42,9.313,-14.015
2026-06-01 16:19:32.506,2214311962,56506,1,0.91187,0.13745,0.42896,-31.847,17.527,-18.931
2026-06-01 16:19:32.506,2214311962,56506,2,0.89697,-0.02344,-0.38721,-30.863,15.481,-0.137
2026-06-01 16:19:32.722,2214312178,56721,1,0.95337,0.16968,0.49243,-24.397,-7.656,-14.015
2026-06-01 16:19:32.722,2214312178,56721,2,1.09863,-0.14355,-0.29883,-26.053,1.176,23.916
2026-06-01 16:19:33.962,2214313418,56962,1,0.95337,0.09644,0.49463,-5.634,-0.405,6.267
2026-06-01 16:19:33.962,2214313418,56962,2,0.96143,-0.17065,-0.22363,-16.725,2.305,16.031
2026-06-01 16:19:33.162,2214312618,57162,1,0.95264,0.01343,0.53833,1.702,-7.099,23.481
2026-06-01 16:19:33.162,2214312618,57162,2,0.96509,-0.05005,-0.20654,15.527,-6.626,-12.496
2026-06-01 16:19:33.369,2214312825,57368,1,0.97778,-0.05981,0.61353,1.718,5.901,1.718
2026-06-01 16:19:33.369,2214312825,57368,2,0.99927,-0.17432,-0.26929,16.115,7.901,13.183
2026-06-01 16:19:33.568,2214313024,57568,1,0.93311,-0.06616,0.48877,34.573,9.435,9.603
2026-06-01 16:19:33.568,2214313024,57568,2,0.99121,-0.25195,-0.26978,37.42,0.321,-16.802
2026-06-01 16:19:33.768,2214313224,57768,1,0.99146,0.00195,0.48682,52.176,10.893,19.824
2026-06-01 16:19:33.768,2214313224,57768,2,0.97021,-0.12329,-0.30127,47.107,1.679,-21.168
2026-06-01 16:19:34.968,2214314424,57968,1,0.93237,0.00977,0.48584,37.878,3.0,8.015
2026-06-01 16:19:34.968,2214314424,57968,2,1.27417,-0.13379,-0.36011,31.435,-25.275,-2.084
2026-06-01 16:19:34.168,2214313624,58168,1,0.99316,0.10791,0.52026,5.16,2.099,-1.382
2026-06-01 16:19:34.168,2214313624,58168,2,0.96631,-0.08057,-0.20532,-7.672,21.771,7.916
2026-06-01 16:19:34.368,2214313824,58368,1,0.94678,0.09619,0.53833,-17.802,-2.985,-6.832
2026-06-01 16:19:34.368,2214313824,58368,2,0.98242,-0.02563,-0.2478,-3.45,1.649,4.519
2026-06-01 16:19:34.581,2214314037,58580,1,0.97681,0.18774,0.54883,-1.511,1.214,-13.74
2026-06-01 16:19:34.581,2214314037,58580,2,1.05054,-0.04712,-0.32373,-21.748,6.221,5.466
2026-06-01 16:19:34.780,2214314236,58780,1,0.90527,0.18921,0.47388,-28.702,-5.55,-11.802
2026-06-01 16:19:34.780,2214314236,58780,2,1.24365,0.03882,-0.31445,-51.038,2.313,4.985
2026-06-01 16:19:35.980,2214315436,58980,1,0.98901,0.11938,0.49683,-49.16,-1.42,-26.267
2026-06-01 16:19:35.980,2214315436,58980,2,0.9856,-0.16138,-0.25708,-53.588,-3.298,9.191
2026-06-01 16:19:35.180,2214314636,59180,1,0.95752,0.03955,0.50024,-15.573,5.405,-9.229
2026-06-01 16:19:35.180,2214314636,59180,2,0.94922,-0.11279,-0.27979,-8.702,5.122,-10.679
2026-06-01 16:19:35.380,2214314836,59380,1,0.94971,0.11694,0.51416,-1.466,-2.656,-6.489
2026-06-01 16:19:35.380,2214314836,59380,2,0.99536,-0.11182,-0.29785,7.786,-1.779,-0.977
2026-06-01 16:19:35.580,2214315036,59580,1,0.97949,0.13208,0.49194,15.725,3.45,2.679
2026-06-01 16:19:35.580,2214315036,59580,2,0.99487,-0.10913,-0.31494,22.718,-4.985,-7.168
2026-06-01 16:19:35.780,2214315236,59780,1,0.99268,0.10815,0.47583,43.573,13.817,8.779
2026-06-01 16:19:35.780,2214315236,59780,2,1.03174,-0.06494,-0.32324,33.809,6.817,-32.176
2026-06-01 16:19:36.980,2214316436,59980,1,0.96387,0.25854,0.45923,48.672,32.595,14.183
2026-06-01 16:19:36.980,2214316436,59980,2,0.97461,0.07007,-0.26025,65.053,24.855,-27.115
2026-06-01 16:19:36.180,2214315636,60180,1,0.83447,0.30005,0.61279,35.695,22.053,12.87
2026-06-01 16:19:36.180,2214315636,60180,2,0.93408,0.14868,-0.28638,41.985,6.336,-17.382
2026-06-01 16:19:36.380,2214315836,60380,1,0.87231,0.31738,0.58545,22.168,-10.191,21.87
2026-06-01 16:19:36.380,2214315836,60380,2,0.98926,0.11938,-0.30884,28.046,-16.412,11.351
2026-06-01 16:19:36.586,2214316042,60586,1,1.04712,0.25342,0.49854,34.885,1.237,14.58
2026-06-01 16:19:36.586,2214316042,60586,2,1.07153,-0.03491,-0.29663,22.511,8.038,8.221
2026-06-01 16:19:36.786,2214316242,60786,1,0.93457,0.21826,0.52344,42.702,17.221,26.015
2026-06-01 16:19:36.786,2214316242,60786,2,1.03345,-0.00903,-0.30127,35.45,14.71,-6.145
2026-06-01 16:19:37.986,2214317442,60986,1,0.90015,0.11792,0.53735,1.443,21.038,24.443
2026-06-01 16:19:37.986,2214317442,60986,2,0.97998,-0.07983,-0.24976,-0.076,6.023,4.267
2026-06-01 16:19:37.186,2214316642,61186,1,0.98926,0.05713,0.4978,0.267,7.458,-3.023
2026-06-01 16:19:37.186,2214316642,61186,2,0.98047,-0.15234,-0.29883,-9.771,0.198,4.069
2026-06-01 16:19:37.386,2214316842,61386,1,1.00708,0.06787,0.44067,-4.168,12.183,1.527
2026-06-01 16:19:37.386,2214316842,61386,2,0.99292,-0.1145,-0.30151,-15.244,28.802,-11.542
2026-06-01 16:19:37.586,2214317042,61586,1,0.93628,0.04688,0.58154,3.145,3.282,-20.099
2026-06-01 16:19:37.586,2214317042,61586,2,1.0896,-0.04199,-0.24414,17.618,-4.588,-21.718
2026-06-01 16:19:37.786,2214317242,61786,1,0.83032,0.17896,0.57764,50.771,23.252,22.176
2026-06-01 16:19:37.786,2214317242,61786,2,1.02344,0.15283,-0.24121,79.115,-2.443,-9.748
2026-06-01 16:19:38.986,2214318442,61986,1,0.84937,0.22607,0.63501,69.313,6.015,31.702
2026-06-01 16:19:38.986,2214318442,61986,2,0.97998,-0.02002,-0.24805,78.206,-12.656,-5.122
2026-06-01 16:19:38.186,2214317642,62186,1,0.99365,0.17017,0.49146,66.763,1.26,44.58
2026-06-01 16:19:38.186,2214317642,62186,2,1.03003,0.10059,-0.3374,62.779,-1.351,-25.229
2026-06-01 16:19:38.394,2214317850,62393,1,0.92896,0.28174,0.53247,9.863,8.145,8.092
2026-06-01 16:19:38.394,2214317850,62393,2,0.99097,0.18481,-0.34717,-8.405,9.878,2.847
2026-06-01 16:19:38.593,2214318049,62593,1,0.93335,0.23779,0.56079,-25.786,0.786,-16.351
2026-06-01 16:19:38.593,2214318049,62593,2,1.00757,0.12817,-0.25708,-39.214,-8.878,-8.557
2026-06-01 16:19:38.793,2214318249,62793,1,0.85571,0.23267,0.56567,-20.634,-10.679,-8.206
2026-06-01 16:19:38.793,2214318249,62793,2,0.98486,0.02563,-0.26587,-12.275,-2.298,27.664
2026-06-01 16:19:39.993,2214319449,62993,1,0.93042,0.18481,0.52612,-15.443,-7.718,-1.679
2026-06-01 16:19:39.993,2214319449,62993,2,0.99609,0.03345,-0.27148,-20.924,-1.595,29.023
2026-06-01 16:19:39.193,2214318649,63193,1,0.979,0.14941,0.52368,-8.443,-1.885,5.214
2026-06-01 16:19:39.193,2214318649,63193,2,0.93457,-0.00073,-0.34229,10.588,-14.947,-2.794
2026-06-01 16:19:39.393,2214318849,63393,1,0.92896,0.15649,0.50684,5.496,3.718,11.931
2026-06-01 16:19:39.393,2214318849,63393,2,0.98779,0.00781,-0.29126,17.58,-8.092,-13.107
2026-06-01 16:19:39.593,2214319049,63593,1,0.97852,0.07837,0.53174,38.786,12.718,15.374
2026-06-01 16:19:39.593,2214319049,63593,2,0.99536,-0.11108,-0.31006,45.214,-4.58,-11.817
2026-06-01 16:19:39.793,2214319249,63793,1,0.97803,0.02148,0.46948,66.618,9.351,35.992
2026-06-01 16:19:39.793,2214319249,63793,2,1.00488,-0.04468,-0.29907,79.748,-2.595,-40.519
2026-06-01 16:19:40.993,2214320449,63993,1,0.92896,-0.05225,0.52319,77.336,25.313,33.046
2026-06-01 16:19:40.993,2214320449,63993,2,1.07373,-0.20679,-0.27661,108.893,7.153,-16.611
2026-06-01 16:19:40.193,2214319649,64193,1,0.95752,-0.06494,0.49854,113.916,44.069,74.733
2026-06-01 16:19:40.193,2214319649,64193,2,0.84326,-0.23853,-0.36841,171.42,3.168,-31.679
2026-06-01 16:19:40.393,2214319849,64393,1,1.07739,0.1521,0.42773,172.313,58.725,97.153
2026-06-01 16:19:40.393,2214319849,64393,2,0.91528,0.09839,-0.24414,182.763,56.954,-75.092
2026-06-01 16:19:40.593,2214320049,64593,1,0.73682,0.40552,0.74146,134.611,40.992,69.015
2026-06-01 16:19:40.593,2214320049,64593,2,0.93433,0.22095,-0.27563,130.489,15.221,15.099
2026-06-01 16:19:40.793,2214320249,64793,1,0.83472,0.25073,0.78687,78.412,-14.031,69.588
2026-06-01 16:19:40.793,2214320249,64793,2,1.01172,0.10938,-0.13306,75.939,-28.435,25.87
2026-06-01 16:19:41.993,2214321449,64993,1,0.98779,0.13794,0.54004,87.153,12.924,53.015
2026-06-01 16:19:41.993,2214321449,64993,2,0.97437,-0.05859,-0.28076,78.053,-26.534,9.466
2026-06-01 16:19:41.193,2214320649,65193,1,0.93115,0.18359,0.47412,63.718,28.298,37.374
2026-06-01 16:19:41.193,2214320649,65193,2,0.93872,0.00635,-0.31274,65.0,2.985,-12.466
2026-06-01 16:19:41.393,2214320849,65393,1,0.96484,0.18433,0.52319,4.802,6.939,-4.71
2026-06-01 16:19:41.393,2214320849,65393,2,0.99634,-0.12793,-0.32544,-31.809,1.16,5.962
2026-06-01 16:19:41.593,2214321049,65593,1,0.92261,0.14795,0.46191,-1.542,-17.221,-5.099
2026-06-01 16:19:41.593,2214321049,65593,2,1.37036,0.13892,-0.43921,59.672,15.664,-15.191
2026-06-01 16:19:41.793,2214321249,65793,1,0.76074,0.29175,0.49683,-57.168,2.26,-33.412
2026-06-01 16:19:41.793,2214321249,65793,2,0.92944,-0.21973,-0.01343,-86.122,30.611,93.748
2026-06-01 16:19:42.993,2214322449,65993,1,0.8623,0.20313,0.62378,-25.962,16.359,-2.641
2026-06-01 16:19:42.993,2214322449,65993,2,0.97876,-0.07715,-0.24658,-62.634,0.977,-10.153
2026-06-01 16:19:42.193,2214321649,66193,1,0.89282,0.16943,0.51514,-60.496,-4.641,-32.863
2026-06-01 16:19:42.193,2214321649,66193,2,0.89063,-0.09497,-0.35815,-36.13,7.344,0.397
2026-06-01 16:19:42.393,2214321849,66393,1,0.9646,0.26953,0.52637,-11.031,-10.626,-16.0
2026-06-01 16:19:42.393,2214321849,66393,2,1.21973,-0.198,-0.26196,-38.26,8.412,22.168
2026-06-01 16:19:42.593,2214322049,66593,1,0.89478,-0.00195,0.60498,26.672,3.656,31.595
2026-06-01 16:19:42.593,2214322049,66593,2,0.92285,0.04907,-0.10718,42.908,-20.084,-34.74
2026-06-01 16:19:42.812,2214322268,66812,1,0.98535,0.03638,0.59253,-11.275,7.252,-5.664
2026-06-01 16:19:42.812,2214322268,66812,2,0.98218,-0.19849,-0.26196,12.305,6.832,15.656
2026-06-01 16:19:43.012,2214322468,67012,1,0.93335,-0.00903,0.47656,36.267,21.74,12.015
2026-06-01 16:19:43.012,2214322468,67012,2,0.92725,-0.15894,-0.375,68.977,-3.168,-22.321
2026-06-01 16:19:43.212,2214322668,67212,1,0.88379,0.05103,0.43872,63.618,22.87,18.092
2026-06-01 16:19:43.212,2214322668,67212,2,1.24316,-0.01855,-0.30933,90.374,-14.038,-22.763
2026-06-01 16:19:43.412,2214322868,67412,1,0.94458,0.36084,0.6438,17.786,25.954,2.527
2026-06-01 16:19:43.412,2214322868,67412,2,1.00146,0.20801,-0.02905,43.435,17.031,14.985
2026-06-01 16:19:43.612,2214323068,67612,1,0.79224,0.27734,0.57397,52.336,43.244,19.687
2026-06-01 16:19:43.612,2214323068,67612,2,0.93896,0.13013,-0.23682,51.985,19.092,-56.122
2026-06-01 16:19:43.812,2214323268,67812,1,0.81616,0.36987,0.55566,11.679,21.145,8.145
2026-06-01 16:19:43.812,2214323268,67812,2,0.89917,0.16675,-0.20288,-31.26,10.74,6.58
2026-06-01 16:19:44.012,2214323468,68012,1,1.1499,0.28784,0.68042,13.038,-57.977,21.412
2026-06-01 16:19:44.012,2214323468,68012,2,1.51514,-0.04468,0.06445,-12.626,-0.26,69.87
2026-06-01 16:19:44.212,2214323668,68212,1,0.65576,0.2959,0.70313,81.084,-20.504,53.374
2026-06-01 16:19:44.212,2214323668,68212,2,1.00195,0.26392,-0.12354,84.076,7.603,24.221
2026-06-01 16:19:44.412,2214323868,68412,1,0.86475,0.15869,0.60059,64.351,4.641,26.924
2026-06-01 16:19:44.412,2214323868,68412,2,1.00195,0.05444,-0.18115,75.092,-5.931,25.115
2026-06-01 16:19:44.612,2214324068,68612,1,0.96045,0.1626,0.53809,49.824,2.725,25.794
2026-06-01 16:19:44.612,2214324068,68612,2,0.96313,0.05273,-0.31177,54.603,-16.908,-16.641
2026-06-01 16:19:44.812,2214324268,68812,1,0.96948,0.20947,0.42554,55.031,1.718,3.603
2026-06-01 16:19:44.812,2214324268,68812,2,0.94214,0.05859,-0.38843,38.313,-14.656,-17.435
2026-06-01 16:19:45.012,2214324468,69012,1,0.99707,0.27612,0.43286,7.458,19.672,-5.107
2026-06-01 16:19:45.012,2214324468,69012,2,1.06152,0.08325,-0.33984,15.076,19.496,-6.084
2026-06-01 16:19:45.212,2214324668,69212,1,0.86743,0.29395,0.56396,-15.519,40.878,-17.542
2026-06-01 16:19:45.212,2214324668,69212,2,0.94971,0.052,-0.15698,-14.55,31.359,-2.908
2026-06-01 16:19:45.412,2214324868,69412,1,0.80981,0.30811,0.65552,12.489,3.511,-6.947
2026-06-01 16:19:45.412,2214324868,69412,2,1.04199,0.10425,-0.23633,2.473,-9.458,2.183
2026-06-01 16:19:45.612,2214325068,69612,1,0.82495,0.30981,0.58936,-7.595,-0.168,-0.878
2026-06-01 16:19:45.612,2214325068,69612,2,1.00952,0.10547,-0.24414,2.924,5.267,5.16
2026-06-01 16:19:45.812,2214325268,69812,1,0.90527,0.31055,0.59424,1.595,0.344,-0.786
2026-06-01 16:19:45.812,2214325268,69812,2,1.03076,0.07153,-0.26001,0.267,3.069,0.496
2026-06-01 16:19:46.012,2214325468,70012,1,0.86743,0.28491,0.59717,-3.382,2.267,2.099
2026-06-01 16:19:46.012,2214325468,70012,2,1.00269,0.08691,-0.23413,-4.71,-0.55,2.313
2026-06-01 16:19:46.212,2214325668,70212,1,0.875,0.27954,0.60327,-5.55,2.779,1.695
2026-06-01 16:19:46.212,2214325668,70212,2,1.02124,0.05322,-0.22559,-7.924,2.695,3.534
2026-06-01 16:19:46.412,2214325868,70412,1,0.89429,0.26074,0.61475,-5.733,2.443,6.771
2026-06-01 16:19:46.412,2214325868,70412,2,1.03931,0.05835,-0.23755,-4.519,4.405,10.962
2026-06-01 16:19:46.612,2214326068,70612,1,0.87012,0.19971,0.62207,-10.847,-0.336,6.748
2026-06-01 16:19:46.612,2214326068,70612,2,1.00708,0.00659,-0.22998,-14.809,1.069,14.282
2026-06-01 16:19:46.812,2214326268,70812,1,0.89136,0.16626,0.61133,-14.176,-2.481,3.282
2026-06-01 16:19:46.812,2214326268,70812,2,0.99146,-0.01709,-0.21338,-12.985,0.336,14.252
2026-06-01 16:19:47.012,2214326468,71012,1,0.89014,0.15771,0.60547,-7.061,-5.588,-0.031
2026-06-01 16:19:47.012,2214326468,71012,2,0.99414,-0.03296,-0.22485,-9.198,-6.626,9.679
2026-06-01 16:19:47.212,2214326668,71212,1,0.91138,0.14233,0.60986,-7.328,-10.137,-6.031
2026-06-01 16:19:47.212,2214326668,71212,2,1.04248,-0.09058,-0.24658,-17.863,-9.649,6.221
2026-06-01 16:19:47.412,2214326868,71412,1,0.95239,0.13647,0.58789,-6.412,-6.13,-1.725
2026-06-01 16:19:47.412,2214326868,71412,2,1.04663,-0.08496,-0.27734,-0.603,1.221,9.794
2026-06-01 16:19:47.612,2214327068,71612,1,0.9314,0.14746,0.56201,-1.473,2.153,-0.45
2026-06-01 16:19:47.612,2214327068,71612,2,0.979,-0.07666,-0.29102,0.832,3.473,1.58
2026-06-01 16:19:47.812,2214327268,71812,1,0.93872,0.13159,0.54688,-4.145,0.466,-4.13
2026-06-01 16:19:47.812,2214327268,71812,2,1.00586,-0.08813,-0.27148,-7.412,3.275,-1.435
2026-06-01 16:19:48.120,2214327576,72120,1,0.94189,0.1604,0.57129,-3.672,1.26,-8.466
2026-06-01 16:19:48.120,2214327576,72120,2,1.01758,-0.07471,-0.27515,-2.221,3.313,-2.382
2026-06-01 16:19:48.320,2214327776,72320,1,0.9231,0.14233,0.55054,8.244,7.382,1.702
2026-06-01 16:19:48.320,2214327776,72320,2,1.00708,-0.146,-0.27197,8.214,3.13,1.198
2026-06-01 16:19:48.520,2214327976,72520,1,0.9126,0.14038,0.5835,32.443,6.557,11.977
2026-06-01 16:19:48.520,2214327976,72520,2,0.99878,-0.10034,-0.25146,33.031,-7.817,-8.473
2026-06-01 16:19:48.720,2214328176,72720,1,0.92407,0.13818,0.56836,35.71,4.26,16.13
2026-06-01 16:19:48.720,2214328176,72720,2,1.02075,-0.05005,-0.25635,42.145,-2.435,-28.756
2026-06-01 16:19:49.920,2214329376,72920,1,0.89429,0.21753,0.60059,27.267,25.015,15.931
2026-06-01 16:19:49.920,2214329376,72920,2,0.95874,0.07397,-0.17676,39.153,12.656,-23.885
2026-06-01 16:19:49.120,2214328576,73120,1,0.8916,0.25024,0.60522,21.298,15.809,-1.649
2026-06-01 16:19:49.120,2214328576,73120,2,0.96851,0.10449,-0.26953,23.863,8.824,-2.214
2026-06-01 16:19:49.320,2214328776,73320,1,0.85742,0.28735,0.56592,5.84,-3.748,-11.885
2026-06-01 16:19:49.320,2214328776,73320,2,1.00415,0.02319,-0.26685,-25.008,-10.756,9.634
2026-06-01 16:19:49.520,2214328976,73520,1,0.87988,0.24854,0.54272,0.221,-6.45,6.237
2026-06-01 16:19:49.520,2214328976,73520,2,0.97583,-0.06616,-0.28467,0.16,-8.779,5.672
2026-06-01 16:19:49.720,2214329176,73720,1,0.9375,0.1731,0.52856,31.893,-2.718,23.458
2026-06-01 16:19:49.720,2214329176,73720,2,1.00024,-0.03003,-0.30884,66.168,-5.115,-9.427
2026-06-01 16:19:50.920,2214330376,73920,1,0.94849,0.26123,0.48804,21.153,-1.061,19.947
2026-06-01 16:19:50.920,2214330376,73920,2,1.01025,0.01367,-0.33716,24.84,-10.542,-10.573
2026-06-01 16:19:50.120,2214329576,74120,1,0.91577,0.1394,0.54004,11.565,17.42,8.16
2026-06-01 16:19:50.120,2214329576,74120,2,0.97803,-0.0354,-0.29443,18.977,4.573,-7.336
2026-06-01 16:19:50.320,2214329776,74320,1,0.94165,0.22876,0.52759,19.489,8.855,12.053
2026-06-01 16:19:50.320,2214329776,74320,2,0.99243,0.02661,-0.33154,10.718,5.534,5.519
2026-06-01 16:19:50.520,2214329976,74520,1,0.94775,0.20752,0.50854,3.634,-1.702,2.977
2026-06-01 16:19:50.520,2214329976,74520,2,1.00366,-0.00342,-0.29419,-7.969,2.397,12.756
2026-06-01 16:19:50.720,2214330176,74720,1,0.9043,0.11792,0.55054,5.718,8.901,
2026-06-01 16:19:50.720,2214330176,74720,2,0.88623,-0.03589,-0.27344,3.618,0.855,0.824
2026-06-01 16:19:51.920,2214331376,74920,1,0.97241,0.12109,0.5813,-0.023,12.229,3.504
2026-06-01 16:19:51.920,2214331376,74920,2,0.95923,-0.05176,-0.23853,-5.252,12.473,-15.969
2026-06-01 16:19:51.120,2214330576,75120,1,0.96899,0.15527,0.56396,0.107,-0.435,-7.901
2026-06-01 16:19:51.120,2214330576,75120,2,1.03809,-0.05396,-0.10791,3.336,6.954,-12.16
2026-06-01 16:19:51.320,2214330776,75320,1,0.8562,0.21216,0.57715,2.641,15.092,-6.863
2026-06-01 16:19:51.320,2214330776,75320,2,1.0481,-0.01929,-0.12671,-2.023,-0.397,3.366
2026-06-01 16:19:51.520,2214330976,75520,1,0.94775,0.25098,0.57471,0.458,9.672,-0.145
2026-06-01 16:19:51.520,2214330976,75520,2,1.01221,0.00903,-0.22778,-3.977,12.565,-2.55
2026-06-01 16:19:51.720,2214331176,75720,1,0.90259,0.21704,0.57324,-15.183,0.427,-6.718
2026-06-01 16:19:51.720,2214331176,75720,2,0.98926,-0.04175,-0.19653,-33.099,4.313,1.344
2026-06-01 16:19:52.920,2214332376,75920,1,0.90771,0.13599,0.5415,-11.779,5.382,-3.733
2026-06-01 16:19:52.920,2214332376,75920,2,0.99609,-0.04541,-0.17334,-20.275,13.573,-0.275
2026-06-01 16:19:52.120,2214331576,76120,1,0.82031,0.15063,0.66089,7.305,27.977,0.214
2026-06-01 16:19:52.120,2214331576,76120,2,1.07642,-0.04639,-0.10132,23.13,-3.573,0.183
2026-06-01 16:19:52.320,2214331776,76320,1,0.81177,0.19751,0.77808,34.008,15.389,19.511
2026-06-01 16:19:52.320,2214331776,76320,2,0.96313,0.10327,-0.1416,40.282,-18.053,-9.466
2026-06-01 16:19:52.520,2214331976,76520,1,0.90698,0.21411,0.61157,16.305,-31.595,2.786
2026-06-01 16:19:52.520,2214331976,76520,2,0.9563,0.15137,-0.26294,-5.695,8.656,-16.466
2026-06-01 16:19:52.720,2214332176,76720,1,0.87354,0.22656,0.61279,-2.099,2.42,-9.84
2026-06-01 16:19:52.720,2214332176,76720,2,1.05591,0.02905,-0.22559,3.786,10.939,-2.45
2026-06-01 16:19:53.920,2214333376,76920,1,0.89551,0.37549,0.5791,-7.588,-0.969,0.008
2026-06-01 16:19:53.920,2214333376,76920,2,1.01636,0.10425,-0.27319,-16.939,3.198,11.534
2026-06-01 16:19:53.120,2214332576,77120,1,1.10083,0.33008,0.46021,-33.427,-15.679,-22.412
2026-06-01 16:19:53.120,2214332576,77120,2,1.01074,-0.15894,-0.20435,-44.046,26.107,8.969
2026-06-01 16:19:53.320,2214332776,77320,1,0.83789,0.11304,0.73218,-21.55,-20.168,-28.534
2026-06-01 16:19:53.320,2214332776,77320,2,1.09106,-0.07178,-0.1394,-24.237,-29.137,-5.947
2026-06-01 16:19:53.520,2214332976,77520,1,0.82007,0.33203,0.53247,3.16,-21.092,-29.794
2026-06-01 16:19:53.520,2214332976,77520,2,0.96851,0.00317,-0.24731,-7.672,-3.115,21.954
2026-06-01 16:19:53.720,2214333176,77720,1,0.93872,0.125,0.56689,14.427,-2.656,12.802
2026-06-01 16:19:53.720,2214333176,77720,2,1.02393,-0.09302,-0.32227,-5.71,-10.962,-4.74
2026-06-01 16:19:54.920,2214334376,77920,1,1.00098,0.02783,0.53882,-0.687,22.771,15.687
2026-06-01 16:19:54.920,2214334376,77920,2,0.83887,-0.21045,-0.18042,11.023,19.611,-7.985
2026-06-01 16:19:54.120,2214333576,78120,1,0.95605,0.06104,0.56616,17.817,13.191,18.031
2026-06-01 16:19:54.120,2214333576,78120,2,0.99561,-0.05273,-0.24585,42.191,-2.702,-17.443
2026-06-01 16:19:54.320,2214333776,78320,1,0.91187,0.27637,0.53052,13.466,11.473,6.702
2026-06-01 16:19:54.320,2214333776,78320,2,1.04102,0.0542,-0.26294,25.046,11.122,3.893
2026-06-01 16:19:54.520,2214333976,78520,1,0.88965,0.28931,0.55957,-6.71,1.725,-6.87
2026-06-01 16:19:54.520,2214333976,78520,2,1.05273,0.09155,-0.24805,-20.832,10.702,-7.443
2026-06-01 16:19:54.720,2214334176,78720,1,0.85986,0.25854,0.52319,-16.618,-13.603,-23.573
2026-06-01 16:19:54.720,2214334176,78720,2,1.00146,-0.00269,-0.21973,-24.29,3.74,6.725
2026-06-01 16:19:55.920,2214335376,78920,1,0.95898,0.30371,0.48804,5.298,4.924,-11.878
2026-06-01 16:19:55.920,2214335376,78920,2,0.9978,0.02954,-0.34741,27.618,-1.962,-32.496
2026-06-01 16:19:55.120,2214334576,79120,1,0.93188,0.36938,0.48657,49.313,22.718,40.176
2026-06-01 16:19:55.120,2214334576,79120,2,0.99219,0.10547,-0.32837,78.901,10.992,-17.069
2026-06-01 16:19:55.320,2214334776,79320,1,0.8772,0.33984,0.53784,53.939,20.542,46.0
2026-06-01 16:19:55.320,2214334776,79320,2,1.07202,0.12354,-0.3396,48.237,12.0,3.336
2026-06-01 16:19:55.520,2214334976,79520,1,0.91577,0.25439,0.56543,32.626,10.13,21.779
2026-06-01 16:19:55.520,2214334976,79520,2,1.06763,0.02295,-0.31421,32.076,-24.061,-11.115
2026-06-01 16:19:55.720,2214335176,79720,1,0.74463,0.15894,0.59326,44.573,6.061,26.198
2026-06-01 16:19:55.720,2214335176,79720,2,1.04419,0.09326,-0.12622,42.336,0.298,-15.313
2026-06-01 16:19:56.920,2214336376,79920,1,0.8811,0.16016,0.54346,30.008,7.038,7.481
2026-06-01 16:19:56.920,2214336376,79920,2,0.97583,-0.04761,-0.34155,31.626,-1.137,22.756
2026-06-01 16:19:56.120,2214335576,80120,1,0.94263,0.18408,0.43384,31.565,30.618,21.351
2026-06-01 16:19:56.120,2214335576,80120,2,0.9292,-0.05322,-0.2666,19.29,14.947,-3.344
2026-06-01 16:19:56.320,2214335776,80320,1,1.09229,0.22852,0.6604,16.496,6.885,-1.313
2026-06-01 16:19:56.320,2214335776,80320,2,1.15503,-0.1521,-0.06714,16.252,11.015,-0.763
2026-06-01 16:19:56.520,2214335976,80520,1,0.82446,0.28394,0.58374,37.359,20.756,35.198
2026-06-01 16:19:56.520,2214335976,80520,2,0.99634,0.17114,-0.19238,71.885,14.26,-36.695
2026-06-01 16:19:56.720,2214336176,80720,1,0.89355,0.28052,0.50171,32.702,4.557,27.901
2026-06-01 16:19:56.720,2214336176,80720,2,0.93848,0.21899,-0.34985,4.397,-1.618,-10.145
2026-06-01 16:19:57.920,2214337376,80920,1,0.97559,0.28662,0.46924,-15.725,-6.359,-4.824
2026-06-01 16:19:57.920,2214337376,80920,2,1.04932,0.06592,-0.42285,-22.725,24.29,10.244
2026-06-01 16:19:57.120,2214336576,81120,1,1.21216,0.21387,0.66699,-37.519,-31.015,-15.198
2026-06-01 16:19:57.120,2214336576,81120,2,1.1228,-0.1521,-0.17017,-24.733,0.802,35.443
2026-06-01 16:19:57.320,2214336776,81320,1,0.84033,0.13647,0.68799,-11.511,-0.809,-24.557
2026-06-01 16:19:57.320,2214336776,81320,2,1.03149,-0.04688,-0.12329,-9.122,7.626,19.359
2026-06-01 16:19:57.520,2214336976,81520,1,0.93457,0.10596,0.58789,16.901,7.878,-9.145
2026-06-01 16:19:57.520,2214336976,81520,2,0.9834,-0.10742,-0.23682,-18.412,-7.809,18.603
2026-06-01 16:19:57.720,2214337176,81720,1,0.88867,0.02295,0.49121,47.504,-2.855,40.13
2026-06-01 16:19:57.720,2214337176,81720,2,0.97314,-0.03711,-0.43604,95.824,-16.84,-26.397
2026-06-01 16:19:58.920,2214338376,81920,1,0.95044,0.32568,0.65747,45.053,30.786,11.794
2026-06-01 16:19:58.920,2214338376,81920,2,0.93115,-0.21021,-0.1167,82.656,30.481,45.893
2026-06-01 16:19:58.120,2214337576,82120,1,0.86719,0.30542,0.62231,64.939,31.321,34.183
2026-06-01 16:19:58.120,2214337576,82120,2,0.95532,0.11768,-0.25317,45.45,-10.061,-50.366
2026-06-01 16:19:58.320,2214337776,82320,1,0.89917,0.33594,0.56543,13.038,5.916,15.74
2026-06-01 16:19:58.320,2214337776,82320,2,0.97803,0.16968,-0.31934,-5.42,11.916,6.618
2026-06-01 16:19:58.520,2214337976,82520,1,1.12061,0.26855,0.64941,-11.26,-33.382,-6.947
2026-06-01 16:19:58.520,2214337976,82520,2,1.32886,-0.31885,-0.19019,-49.061,10.351,51.542
2026-06-01 16:19:58.720,2214338176,82720,1,0.68311,0.15405,0.55713,-0.779,-2.374,-2.0
2026-06-01 16:19:58.720,2214338176,82720,2,0.93481,0.02515,-0.0083,-32.481,3.832,-3.695
2026-06-01 16:19:59.920,2214339376,82920,1,0.88232,0.10864,0.6416,-30.374,17.74,-24.924
2026-06-01 16:19:59.920,2214339376,82920,2,1.00146,-0.03223,-0.1814,-30.718,32.305,27.069
2026-06-01 16:19:59.120,2214338576,83120,1,0.84375,-0.05908,0.63843,-0.634,-10.718,-6.534
2026-06-01 16:19:59.120,2214338576,83120,2,0.94434,-0.17896,-0.32275,30.496,-38.557,-1.855
2026-06-01 16:19:59.320,2214338776,83320,1,0.96362,0.24658,0.59253,47.344,-9.038,-8.702
2026-06-01 16:19:59.320,2214338776,83320,2,1.11646,-0.14453,-0.16479,19.16,11.214,28.672
2026-06-01 16:19:59.520,2214338976,83520,1,0.85132,0.30884,0.62158,39.336,14.359,25.069
2026-06-01 16:19:59.520,2214338976,83520,2,0.96436,0.28296,-0.27393,62.405,24.969,-17.382
2026-06-01 16:19:59.720,2214339176,83720,1,0.87231,0.31177,0.5686,-3.382,13.931,11.076
2026-06-01 16:19:59.720,2214339176,83720,2,0.94067,0.22046,-0.3374,-8.84,15.443,-4.092
2026-06-01 16:20:00.920,2214340376,83920,1,0.98486,0.302,0.5376,-45.435,1.099,-16.252
2026-06-01 16:20:00.920,2214340376,83920,2,1.0708,0.02124,-0.13477,-62.153,38.565,14.802
2026-06-01 16:20:00.120,2214339576,84120,1,0.92017,0.09912,0.59448,-36.977,23.458,-6.481
2026-06-01 16:20:00.120,2214339576,84120,2,1.06763,-0.15698,-0.04321,-56.359,71.733,-1.405
2026-06-01 16:20:00.320,2214339776,84320,1,0.59912,-0.06055,0.98926,-66.206,63.053,-15.893
2026-06-01 16:20:00.320,2214339776,84320,2,0.89941,0.06079,0.24146,-53.939,60.58,-4.45
2026-06-01 16:20:00.520,2214339976,84520,1,0.52417,-0.23633,0.94434,-49.595,34.962,-27.313
2026-06-01 16:20:00.520,2214339976,84520,2,0.9104,-0.21582,0.40674,-45.603,34.878,-9.366
2026-06-01 16:20:00.720,2214340176,84720,1,0.47852,-0.27563,0.99927,-27.405,25.756,-19.183
2026-06-01 16:20:00.720,2214340176,84720,2,0.88794,-0.21118,0.45947,-43.733,27.473,-9.504
2026-06-01 16:20:01.920,2214341376,84920,1,0.42944,-0.36328,1.04053,-16.122,6.084,-28.756
2026-06-01 16:20:01.920,2214341376,84920,2,0.84839,-0.16748,0.47217,-44.267,-10.099,-20.878
2026-06-01 16:20:01.120,2214340576,85120,1,0.4978,-0.33643,0.94458,-22.153,-8.855,-25.16
2026-06-01 16:20:01.120,2214340576,85120,2,0.87329,-0.32544,0.40894,-19.664,-7.924,-0.771
2026-06-01 16:20:01.320,2214340776,85320,1,0.50073,-0.35693,0.96655,16.87,-13.534,2.947
2026-06-01 16:20:01.320,2214340776,85320,2,0.87695,-0.25708,0.396,24.893,-20.824,0.191
2026-06-01 16:20:01.520,2214340976,85520,1,0.56689,-0.34326,0.92456,30.42,-24.916,8.931
2026-06-01 16:20:01.520,2214340976,85520,2,0.89453,-0.29492,0.33569,37.435,-29.779,2.611
2026-06-01 16:20:01.720,2214341176,85720,1,0.60327,-0.30591,0.82935,62.344,-19.244,23.931
2026-06-01 16:20:01.720,2214341176,85720,2,0.97314,-0.1394,0.28589,69.214,-35.573,-17.985
2026-06-01 16:20:02.920,2214342376,85920,1,0.78345,0.06274,0.97876,49.275,-8.947,-1.489
2026-06-01 16:20:02.920,2214342376,85920,2,1.03149,0.18359,0.05249,34.962,-9.168,-9.847
2026-06-01 16:20:02.120,2214341576,86120,1,0.80493,0.1853,0.72974,32.344,-34.153,2.099
2026-06-01 16:20:02.120,2214341576,86120,2,1.06592,,-0.10303,29.634,-35.046,1.099
2026-06-01 16:20:02.320,2214341776,86320,1,0.89063,0.13306,0.66943,46.931,-23.145,21.153
2026-06-01 16:20:02.320,2214341776,86320,2,1.02979,0.09058,-0.18384,55.504,-26.954,-4.649
2026-06-01 16:20:02.520,2214341976,86520,1,0.87573,0.20166,0.58911,24.298,-28.679,7.053
2026-06-01 16:20:02.520,2214341976,86520,2,1.01685,0.10522,-0.24854,16.42,-34.695,8.611
2026-06-01 16:20:02.720,2214342176,86720,1,0.99902,0.19702,0.44214,9.939,-14.496,-2.481
2026-06-01 16:20:02.720,2214342176,86720,2,1.03735,-0.02686,-0.31421,-0.313,-9.702,3.656
2026-06-01 16:20:03.920,2214343376,86920,1,0.97607,0.14331,0.4646,6.748,-0.595,10.985
2026-06-01 16:20:03.920,2214343376,86920,2,1.01587,-0.02026,-0.27148,8.885,1.191,-3.183
2026-06-01 16:20:03.120,2214342576,87120,1,0.95801,0.10571,0.53491,19.527,4.336,6.695
2026-06-01 16:20:03.120,2214342576,87120,2,1.00879,-0.0293,-0.19067,22.321,0.16,-7.824
2026-06-01 16:20:03.320,2214342776,87320,1,0.93677,0.15039,0.52417,9.962,-0.977,-2.687
2026-06-01 16:20:03.320,2214342776,87320,2,1.00928,0.01465,-0.26855,3.511,-1.336,-2.435
2026-06-01 16:20:03.520,2214342976,87520,1,0.95483,0.18286,0.51904,-1.389,-0.305,-8.992
2026-06-01 16:20:03.520,2214342976,87520,2,1.01001,0.0105,-0.28979,-4.496,-2.137,0.305
2026-06-01 16:20:03.720,2214343176,87720,1,0.96167,0.21265,0.48267,-2.855,3.176,-5.298
2026-06-01 16:20:03.720,2214343176,87720,2,1.01709,0.01855,-0.30859,-6.099,1.87,1.74
2026-06-01 16:20:04.920,2214344376,87920,1,0.948,0.21191,0.50317,-11.053,-0.305,-5.267
2026-06-01 16:20:04.920,2214344376,87920,2,1.00024,0.01587,-0.31274,-14.588,-0.16,6.214
2026-06-01 16:20:04.120,2214343576,88120,1,0.94238,0.1936,0.50586,-13.779,-1.611,-6.664
2026-06-01 16:20:04.120,2214343576,88120,2,1.00317,-0.01904,-0.29175,-20.641,-1.214,8.198
2026-06-01 16:20:04.320,2214343776,88320,1,0.94556,0.16699,0.51709,-3.634,-4.855,-2.641
2026-06-01 16:20:04.320,2214343776,88320,2,0.99487,-0.0459,-0.30957,0.481,-7.107,4.229
2026-06-01 16:20:04.520,2214343976,88520,1,0.96509,0.16162,0.47461,6.565,-9.679,4.008
2026-06-01 16:20:04.520,2214343976,88520,2,1.00317,-0.04297,-0.32568,4.786,-12.908,0.504
2026-06-01 16:20:04.720,2214344176,88720,1,1.01343,0.15942,0.44507,11.16,3.954,3.275
2026-06-01 16:20:04.720,2214344176,88720,2,1.04004,-0.03882,-0.33008,21.366,5.649,-17.206
2026-06-01 16:20:05.920,2214345376,88920,1,0.95337,0.20923,0.5105,14.893,25.55,0.153
2026-06-01 16:20:05.920,2214345376,88920,2,0.98828,0.09595,-0.31763,12.847,16.687,-10.397
2026-06-01 16:20:05.120,2214344576,89120,1,0.90039,0.25366,0.54785,-3.557,-0.092,-4.527
2026-06-01 16:20:05.120,2214344576,89120,2,0.95142,0.07446,-0.30688,-9.16,-7.588,-0.794
2026-06-01 16:20:05.320,2214344776,89320,1,0.92432,0.25952,0.52148,10.878,-14.344,-7.252
2026-06-01 16:20:05.320,2214344776,89320,2,1.01074,0.01563,-0.29004,3.87,-3.427,25.015
2026-06-01 16:20:05.520,2214344976,89520,1,0.99829,0.23242,0.46631,32.42,3.733,9.763
2026-06-01 16:20:05.520,2214344976,89520,2,1.12695,-0.13403,-0.27466,35.489,5.534,22.053
2026-06-01 16:20:05.720,2214345176,89720,1,0.98193,0.23193,0.30981,37.588,36.366,40.298
2026-06-01 16:20:05.720,2214345176,89720,2,1.19556,-0.05371,-0.29565,97.015,80.649,-34.069
2026-06-01 16:20:06.920,2214346376,89920,1,0.96973,0.09619,0.52954,-19.053,23.664,12.13
2026-06-01 16:20:06.920,2214346376,89920,2,0.96094,-0.05249,-0.28882,7.718,4.061,-6.053
2026-06-01 16:20:06.120,2214345576,90120,1,0.91309,0.04517,0.57202,9.092,-0.649,19.763
2026-06-01 16:20:06.120,2214345576,90120,2,0.98975,-0.13037,-0.30859,33.504,0.641,-0.916
2026-06-01 16:20:06.320,2214345776,90320,1,0.99585,0.03662,0.54224,-7.0,-7.405,2.756
2026-06-01 16:20:06.320,2214345776,90320,2,1.01367,-0.06909,-0.20288,-31.435,0.168,6.962
2026-06-01 16:20:06.520,2214345976,90520,1,1.03979,-0.02637,0.52637,-44.412,-0.763,-21.542
2026-06-01 16:20:06.520,2214345976,90520,2,0.98779,-0.13232,-0.20703,-54.076,11.519,7.206
2026-06-01 16:20:06.720,2214346176,90720,1,1.01025,-0.08325,0.55493,-51.832,-2.115,-34.244
2026-06-01 16:20:06.720,2214346176,90720,2,0.96558,-0.15796,-0.20435,-70.634,3.237,4.069
2026-06-01 16:20:07.920,2214347376,90920,1,0.92383,0.00391,0.62671,-45.099,-11.595,-40.458
2026-06-01 16:20:07.920,2214347376,90920,2,1.00732,-0.00415,-0.24268,-51.489,6.527,12.45
2026-06-01 16:20:07.120,2214346576,91120,1,0.95337,0.09863,0.49438,-27.168,-14.137,-12.313
2026-06-01 16:20:07.120,2214346576,91120,2,1.13647,-0.04126,-0.29468,12.031,15.237,8.84
2026-06-01 16:20:07.320,2214346776,91320,1,0.9209,0.10864,0.54004,6.939,24.221,3.298
2026-06-01 16:20:07.320,2214346776,91320,2,0.98022,0.00024,-0.26733,49.954,16.771,-28.076
2026-06-01 16:20:07.520,2214346976,91520,1,0.84448,0.18506,0.677,17.55,10.16,-0.992
2026-06-01 16:20:07.520,2214346976,91520,2,1.00879,0.01001,-0.22461,22.206,-12.023,-14.359
2026-06-01 16:20:07.720,2214347176,91720,1,0.90161,0.2002,0.62988,31.679,3.458,7.519
2026-06-01 16:20:07.720,2214347176,91720,2,1.04126,0.01831,-0.22754,46.573,-10.252,-10.901
2026-06-01 16:20:08.920,2214348376,91920,1,0.86182,0.24097,0.62085,24.885,11.26,8.878
2026-06-01 16:20:08.920,2214348376,91920,2,1.01831,0.08887,-0.27222,23.168,4.511,0.74
2026-06-01 16:20:08.120,2214347576,92120,1,0.91382,0.32178,0.56958,-15.061,3.58,-3.053
2026-06-01 16:20:08.120,2214347576,92120,2,1.03345,0.09302,-0.2356,-50.504,13.092,25.962
2026-06-01 16:20:08.320,2214347776,92320,1,0.88794,0.17847,0.61963,-58.061,-14.0,-41.496
2026-06-01 16:20:08.320,2214347776,92320,2,0.99561,-0.08032,-0.23975,-84.267,-2.817,26.962
2026-06-01 16:20:08.520,2214347976,92520,1,0.89502,0.22607,0.58472,-50.786,-21.954,-22.687
2026-06-01 16:20:08.520,2214347976,92520,2,1.00562,-0.10962,-0.24658,-62.13,-0.313,17.794
2026-06-01 16:20:08.720,2214348176,92720,1,0.91504,0.13086,0.5835,-27.122,-19.885,-11.679
2026-06-01 16:20:08.720,2214348176,92720,2,0.99976,-0.17114,-0.29761,-26.244,-17.916,9.656
2026-06-01 16:20:09.920,2214349376,92920,1,0.92969,0.14355,0.53052,14.603,-4.626,9.87
2026-06-01 16:20:09.920,2214349376,92920,2,0.98022,-0.10303,-0.29126,39.031,-5.015,-17.069
2026-06-01 16:20:09.120,2214348576,93120,1,0.9585,0.17676,0.50513,47.336,1.511,24.328
2026-06-01 16:20:09.120,2214348576,93120,2,0.99341,-0.04419,-0.3208,80.832,-2.137,-14.008
2026-06-01 16:20:09.320,2214348776,93320,1,0.96851,0.22656,0.47217,52.496,8.573,23.626
2026-06-01 16:20:09.320,2214348776,93320,2,0.9834,0.02075,-0.35425,52.366,-7.206,-14.695
2026-06-01 16:20:09.520,2214348976,93520,1,1.06616,0.16016,0.47046,59.725,20.626,20.504
2026-06-01 16:20:09.520,2214348976,93520,2,0.9812,-0.04346,-0.29614,53.313,7.687,-30.13
2026-06-01 16:20:09.720,2214349176,93720,1,0.94702,0.14478,0.45044,22.412,5.145,10.634
2026-06-01 16:20:09.720,2214349176,93720,2,1.04883,-0.02417,-0.30078,7.641,5.634,-5.626
2026-06-01 16:20:10.920,2214350376,93920,1,0.98291,0.16162,0.48486,-58.824,1.0,-28.603
2026-06-01 16:20:10.920,2214350376,93920,2,0.97632,-0.05542,-0.35327,-121.061,-7.603,42.45
2026-06-01 16:20:10.120,2214349576,94120,1,0.91357,0.05884,0.49585,-101.809,-13.351,-35.58
2026-06-01 16:20:10.120,2214349576,94120,2,0.95679,-0.17603,-0.31421,-121.863,9.649,42.817
2026-06-01 16:20:10.320,2214349776,94320,1,0.97534,0.0166,0.47168,-82.374,-14.794,-31.092
2026-06-01 16:20:10.320,2214349776,94320,2,0.92969,-0.30981,-0.40649,-100.649,3.176,35.313
2026-06-01 16:20:10.520,2214349976,94520,1,0.98584,-0.00415,0.44995,-35.74,5.489,-11.061
2026-06-01 16:20:10.520,2214349976,94520,2,0.94019,-0.25879,-0.39478,-49.122,-4.595,2.718
2026-06-01 16:20:10.720,2214350176,94720,1,1.03442,-0.0708,0.41113,-5.756,-2.931,2.168
2026-06-01 16:20:10.720,2214350176,94720,2,0.95654,-0.25171,-0.34326,33.275,3.878,-17.252
2026-06-01 16:20:11.158,2214350614,95158,1,0.94702,0.09937,0.49097,38.641,-9.183,7.282
2026-06-01 16:20:11.158,2214350614,95158,2,1.03882,-0.09839,-0.30884,49.053,2.412,0.038
2026-06-01 16:20:11.483,2214350939,95482,1,0.98218,0.12158,0.50244,29.786,15.244,8.191
2026-06-01 16:20:11.483,2214350939,95482,2,0.96777,-0.02051,-0.31641,43.282,-11.748,-34.794
2026-06-01 16:20:11.682,2214351138,95682,1,0.96289,0.2146,0.46313,33.229,4.55,-8.107
2026-06-01 16:20:11.682,2214351138,95682,2,0.99585,-0.02905,-0.28931,12.672,-3.893,-10.901
2026-06-01 16:20:11.882,2214351338,95882,1,0.96362,0.17358,0.50684,28.046,9.061,1.099
2026-06-01 16:20:11.882,2214351338,95882,2,1.02612,-0.01343,-0.25781,21.061,-5.504,-18.168
2026-06-01 16:20:12.082,2214351538,96082,1,0.93799,0.21655,0.4729,33.954,7.336,9.878
2026-06-01 16:20:12.082,2214351538,96082,2,0.99854,0.05884,-0.33447,32.137,-2.267,-17.481
2026-06-01 16:20:12.282,2214351738,96282,1,0.95142,0.20508,0.47925,20.924,14.985,6.076
2026-06-01 16:20:12.282,2214351738,96282,2,1.02515,0.06885,-0.31372,24.008,13.374,-14.13
2026-06-01 16:20:12.482,2214351938,96482,1,0.91138,0.28345,0.50781,23.71,28.878,11.794
2026-06-01 16:20:12.482,2214351938,96482,2,0.96948,0.15601,-0.35156,24.969,9.504,-0.45
2026-06-01 16:20:12.682,2214352138,96682,1,0.89771,0.31592,0.51636,-4.779,-0.145,13.267
2026-06-01 16:20:12.682,2214352138,96682,2,1.00635,0.13965,-0.31323,-1.802,2.443,12.382
2026-06-01 16:20:12.882,2214352338,96882,1,0.88965,0.13257,0.56567,-5.397,0.588,12.237
2026-06-01 16:20:12.882,2214352338,96882,2,1.05688,0.0105,-0.20679,-5.275,-0.969,16.328
2026-06-01 16:20:13.082,2214352538,97082,1,0.89673,0.09351,0.57568,7.015,7.84,15.534
2026-06-01 16:20:13.082,2214352538,97082,2,1.00366,-0.01563,-0.20874,3.817,2.595,2.687
2026-06-01 16:20:13.282,2214352738,97282,1,0.89526,0.01221,0.61719,17.733,-5.42,7.992
2026-06-01 16:20:13.282,2214352738,97282,2,1.05713,-0.03613,-0.20825,20.794,-14.588,-7.153
2026-06-01 16:20:13.482,2214352938,97482,1,0.92456,0.05151,0.56372,8.282,0.649,-5.351
2026-06-01 16:20:13.482,2214352938,97482,2,1.04712,-0.12427,-0.22705,4.244,-2.366,12.176
2026-06-01 16:20:13.682,2214353138,97682,1,0.95752,0.03809,0.54761,8.733,12.863,5.153
2026-06-01 16:20:13.682,2214353138,97682,2,0.98657,-0.1272,-0.2356,-1.153,4.183,-0.695
2026-06-01 16:20:13.882,2214353338,97882,1,0.90869,0.0105,0.59033,5.397,8.305,8.229
2026-06-01 16:20:13.882,2214353338,97882,2,0.95654,-0.11523,-0.27881,3.29,-0.771,-0.527
2026-06-01 16:20:14.082,2214353538,98082,1,1.03223,0.0896,0.5105,15.183,-12.214,-1.924
2026-06-01 16:20:14.082,2214353538,98082,2,1.03857,-0.06323,-0.18994,6.847,-2.336,-2.939
2026-06-01 16:20:14.282,2214353738,98282,1,0.91626,0.14478,0.63452,41.534,12.244,3.038
2026-06-01 16:20:14.282,2214353738,98282,2,1.02563,-0.00342,-0.19653,38.817,1.71,-21.504
2026-06-01 16:20:14.482,2214353938,98482,1,0.87866,0.23901,0.61792,43.359,8.374,15.626
2026-06-01 16:20:14.482,2214353938,98482,2,1.01514,0.06274,-0.19971,47.084,-2.206,-20.527
2026-06-01 16:20:14.682,2214354138,98682,1,0.9082,0.22729,0.573,37.351,6.473,15.145
2026-06-01 16:20:14.682,2214354138,98682,2,1.00806,0.08569,-0.26978,26.87,-3.366,-9.252
2026-06-01 16:20:14.882,2214354338,98882,1,0.90649,0.23755,0.54541,8.405,2.672,6.489
2026-06-01 16:20:14.882,2214354338,98882,2,1.00146,0.05933,-0.30322,3.221,0.802,2.489
2026-06-01 16:20:15.082,2214354538,99082,1,0.92798,0.19824,0.53833,-2.649,2.397,2.206
2026-06-01 16:20:15.082,2214354538,99082,2,1.00024,-0.0271,-0.29541,-5.412,2.305,17.305
2026-06-01 16:20:15.282,2214354738,99282,1,0.94385,0.09497,0.5293,4.198,-6.298,15.756
2026-06-01 16:20:15.282,2214354738,99282,2,1.02271,-0.0752,-0.29077,11.74,1.366,10.168
2026-06-01 16:20:15.482,2214354938,99482,1,0.96094,0.09229,0.50659,11.481,-4.74,12.58
2026-06-01 16:20:15.482,2214354938,99482,2,0.99243,-0.06738,-0.28125,22.069,-8.855,-2.626
2026-06-01 16:20:15.682,2214355138,99682,1,0.97461,0.13477,0.45972,2.603,-1.466,10.771
2026-06-01 16:20:15.682,2214355138,99682,2,0.99561,-0.0415,-0.36084,6.321,-1.786,6.573
2026-06-01 16:20:15.882,2214355338,99882,1,0.98462,0.07178,0.47168,-1.847,4.198,-1.725
2026-06-01 16:20:15.882,2214355338,99882,2,1.00195,-0.08545,-0.32251,0.908,1.885,-0.42
2026-06-01 16:20:16.082,2214355538,100082,1,0.96362,0.09351,0.49976,6.107,2.603,4.809
2026-06-01 16:20:16.082,2214355538,100082,2,0.99438,-0.05591,-0.3252,2.496,-0.015,5.405
2026-06-01 16:20:16.282,2214355738,100282,1,0.95337,0.0813,0.48096,-19.511,-1.405,-4.405
2026-06-01 16:20:16.282,2214355738,100282,2,0.99219,-0.08203,-0.32935,-26.321,-1.328,9.947
2026-06-01 16:20:16.482,2214355938,100482,1,1.02051,0.04297,0.49146,-25.267,0.351,-5.947
2026-06-01 16:20:16.482,2214355938,100482,2,1.02271,-0.1416,-0.34131,-29.924,-8.916,3.626
2026-06-01 16:20:16.682,2214356138,100682,1,1.01245,0.05078,0.45825,-15.458,1.275,-18.397
2026-06-01 16:20:16.682,2214356138,100682,2,1.00928,-0.07861,-0.33765,-29.702,5.611,18.374
2026-06-01 16:20:16.882,2214356338,100882,1,0.98462,0.14966,0.5127,-29.305,13.328,-17.061
2026-06-01 16:20:16.882,2214356338,100882,2,0.97681,-0.05762,-0.36353,-47.397,-2.099,3.496
2026-06-01 16:20:17.082,2214356538,101082,1,0.99731,0.09595,0.51147,-67.863,-2.45,-26.229
2026-06-01 16:20:17.082,2214356538,101082,2,1.0083,-0.17969,-0.33716,-72.038,3.794,14.74
2026-06-01 16:20:17.282,2214356738,101282,1,0.96191,-0.02124,0.51538,-29.863,-0.076,-15.137
2026-06-01 16:20:17.282,2214356738,101282,2,0.97607,-0.18823,-0.2688,-31.42,0.122,3.42
2026-06-01 16:20:17.482,2214356938,101482,1,0.96948,-0.00684,0.52661,-6.924,-3.099,-9.443
2026-06-01 16:20:17.482,2214356938,101482,2,1.02856,-0.13574,-0.28394,-8.87,2.076,-5.855
2026-06-01 16:20:17.682,2214357138,101682,1,1.01245,0.12622,0.53516,-17.328,7.931,-14.863
2026-06-01 16:20:17.682,2214357138,101682,2,0.95654,-0.03247,-0.3147,-14.664,8.313,-3.183
2026-06-01 16:20:17.882,2214357338,101882,1,0.92334,0.14478,0.56128,-5.168,3.885,-10.237
2026-06-01 16:20:17.882,2214357338,101882,2,0.99146,-0.05225,-0.26929,1.733,-0.832,-5.244
2026-06-01 16:20:18.082,2214357538,102082,1,0.91284,0.16382,0.55957,27.145,0.374,4.985
2026-06-01 16:20:18.082,2214357538,102082,2,1.00269,0.00122,-0.27856,20.153,-5.115,-4.771
2026-06-01 16:20:18.282,2214357738,102282,1,0.94434,0.21289,0.52466,17.878,-1.405,7.733
2026-06-01 16:20:18.282,2214357738,102282,2,1.00928,0.021,-0.30078,12.679,-4.908,-0.855
2026-06-01 16:20:18.482,2214357938,102482,1,0.95508,0.18823,0.50562,6.321,-3.634,5.641
2026-06-01 16:20:18.482,2214357938,102482,2,1.0144,-0.01245,-0.31201,6.74,-9.023,-3.153
2026-06-01 16:20:18.682,2214358138,102682,1,0.96973,0.16528,0.48535,8.649,-3.664,2.321
2026-06-01 16:20:18.682,2214358138,102682,2,1.00122,0.00171,-0.33057,3.985,-6.336,0.42
2026-06-01 16:20:18.882,2214358338,102882,1,1.0127,0.18237,0.44971,2.794,6.237,-0.519
2026-06-01 16:20:18.882,2214358338,102882,2,1.03271,-0.0271,-0.375,7.053,11.496,-5.168
2026-06-01 16:20:19.082,2214358538,103082,1,0.93628,0.14331,0.53271,2.344,20.084,-1.557
2026-06-01 16:20:19.082,2214358538,103082,2,0.94775,-0.01025,-0.28442,1.557,11.45,-4.969
2026-06-01 16:20:19.282,2214358738,103282,1,0.93506,0.14453,0.52856,-8.221,-3.023,-2.55
2026-06-01 16:20:19.282,2214358738,103282,2,1.03931,-0.04004,-0.26147,-7.939,1.977,1.802
2026-06-01 16:20:19.482,2214358938,103482,1,0.96069,0.14502,0.49146,5.328,5.878,0.817
2026-06-01 16:20:19.482,2214358938,103482,2,1.03442,0.00684,-0.22998,2.0,8.443,-6.557
2026-06-01 16:20:19.682,2214359138,103682,1,0.96094,0.19019,0.50073,6.366,24.069,-13.885
2026-06-01 16:20:19.682,2214359138,103682,2,1.0603,0.05762,-0.19214,-23.756,12.229,-5.634
2026-06-01 16:20:19.882,2214359338,103882,1,0.77271,0.20459,0.67188,-21.725,43.779,-14.565
2026-06-01 16:20:19.882,2214359338,103882,2,1.02148,0.06494,-0.12451,-26.924,44.305,-4.924
2026-06-01 16:20:20.082,2214359538,104082,1,0.73633,0.06494,0.92944,-4.145,45.382,4.977
2026-06-01 16:20:20.082,2214359538,104082,2,1.03882,-0.03174,0.04224,11.504,24.107,-8.664
2026-06-01 16:20:20.282,2214359738,104282,1,0.68555,0.3186,0.87378,45.511,51.336,44.649
2026-06-01 16:20:20.282,2214359738,104282,2,0.99658,0.22998,0.03467,64.008,25.015,-4.206
2026-06-01 16:20:20.482,2214359938,104482,1,0.59766,0.27319,0.88696,41.618,17.336,48.885
2026-06-01 16:20:20.482,2214359938,104482,2,0.98291,0.22852,-0.0105,66.466,6.908,6.183
2026-06-01 16:20:20.682,2214360138,104682,1,0.61401,0.29395,0.86816,35.435,12.595,49.542
2026-06-01 16:20:20.682,2214360138,104682,2,0.98071,0.20923,-0.02905,67.244,12.893,10.679
2026-06-01 16:20:20.882,2214360338,104882,1,0.57642,0.17432,0.87817,25.275,-15.206,33.939
2026-06-01 16:20:20.882,2214360338,104882,2,0.99561,0.17017,0.00952,32.069,-27.794,17.962
2026-06-01 16:20:21.082,2214360538,105082,1,0.79395,0.15967,0.77539,-17.496,-30.008,1.817
2026-06-01 16:20:21.082,2214360538,105082,2,1.11646,0.02319,0.00098,-28.305,-30.053,29.046
2026-06-01 16:20:21.282,2214360738,105282,1,0.77051,0.04956,0.76831,-33.053,-20.702,-14.901
2026-06-01 16:20:21.282,2214360738,105282,2,1.03784,-0.06567,-0.08838,-33.954,-10.878,11.084
2026-06-01 16:20:21.482,2214360938,105482,1,0.96289,0.09473,0.61499,-22.939,-11.656,-23.511
2026-06-01 16:20:21.482,2214360938,105482,2,0.99829,-0.05908,-0.23071,-43.008,2.847,7.069
2026-06-01 16:20:21.682,2214361138,105682,1,0.97583,0.12109,0.59863,-32.313,-17.557,-29.252
2026-06-01 16:20:21.682,2214361138,105682,2,0.98999,-0.04883,-0.28271,-59.206,-4.504,1.588
2026-06-01 16:20:21.882,2214361338,105882,1,0.927,0.14673,0.57007,-20.733,-23.977,-26.221
2026-06-01 16:20:21.882,2214361338,105882,2,0.97388,-0.05957,-0.20703,-32.565,-5.947,7.046
2026-06-01 16:20:22.082,2214361538,106082,1,0.92236,0.18555,0.59229,-38.71,-4.0,-10.87
2026-06-01 16:20:22.082,2214361538,106082,2,1.05322,0.05542,-0.21631,-17.183,22.908,-10.565
2026-06-01 16:20:22.282,2214361738,106282,1,0.86743,0.23389,0.62183,-38.023,-9.168,-18.374
2026-06-01 16:20:22.282,2214361738,106282,2,1.03052,0.07544,-0.27661,-45.366,-1.588,7.023
2026-06-01 16:20:22.482,2214361938,106482,1,0.97241,0.14355,0.68481,-35.267,-22.16,-15.55
2026-06-01 16:20:22.482,2214361938,106482,2,1.02002,-0.052,-0.2207,-23.977,-5.794,9.115
2026-06-01 16:20:22.682,2214362138,106682,1,0.90845,0.08521,0.58228,-3.504,-9.031,2.267
2026-06-01 16:20:22.682,2214362138,106682,2,1.0249,-0.03101,-0.19092,-9.29,-6.321,8.221
2026-06-01 16:20:22.882,2214362338,106882,1,0.92383,0.13159,0.56641,-25.282,-4.603,-9.939
2026-06-01 16:20:22.882,2214362338,106882,2,1.00098,-0.03882,-0.24316,-32.244,6.321,19.817
2026-06-01 16:20:23.082,2214362538,107082,1,0.94678,0.05933,0.51099,-32.244,1.847,-10.832
2026-06-01 16:20:23.082,2214362538,107082,2,0.94165,-0.08691,-0.27734,-36.664,-7.351,0.718
2026-06-01 16:20:23.282,2214362738,107282,1,1.0022,0.06592,0.48804,-17.359,-4.0,-11.84
2026-06-01 16:20:23.282,2214362738,107282,2,0.99805,-0.10059,-0.30615,-8.244,5.26,5.618
2026-06-01 16:20:23.482,2214362938,107482,1,0.98462,0.02466,0.51807,-1.916,3.282,1.656
2026-06-01 16:20:23.482,2214362938,107482,2,1.03296,-0.08984,-0.28052,4.695,-1.55,-1.634
2026-06-01 16:20:23.682,2214363138,107682,1,0.96167,0.08789,0.53833,2.74,5.191,-1.45
2026-06-01 16:20:23.682,2214363138,107682,2,1.01196,-0.04175,-0.27686,3.198,6.641,3.031
2026-06-01 16:20:23.882,2214363338,107882,1,0.95825,0.09497,0.52734,-5.008,0.305,-4.672
2026-06-01 16:20:23.882,2214363338,107882,2,1.01367,-0.04126,-0.27441,-6.405,1.389,3.069
2026-06-01 16:20:24.082,2214363538,108082,1,0.94946,0.1438,0.52002,-11.351,-3.305,-2.511
2026-06-01 16:20:24.082,2214363538,108082,2,1.00024,-0.03223,-0.30298,-13.771,-2.634,9.748
2026-06-01 16:20:24.282,2214363738,108282,1,0.97095,0.10229,0.51318,-29.809,-2.794,-6.885
2026-06-01 16:20:24.282,2214363738,108282,2,0.99268,-0.05103,-0.31177,-30.885,5.191,21.267
2026-06-01 16:20:24.482,2214363938,108482,1,0.95825,0.09155,0.55566,-34.489,-5.534,-24.389
2026-06-01 16:20:24.482,2214363938,108482,2,1.00903,-0.10449,-0.28345,-53.298,1.13,15.466
2026-06-01 16:20:24.682,2214364138,108682,1,0.97021,0.13525,0.49219,-30.679,-8.618,-23.87
2026-06-01 16:20:24.682,2214364138,108682,2,0.98828,-0.14185,-0.31152,-49.176,-0.947,17.252
2026-06-01 16:20:24.882,2214364338,108882,1,0.96729,0.1377,0.48804,-23.336,-7.221,-17.099
2026-06-01 16:20:24.882,2214364338,108882,2,0.99927,-0.15479,-0.31909,-33.71,2.13,9.779
2026-06-01 16:20:25.082,2214364538,109082,1,1.03076,0.177,0.47266,-28.351,-4.214,-14.29
2026-06-01 16:20:25.082,2214364538,109082,2,0.99951,-0.13599,-0.30713,-39.13,9.672,7.344
2026-06-01 16:20:25.282,2214364738,109282,1,0.93921,0.08936,0.48999,-22.092,10.214,-8.863
2026-06-01 16:20:25.282,2214364738,109282,2,0.96875,-0.198,-0.32959,-30.687,0.374,-6.481
2026-06-01 16:20:25.482,2214364938,109482,1,0.98804,0.10547,0.50732,15.374,4.809,7.748
2026-06-01 16:20:25.482,2214364938,109482,2,1.01587,-0.14673,-0.31836,31.015,0.405,-9.191
2026-06-01 16:20:25.682,2214365138,109682,1,0.95557,0.11499,0.48389,21.046,14.168,12.237
2026-06-01 16:20:25.682,2214365138,109682,2,0.94775,-0.20898,-0.29761,18.557,9.649,-5.191
2026-06-01 16:20:25.882,2214365338,109882,1,0.95313,0.0249,0.50854,31.87,5.214,17.008
2026-06-01 16:20:25.882,2214365338,109882,2,0.96143,-0.21899,-0.32788,38.42,-11.115,-7.214
2026-06-01 16:20:26.082,2214365538,110082,1,1.06299,0.14575,0.54834,27.153,9.687,27.176
2026-06-01 16:20:26.082,2214365538,110082,2,0.97388,-0.12769,-0.25,23.672,2.397,-7.412
2026-06-01 16:20:26.282,2214365738,110282,1,0.93774,0.11084,0.55615,18.542,5.046,4.893
2026-06-01 16:20:26.282,2214365738,110282,2,1.00195,-0.13403,-0.27222,10.244,-3.061,4.817
2026-06-01 16:20:26.482,2214365938,110482,1,0.91675,0.08862,0.54663,27.489,-6.702,1.344
2026-06-01 16:20:26.482,2214365938,110482,2,0.99878,-0.16797,-0.26587,24.237,-16.504,-3.855
2026-06-01 16:20:26.682,2214366138,110682,1,0.9978,0.18311,0.46191,43.809,12.382,20.153
2026-06-01 16:20:26.682,2214366138,110682,2,1.05591,-0.05103,-0.36157,58.328,-0.336,-28.252
2026-06-01 16:20:26.882,2214366338,110882,1,0.95728,0.2041,0.46826,25.687,-1.031,12.565
2026-06-01 16:20:26.882,2214366338,110882,2,0.96045,-0.01245,-0.35352,19.45,-13.061,-17.58
2026-06-01 16:20:27.082,2214366538,111082,1,0.96509,0.15234,0.50146,16.618,1.405,2.115
2026-06-01 16:20:27.082,2214366538,111082,2,1.01587,-0.03857,-0.31396,14.603,-6.008,-1.26
2026-06-01 16:20:27.282,2214366738,111282,1,0.94849,0.17529,0.48535,26.786,10.527,15.221
2026-06-01 16:20:27.282,2214366738,111282,2,0.99146,0.03003,-0.33765,51.557,3.863,-0.214
2026-06-01 16:20:27.482,2214366938,111482,1,0.98438,0.18213,0.47021,-6.496,3.29,-7.366
2026-06-01 16:20:27.482,2214366938,111482,2,0.97754,-0.03271,-0.3252,-29.939,7.931,18.229
2026-06-01 16:20:27.682,2214367138,111682,1,0.99878,0.1582,0.48755,-47.046,-4.183,-26.962
2026-06-01 16:20:27.682,2214367138,111682,2,0.98511,-0.14209,-0.34912,-63.519,7.481,13.427
2026-06-01 16:20:27.882,2214367338,111882,1,0.96021,0.13013,0.52271,-41.282,-4.206,-23.389
2026-06-01 16:20:27.882,2214367338,111882,2,1.00635,-0.10889,-0.29541,-37.031,10.336,8.573
2026-06-01 16:20:28.082,2214367538,112082,1,0.93628,0.18457,0.52832,-26.16,-3.489,-20.092
2026-06-01 16:20:28.082,2214367538,112082,2,1.0,-0.11011,-0.31616,-35.0,0.496,4.542
2026-06-01 16:20:28.282,2214367738,112282,1,0.94214,0.17676,0.53125,-13.382,-9.076,-14.931
2026-06-01 16:20:28.282,2214367738,112282,2,0.99731,-0.14185,-0.29614,-9.313,-3.794,6.702
2026-06-01 16:20:28.482,2214367938,112482,1,0.94263,0.19629,0.5,-3.084,-3.053,-1.931
2026-06-01 16:20:28.482,2214367938,112482,2,0.97217,-0.10181,-0.32056,3.519,-2.55,4.198
2026-06-01 16:20:28.682,2214368138,112682,1,0.97485,0.26245,0.51465,-21.382,-5.794,-9.695
2026-06-01 16:20:28.682,2214368138,112682,2,1.03271,-0.10889,-0.33936,-32.023,6.794,8.992
2026-06-01 16:20:28.882,2214368338,112882,1,0.94409,0.16309,0.4978,-21.656,2.969,-12.641
2026-06-01 16:20:28.882,2214368338,112882,2,0.9624,-0.14063,-0.32935,-23.023,6.824,5.061
2026-06-01 16:20:29.082,2214368538,113082,1,0.9458,0.21216,0.52515,-9.756,1.206,-7.618
2026-06-01 16:20:29.082,2214368538,113082,2,1.00635,-0.13452,-0.27661,-16.237,7.321,-0.496
2026-06-01 16:20:29.282,2214368738,113282,1,0.90869,0.21875,0.53882,-12.687,-0.511,-10.229
2026-06-01 16:20:29.282,2214368738,113282,2,0.96021,-0.17432,-0.30078,-20.061,4.664,12.603
2026-06-01 16:20:29.482,2214368938,113482,1,0.97778,0.11743,0.5188,16.618,-0.809,8.855
2026-06-01 16:20:29.482,2214368938,113482,2,0.96948,-0.24243,-0.2854,38.947,-8.267,-31.229
2026-06-01 16:20:29.682,2214369138,113682,1,0.94873,0.21753,0.479,64.962,23.603,34.824
2026-06-01 16:20:29.682,2214369138,113682,2,0.99902,-0.07935,-0.34985,72.458,1.122,-32.405
2026-06-01 16:20:29.882,2214369338,113882,1,0.95508,0.21436,0.51123,52.267,18.916,33.351
2026-06-01 16:20:29.882,2214369338,113882,2,0.9978,-0.00342,-0.29468,59.649,3.947,-10.603
2026-06-01 16:20:30.082,2214369538,114082,1,0.93726,0.15698,0.53784,18.198,5.092,12.053
2026-06-01 16:20:30.082,2214369538,114082,2,1.00366,-0.00659,-0.28296,17.847,-0.336,-9.977
2026-06-01 16:20:30.282,2214369738,114282,1,0.95996,0.1521,0.53589,11.244,3.267,5.557
2026-06-01 16:20:30.282,2214369738,114282,2,1.01367,-0.01318,-0.28638,8.412,-2.244,-4.153
2026-06-01 16:20:30.482,2214369938,114482,1,0.9541,0.16016,0.51367,5.962,1.947,-2.611
2026-06-01 16:20:30.482,2214369938,114482,2,1.00928,-0.01489,-0.27954,-3.137,6.0,1.924
2026-06-01 16:20:30.682,2214370138,114682,1,0.9353,0.16895,0.5271,-7.046,3.641,-6.145
2026-06-01 16:20:30.682,2214370138,114682,2,0.99536,-0.02075,-0.27832,-15.252,2.885,2.893
2026-06-01 16:20:30.882,2214370338,114882,1,0.9436,0.14624,0.54077,-7.748,-0.794,-4.313
2026-06-01 16:20:30.882,2214370338,114882,2,1.00928,-0.03687,-0.27539,-8.183,-1.29,0.901
2026-06-01 16:20:31.082,2214370538,115082,1,0.94971,0.14868,0.52612,6.115,1.145,1.198
2026-06-01 16:20:31.082,2214370538,115082,2,1.00977,-0.02563,-0.28809,7.26,-3.397,-4.26
2026-06-01 16:20:31.282,2214370738,115282,1,0.94678,0.16357,0.52759,12.481,4.42,2.328
2026-06-01 16:20:31.282,2214370738,115282,2,1.0,0.00537,-0.29272,11.809,-0.198,-4.466
2026-06-01 16:20:31.482,2214370938,115482,1,0.94287,0.18311,0.52612,3.863,2.893,0.511
2026-06-01 16:20:31.482,2214370938,115482,2,1.00146,0.01416,-0.30493,0.069,0.557,-2.718
2026-06-01 16:20:31.682,2214371138,115682,1,0.94141,0.17188,0.53052,-1.992,-0.496,-1.969
2026-06-01 16:20:31.682,2214371138,115682,2,1.00024,0.0022,-0.30347,-6.229,-0.107,3.763
2026-06-01 16:20:32.217,2214371673,116217,1,0.95117,0.1604,0.51855,-2.931,-0.191,-3.061
2026-06-01 16:20:32.217,2214371673,116217,2,1.0022,-0.02539,-0.31348,4.015,-3.336,-3.168
2026-06-01 16:20:32.540,2214371996,116540,1,0.95142,0.16284,0.51367,9.366,0.771,-0.412
2026-06-01 16:20:32.540,2214371996,116540,2,1.00391,0.00366,-0.32959,9.412,-1.802,-5.58
2026-06-01 16:20:32.831,2214372287,116831,1,0.95532,0.20093,0.48706,5.962,0.366,-2.298
2026-06-01 16:20:32.831,2214372287,116831,2,0.99023,0.02368,-0.33057,0.382,-0.527,-0.939
2026-06-01 16:20:33.031,2214372487,117031,1,0.95581,0.21704,0.48877,-1.023,0.176,-1.969
2026-06-01 16:20:33.031,2214372487,117031,2,0.98901,0.0083,-0.34888,-3.153,-1.275,1.374
2026-06-01 16:20:33.231,2214372687,117231,1,0.95459,0.1958,0.48804,-0.672,0.672,-0.344
2026-06-01 16:20:33.231,2214372687,117231,2,0.99512,0.00562,-0.3396,-5.13,-2.252,1.237
2026-06-01 16:20:33.460,2214372916,117460,1,0.95703,0.19946,0.4646,3.137,-0.824,-0.832
2026-06-01 16:20:33.460,2214372916,117460,2,0.97778,0.00049,-0.35718,1.42,-0.611,3.656
2026-06-01 16:20:33.660,2214373116,117660,1,0.9624,0.21069,0.46802,4.55,3.015,-0.542
2026-06-01 16:20:33.660,2214373116,117660,2,1.01001,-0.01318,-0.35229,3.183,-1.29,-0.725
2026-06-01 16:20:33.860,2214373316,117860,1,0.95874,0.21045,0.47778,3.634,4.84,2.069
2026-06-01 16:20:33.860,2214373316,117860,2,0.98901,-0.00488,-0.34155,1.725,1.176,1.229
2026-06-01 16:20:34.060,2214373516,118060,1,0.97192,0.18726,0.48413,5.244,5.534,1.588
2026-06-01 16:20:34.060,2214373516,118060,2,0.98657,-0.01709,-0.30713,11.405,2.672,-5.87
2026-06-01 16:20:34.260,2214373716,118260,1,0.94312,0.22534,0.4873,7.137,8.443,-0.878
2026-06-01 16:20:34.260,2214373716,118260,2,0.96973,0.02368,-0.37012,-0.702,-5.015,-7.557
2026-06-01 16:20:34.460,2214373916,118460,1,0.93726,0.2146,0.49097,-4.756,4.115,-4.885
2026-06-01 16:20:34.460,2214373916,118460,2,0.99023,0.04248,-0.33862,-3.374,0.947,-2.824
2026-06-01 16:20:34.660,2214374116,118660,1,0.94019,0.24609,0.49951,3.214,4.099,-6.298
2026-06-01 16:20:34.660,2214374116,118660,2,0.98901,0.04785,-0.31445,-3.695,-1.786,-1.496
2026-06-01 16:20:35.898,2214375354,118898,1,0.93359,0.34741,0.49707,-5.046,7.092,0.237
2026-06-01 16:20:35.898,2214375354,118898,2,0.9563,0.06738,-0.36157,-13.031,5.824,21.366
2026-06-01 16:20:35.205,2214374661,119204,1,0.90894,0.19922,0.50024,-13.527,29.244,1.038
2026-06-01 16:20:35.205,2214374661,119204,2,0.99194,0.08008,-0.28784,-14.466,19.893,-8.511
2026-06-01 16:20:35.404,2214374860,119404,1,0.92896,0.14868,0.58618,-42.153,-1.313,3.702
2026-06-01 16:20:35.404,2214374860,119404,2,0.98193,0.04785,-0.25586,-53.015,0.893,24.55
2026-06-01 16:20:35.604,2214375060,119604,1,0.94629,0.05469,0.51343,-82.725,-16.733,-30.435
2026-06-01 16:20:35.604,2214375060,119604,2,1.04272,-0.1853,-0.3335,-84.779,2.702,22.176
2026-06-01 16:20:36.910,2214376366,119910,1,0.97803,-0.01367,0.47876,-42.679,-9.252,-21.023
2026-06-01 16:20:36.910,2214376366,119910,2,0.98145,-0.20044,-0.31982,-30.336,1.71,24.74
2026-06-01 16:20:36.110,2214375566,120110,1,0.98486,0.04883,0.49756,-21.336,0.542,-6.389
2026-06-01 16:20:36.110,2214375566,120110,2,0.9917,-0.17725,-0.32666,-28.565,1.405,9.954
2026-06-01 16:20:36.310,2214375766,120310,1,0.97534,0.01196,0.5249,-10.351,0.466,-5.954
2026-06-01 16:20:36.310,2214375766,120310,2,0.97412,-0.20703,-0.30908,-5.763,1.42,4.901
2026-06-01 16:20:36.510,2214375966,120510,1,0.95923,0.03247,0.53027,26.939,6.229,10.954
2026-06-01 16:20:36.510,2214375966,120510,2,0.9812,-0.15259,-0.32349,50.962,-4.588,-12.672
2026-06-01 16:20:36.710,2214376166,120710,1,0.98096,0.0686,0.49463,35.099,5.473,16.252
2026-06-01 16:20:36.710,2214376166,120710,2,0.98047,-0.13354,-0.28467,49.405,1.038,-12.809
2026-06-01 16:20:37.512,2214376968,121512,1,0.95898,0.09717,0.49561,-6.29,-6.473,-7.641
2026-06-01 16:20:37.512,2214376968,121512,2,1.05908,-0.14575,-0.25757,-12.046,3.718,10.977
2026-06-01 16:20:38.517,2214377973,122517,1,0.97363,0.11255,0.48682,-3.145,1.519,-2.252
2026-06-01 16:20:38.517,2214377973,122517,2,1.01221,-0.08301,-0.30249,-0.977,7.107,8.092
2026-06-01 16:20:39.310,2214378766,123310,1,1.00122,0.07446,0.49097,9.389,2.336,-2.229
2026-06-01 16:20:39.310,2214378766,123310,2,0.99927,-0.09326,-0.31665,15.008,2.252,-15.13
2026-06-01 16:20:39.510,2214378966,123510,1,0.9624,0.10107,0.50708,13.962,6.412,9.282
2026-06-01 16:20:39.510,2214378966,123510,2,1.00806,-0.06274,-0.2854,14.427,3.45,-3.405
2026-06-01 16:20:39.710,2214379166,123710,1,0.96387,0.0813,0.52124,6.519,12.267,8.061
2026-06-01 16:20:39.710,2214379166,123710,2,1.01001,-0.08057,-0.24536,5.947,7.496,0.122
2026-06-01 16:20:40.910,2214380366,123910,1,0.94238,0.05054,0.56128,4.817,7.947,6.473
2026-06-01 16:20:40.910,2214380366,123910,2,1.01245,-0.09277,-0.24341,4.817,4.756,1.489
2026-06-01 16:20:40.110,2214379566,124110,1,0.93701,0.03491,0.56689,0.626,0.832,2.924
2026-06-01 16:20:40.110,2214379566,124110,2,1.0144,-0.09375,-0.2373,-1.107,-2.237,2.405
2026-06-01 16:20:40.310,2214379766,124310,1,0.94922,0.0354,0.5498,-3.931,-4.328,-2.069
2026-06-01 16:20:40.310,2214379766,124310,2,1.00049,-0.10229,-0.25195,-5.58,-4.168,1.595
2026-06-01 16:20:40.510,2214379966,124510,1,0.96094,0.0332,0.52637,-8.313,-7.053,-5.985
2026-06-01 16:20:40.510,2214379966,124510,2,1.00586,-0.10278,-0.2832,-9.061,-4.397,3.611
2026-06-01 16:20:40.710,2214380166,124710,1,0.96875,0.03101,0.50952,-4.191,-3.916,-4.427
2026-06-01 16:20:40.710,2214380166,124710,2,1.0,-0.11646,-0.30273,-3.985,-4.565,1.695
2026-06-01 16:20:41.910,2214381366,124910,1,0.98853,0.04102,0.48022,0.924,0.137,-0.962
2026-06-01 16:20:41.910,2214381366,124910,2,1.00293,-0.1123,-0.30298,0.977,-1.313,-0.221
2026-06-01 16:20:41.110,2214380566,125110,1,0.97217,0.03296,0.46509,7.092,-1.809,-2.076
2026-06-01 16:20:41.110,2214380566,125110,2,1.00122,-0.09399,-0.30273,7.573,-2.565,-7.321
2026-06-01 16:20:41.310,2214380766,125310,1,0.99316,0.07593,0.4707,9.183,0.893,-2.641
2026-06-01 16:20:41.310,2214380766,125310,2,0.99927,-0.07666,-0.32642,7.145,-1.702,-5.947
2026-06-01 16:20:41.510,2214380966,125510,1,0.98438,0.09473,0.47046,6.122,3.634,-2.221
2026-06-01 16:20:41.510,2214380966,125510,2,1.00464,-0.06128,-0.33667,2.015,-0.206,-3.969
2026-06-01 16:20:41.710,2214381166,125710,1,0.97974,0.10229,0.48584,2.87,3.649,-2.771
2026-06-01 16:20:41.710,2214381166,125710,2,0.99512,-0.05225,-0.31543,-3.153,0.405,0.267
2026-06-01 16:20:42.910,2214382366,125910,1,0.97681,0.10889,0.48364,-0.351,1.443,-1.359
2026-06-01 16:20:42.910,2214382366,125910,2,0.99634,-0.06396,-0.3269,-5.542,0.275,3.542
2026-06-01 16:20:42.110,2214381566,126110,1,1.03174,0.14648,0.46997,-6.099,4.099,4.427
2026-06-01 16:20:42.110,2214381566,126110,2,1.03809,-0.00317,-0.35449,-22.634,10.389,16.603
2026-06-01 16:20:42.310,2214381766,126310,1,0.98291,0.08667,0.45288,-77.16,12.16,-30.458
2026-06-01 16:20:42.310,2214381766,126310,2,0.93555,-0.20142,-0.29102,-90.855,27.45,33.038
2026-06-01 16:20:42.510,2214381966,126510,1,0.94507,-0.11426,0.56641,-54.031,-0.634,-24.824
2026-06-01 16:20:42.510,2214381966,126510,2,0.96655,-0.33032,-0.24219,-62.305,0.847,2.71
2026-06-01 16:20:42.710,2214382166,126710,1,0.96948,-0.04297,0.50317,2.878,-3.321,-7.481
2026-06-01 16:20:42.710,2214382166,126710,2,0.99902,-0.23975,-0.26978,-13.389,-4.122,-9.069
2026-06-01 16:20:43.910,2214383366,126910,1,0.95313,0.02466,0.54346,-28.656,-2.992,-14.076
2026-06-01 16:20:43.910,2214383366,126910,2,0.96533,-0.14136,-0.29224,-32.0,8.611,7.031
2026-06-01 16:20:43.110,2214382566,127110,1,0.92065,0.03467,0.50635,-35.069,-7.191,-23.878
2026-06-01 16:20:43.110,2214382566,127110,2,0.96533,-0.18628,-0.28223,-29.603,-7.405,6.71
2026-06-01 16:20:43.310,2214382766,127310,1,0.99878,0.13159,0.51147,-5.29,-6.824,-3.481
2026-06-01 16:20:43.310,2214382766,127310,2,1.14258,-0.02246,-0.2981,-0.504,9.008,-12.702
2026-06-01 16:20:43.510,2214382966,127510,1,0.93262,0.1748,0.43018,-15.168,8.076,-15.924
2026-06-01 16:20:43.510,2214382966,127510,2,0.97974,0.06812,-0.33862,-24.855,12.763,-13.992
2026-06-01 16:20:43.710,2214383166,127710,1,0.96167,0.22681,0.47705,-50.351,16.756,-29.901
2026-06-01 16:20:43.710,2214383166,127710,2,0.93481,-0.04028,-0.3418,-58.244,26.427,8.282
2026-06-01 16:20:44.910,2214384366,127910,1,0.90552,0.18652,0.53906,-57.336,-14.489,-19.847
2026-06-01 16:20:44.910,2214384366,127910,2,1.1189,-0.12964,-0.24316,-54.214,15.214,37.397
2026-06-01 16:20:44.110,2214383566,128110,1,0.95361,-0.03809,0.67334,-11.435,-15.573,9.244
2026-06-01 16:20:44.110,2214383566,128110,2,1.0061,-0.20996,-0.1665,-8.443,-16.473,9.099
2026-06-01 16:20:44.310,2214383766,128310,1,0.90308,-0.05005,0.52759,3.374,-5.847,4.924
2026-06-01 16:20:44.310,2214383766,128310,2,0.9751,-0.18115,-0.1272,-7.557,-0.45,-14.718
2026-06-01 16:20:44.510,2214383966,128510,1,0.94482,-0.01611,0.53442,-4.405,6.618,-10.718
2026-06-01 16:20:44.510,2214383966,128510,2,0.99561,-0.19385,-0.20801,-10.084,0.099,3.069
2026-06-01 16:20:44.710,2214384166,128710,1,1.00854,-0.01196,0.51343,4.527,10.542,-1.443
2026-06-01 16:20:44.710,2214384166,128710,2,0.99023,-0.2085,-0.26929,10.183,2.412,-8.504
2026-06-01 16:20:45.910,2214385366,128910,1,0.96045,0.02197,0.48706,36.985,10.305,3.809
2026-06-01 16:20:45.910,2214385366,128910,2,0.99756,-0.11914,-0.30591,27.58,-3.519,-12.893
2026-06-01 16:20:45.110,2214384566,129110,1,1.02393,0.12524,0.47095,21.832,-8.435,0.29
2026-06-01 16:20:45.110,2214384566,129110,2,0.98267,-0.06079,-0.31909,9.855,-10.931,5.137
2026-06-01 16:20:45.310,2214384766,129310,1,0.9624,0.16309,0.51343,-21.985,-9.611,-11.26
2026-06-01 16:20:45.310,2214384766,129310,2,1.02783,-0.11157,-0.27808,-31.656,-1.466,22.008
2026-06-01 16:20:45.510,2214384966,129510,1,0.9646,0.0896,0.49634,-13.542,-6.427,-9.382
2026-06-01 16:20:45.510,2214384966,129510,2,1.00098,-0.12012,-0.20605,-6.099,4.901,-4.344
2026-06-01 16:20:45.710,2214385166,129710,1,0.96338,0.21509,0.53125,11.504,10.809,0.313
2026-06-01 16:20:45.710,2214385166,129710,2,1.03906,-0.0144,-0.2644,3.954,16.206,-10.221
2026-06-01 16:20:46.910,2214386366,129910,1,0.94165,0.22095,0.44727,-6.412,4.733,0.45
2026-06-01 16:20:46.910,2214386366,129910,2,0.96851,0.07837,-0.36865,-20.168,4.756,-7.679
2026-06-01 16:20:46.110,2214385566,130110,1,1.04199,0.21362,0.60693,-35.947,-26.511,-20.634
2026-06-01 16:20:46.110,2214385566,130110,2,0.97412,-0.31616,-0.25952,-63.527,5.916,29.618
2026-06-01 16:20:46.310,2214385766,130310,1,0.93628,0.03687,0.55127,-34.206,-6.687,-7.115
2026-06-01 16:20:46.310,2214385766,130310,2,1.0,-0.05151,-0.23853,-9.832,-10.275,4.954
2026-06-01 16:20:46.510,2214385966,130510,1,0.93579,0.04834,0.51343,-16.26,-8.832,-8.427
2026-06-01 16:20:46.510,2214385966,130510,2,0.98877,-0.11279,-0.24121,-22.023,-4.092,11.504
2026-06-01 16:20:46.710,2214386166,130710,1,1.00073,0.02002,0.48413,-16.0,1.809,-15.702
2026-06-01 16:20:46.710,2214386166,130710,2,1.00928,-0.18311,-0.28491,-28.649,5.985,2.29
2026-06-01 16:20:47.910,2214387366,130910,1,0.97778,0.03296,0.48633,-9.168,-0.359,-5.0
2026-06-01 16:20:47.910,2214387366,130910,2,0.99048,-0.14673,-0.27563,-6.863,-2.321,2.115
2026-06-01 16:20:47.110,2214386566,131110,1,0.98486,0.05664,0.50977,5.107,6.672,5.511
2026-06-01 16:20:47.110,2214386566,131110,2,1.00146,-0.09619,-0.30127,14.565,-2.802,-8.992
2026-06-01 16:20:47.310,2214386766,131310,1,0.96729,0.05273,0.50757,7.718,2.099,1.893
2026-06-01 16:20:47.310,2214386766,131310,2,0.99658,-0.10352,-0.28003,9.802,0.718,2.779
2026-06-01 16:20:47.525,2214386981,131525,1,0.98608,0.06641,0.47437,4.954,2.305,5.145
2026-06-01 16:20:47.525,2214386981,131525,2,1.01001,-0.09961,-0.29761,7.504,-2.107,-0.557
2026-06-01 16:20:47.725,2214387181,131725,1,0.98364,0.07227,0.47876,-2.992,0.672,-2.756
2026-06-01 16:20:47.725,2214387181,131725,2,0.9917,-0.09985,-0.30371,-3.282,5.107,7.466
2026-06-01 16:20:48.925,2214388381,131925,1,0.97437,0.04443,0.4978,-5.374,1.061,-4.099
2026-06-01 16:20:48.925,2214388381,131925,2,0.99927,-0.09619,-0.29346,-10.206,0.725,-3.328
2026-06-01 16:20:48.125,2214387581,132125,1,0.98438,0.07104,0.49707,-4.29,-0.687,-6.16
2026-06-01 16:20:48.125,2214387581,132125,2,1.00586,-0.1001,-0.27393,-7.969,-0.878,0.832
2026-06-01 16:20:48.325,2214387781,132325,1,0.98218,0.06567,0.48022,0.053,1.229,-2.733
2026-06-01 16:20:48.325,2214387781,132325,2,0.99414,-0.11743,-0.29443,-2.473,-0.855,-0.16
2026-06-01 16:20:48.525,2214387981,132525,1,0.97607,0.08984,0.48169,6.023,1.099,-2.954
2026-06-01 16:20:48.525,2214387981,132525,2,1.00635,-0.10205,-0.32422,-2.656,-7.16,-2.328
2026-06-01 16:20:48.725,2214388181,132725,1,0.97339,0.10376,0.46509,7.16,-1.435,-2.771
2026-06-01 16:20:48.725,2214388181,132725,2,0.99609,-0.09473,-0.30957,-1.718,-5.038,0.954
2026-06-01 16:20:49.925,2214389381,132925,1,0.98853,0.11304,0.46533,17.366,2.687,2.145
2026-06-01 16:20:49.925,2214389381,132925,2,0.9917,-0.0896,-0.32397,14.885,-4.458,-10.298
2026-06-01 16:20:49.125,2214388581,133125,1,0.98193,0.10767,0.4585,31.679,2.802,12.511
2026-06-01 16:20:49.125,2214388581,133125,2,0.98877,-0.05664,-0.3916,39.702,-7.847,-14.122
2026-06-01 16:20:49.344,2214388800,133343,1,0.99072,0.10889,0.43701,27.206,3.557,21.076
2026-06-01 16:20:49.344,2214388800,133343,2,0.97803,-0.04541,-0.37158,33.45,-8.031,-7.443
2026-06-01 16:20:49.543,2214388999,133543,1,1.00659,0.08203,0.43677,14.473,2.412,10.282
2026-06-01 16:20:49.543,2214388999,133543,2,0.9873,-0.03149,-0.3894,6.748,-1.71,2.534
2026-06-01 16:20:49.743,2214389199,133743,1,1.01196,0.03149,0.44165,-2.534,-2.878,-0.031
2026-06-01 16:20:49.743,2214389199,133743,2,0.97168,-0.05688,-0.37402,-7.214,-1.618,5.458
2026-06-01 16:20:50.943,2214390399,133943,1,1.01709,0.05347,0.40552,14.198,4.344,3.969
2026-06-01 16:20:50.943,2214390399,133943,2,0.97363,-0.08057,-0.3728,14.046,0.794,-11.382
2026-06-01 16:20:50.143,2214389599,134143,1,0.9917,0.08838,0.42358,18.588,6.481,11.443
2026-06-01 16:20:50.143,2214389599,134143,2,0.94214,-0.02783,-0.4082,18.84,1.611,-2.527
2026-06-01 16:20:50.343,2214389799,134343,1,1.01904,0.03101,0.41846,8.267,2.565,0.176
2026-06-01 16:20:50.343,2214389799,134343,2,0.98071,-0.04639,-0.37061,0.092,7.771,3.16
2026-06-01 16:20:50.543,2214389999,134543,1,1.01172,0.04346,0.44653,-9.649,1.153,-13.939
2026-06-01 16:20:50.543,2214389999,134543,2,1.00488,-0.06299,-0.3186,-27.855,3.962,4.344
2026-06-01 16:20:50.743,2214390199,134743,1,0.97607,0.03491,0.48413,-34.328,2.458,-16.313
2026-06-01 16:20:50.743,2214390199,134743,2,0.99243,-0.09497,-0.29272,-36.145,4.603,12.26
2026-06-01 16:20:51.943,2214391399,134943,1,0.96338,0.01709,0.49731,-24.511,-0.504,-16.893
2026-06-01 16:20:51.943,2214391399,134943,2,0.99609,-0.1311,-0.30615,-21.405,-0.359,1.427
2026-06-01 16:20:51.143,2214390599,135143,1,0.9812,0.06299,0.4729,10.824,-2.84,-9.183
2026-06-01 16:20:51.143,2214390599,135143,2,1.00098,-0.13745,-0.30322,12.084,-13.229,-3.061
2026-06-01 16:20:51.343,2214390799,135343,1,0.97485,0.01563,0.44873,28.015,-2.26,15.687
2026-06-01 16:20:51.343,2214390799,135343,2,1.00195,-0.17529,-0.3208,29.656,-14.031,-7.634
2026-06-01 16:20:51.543,2214390999,135543,1,1.05176,0.00781,0.4751,17.733,10.534,22.252
2026-06-01 16:20:51.543,2214390999,135543,2,1.06152,-0.08179,-0.32056,16.664,7.687,-9.847
2026-06-01 16:20:51.743,2214391199,135743,1,0.93628,0.02368,0.51001,11.168,16.939,2.443
2026-06-01 16:20:51.743,2214391199,135743,2,0.99585,-0.08838,-0.28638,56.87,23.389,-2.137
2026-06-01 16:20:52.943,2214392399,135943,1,1.05664,0.14624,0.51611,80.771,26.427,18.893
2026-06-01 16:20:52.943,2214392399,135943,2,1.03442,-0.11841,-0.39282,52.878,-6.634,-33.962
2026-06-01 16:20:52.143,2214391599,136143,1,0.90552,0.26343,0.47119,80.16,2.916,37.076
2026-06-01 16:20:52.143,2214391599,136143,2,0.95142,0.16284,-0.36255,94.916,-5.366,-27.527
2026-06-01 16:20:52.343,2214391799,136343,1,0.92725,0.23877,0.48633,36.221,-9.153,18.122
2026-06-01 16:20:52.343,2214391799,136343,2,1.04346,0.03491,-0.35522,37.13,-12.084,6.565
2026-06-01 16:20:52.543,2214391999,136543,1,0.9856,0.12451,0.45508,73.336,14.229,34.466
2026-06-01 16:20:52.543,2214391999,136543,2,0.9978,-0.02783,-0.3335,109.656,-0.595,-27.313
2026-06-01 16:20:52.743,2214392199,136743,1,0.96045,0.18115,0.43286,112.924,22.366,42.053
2026-06-01 16:20:52.743,2214392199,136743,2,1.01929,-0.00195,-0.33374,95.916,-0.053,-32.687
2026-06-01 16:20:53.943,2214393399,136943,1,0.94312,0.10913,0.50439,86.84,18.489,36.366
2026-06-01 16:20:53.943,2214393399,136943,2,1.0603,0.03174,-0.33545,71.55,-20.061,-42.076
2026-06-01 16:20:53.143,2214392599,137143,1,1.0127,0.13037,0.52002,47.229,16.206,16.237
2026-06-01 16:20:53.143,2214392599,137143,2,1.04517,-0.16113,-0.2478,56.626,15.427,11.366
2026-06-01 16:20:53.343,2214392799,137343,1,0.95093,0.03735,0.50806,38.374,20.573,37.58
2026-06-01 16:20:53.343,2214392799,137343,2,0.96851,-0.08398,-0.29492,53.786,1.863,-6.763
2026-06-01 16:20:53.543,2214392999,137543,1,0.94727,0.0813,0.49536,34.58,11.405,17.031
2026-06-01 16:20:53.543,2214392999,137543,2,0.99512,-0.02393,-0.33228,32.237,5.015,-13.702
2026-06-01 16:20:53.743,2214393199,137743,1,1.03101,0.12964,0.521,11.489,-6.305,-5.832
2026-06-01 16:20:53.743,2214393199,137743,2,1.05908,0.02466,-0.29028,-6.252,-8.046,2.733
2026-06-01 16:20:54.943,2214394399,137943,1,0.91992,0.14087,0.50586,-19.29,-6.985,-20.534
2026-06-01 16:20:54.943,2214394399,137943,2,0.97998,0.02124,-0.3313,-20.695,-4.427,6.527
2026-06-01 16:20:54.143,2214393599,138143,1,0.93188,0.27124,0.56714,-23.473,-11.244,-32.031
2026-06-01 16:20:54.143,2214393599,138143,2,1.00415,0.00659,-0.20801,-27.977,16.924,13.718
2026-06-01 16:20:54.343,2214393799,138343,1,0.88892,0.34302,0.59619,-37.603,0.183,-15.435
2026-06-01 16:20:54.343,2214393799,138343,2,1.01221,0.00049,-0.28052,-54.076,11.267,19.115
2026-06-01 16:20:54.543,2214393999,138543,1,0.83667,0.35278,0.52856,-68.069,-14.664,-17.16
2026-06-01 16:20:54.543,2214393999,138543,2,1.00269,0.11499,-0.33667,-95.221,-13.336,27.137
2026-06-01 16:20:54.743,2214394199,138743,1,0.99951,0.17041,0.46484,-90.603,-20.992,-30.588
2026-06-01 16:20:54.743,2214394199,138743,2,1.04102,-0.04468,-0.27441,-93.176,-5.588,22.58
2026-06-01 16:20:55.943,2214395399,138943,1,0.98755,0.04443,0.47949,-62.672,-3.275,-18.214
2026-06-01 16:20:55.943,2214395399,138943,2,1.0813,-0.09302,-0.43506,-66.901,-17.794,-8.366
2026-06-01 16:20:55.143,2214394599,139143,1,1.01685,0.11499,0.43213,-90.061,-8.824,-43.931
2026-06-01 16:20:55.143,2214394599,139143,2,1.01099,-0.2229,-0.35132,-110.252,25.198,76.382
2026-06-01 16:20:55.343,2214394799,139343,1,0.93994,-0.03467,0.50464,-76.885,-9.611,-29.939
2026-06-01 16:20:55.343,2214394799,139343,2,0.95776,-0.1626,-0.302,-85.198,4.603,0.061
2026-06-01 16:20:55.543,2214394999,139543,1,0.99902,-0.00732,0.50781,-43.794,-9.626,-25.649
2026-06-01 16:20:55.543,2214394999,139543,2,0.97632,-0.16699,-0.2998,-26.748,0.863,8.458
2026-06-01 16:20:55.743,2214395199,139743,1,1.02368,0.00757,0.46509,13.344,-0.611,-9.924
2026-06-01 16:20:55.743,2214395199,139743,2,0.9668,-0.23315,-0.37915,0.137,-14.099,-9.87
2026-06-01 16:20:56.978,2214396434,139978,1,1.01001,0.19678,0.51929,32.626,16.939,19.344
2026-06-01 16:20:56.978,2214396434,139978,2,0.97681,-0.04004,-0.40918,82.672,14.908,-32.046
2026-06-01 16:20:56.178,2214395634,140178,1,0.95166,0.16943,0.54858,5.198,4.649,-0.679
2026-06-01 16:20:56.178,2214395634,140178,2,0.95215,-0.04053,-0.32422,12.244,0.893,-3.038
2026-06-01 16:20:56.378,2214395834,140378,1,0.96484,0.13281,0.51733,26.771,3.656,18.771
2026-06-01 16:20:56.378,2214395834,140378,2,1.00757,-0.08472,-0.29419,39.198,-2.794,-12.176
2026-06-01 16:20:56.578,2214396034,140578,1,0.97754,0.14526,0.4624,30.137,5.382,11.435
2026-06-01 16:20:56.578,2214396034,140578,2,1.00708,-0.06055,-0.31226,21.534,1.672,1.947
2026-06-01 16:20:56.778,2214396234,140778,1,0.96973,0.15234,0.47681,-1.649,1.878,-2.351
2026-06-01 16:20:56.778,2214396234,140778,2,1.00781,-0.0957,-0.31641,-17.061,-2.122,6.893
2026-06-01 16:20:57.990,2214397446,140990,1,0.97485,0.12061,0.48145,-29.672,1.366,-16.718
2026-06-01 16:20:57.990,2214397446,140990,2,1.00098,-0.14697,-0.25854,-27.26,8.443,5.687
2026-06-01 16:20:57.250,2214396706,141250,1,0.96338,0.09595,0.50586,-20.901,1.252,-8.947
2026-06-01 16:20:57.250,2214396706,141250,2,1.00171,-0.16235,-0.2644,-20.718,4.168,8.191
2026-06-01 16:20:57.450,2214396906,141450,1,0.96997,0.10254,0.51147,-17.573,2.931,-4.725
2026-06-01 16:20:57.450,2214396906,141450,2,1.01538,-0.15918,-0.27319,-28.481,3.534,10.649
2026-06-01 16:20:57.650,2214397106,141650,1,0.97485,0.05688,0.5166,-8.321,6.84,-8.656
2026-06-01 16:20:57.650,2214397106,141650,2,1.00366,-0.19409,-0.25708,-11.542,8.405,2.595
2026-06-01 16:20:57.850,2214397306,141850,1,0.9436,0.11157,0.53735,-6.84,16.008,-6.954
2026-06-01 16:20:57.850,2214397306,141850,2,1.00537,-0.15283,-0.19336,-21.008,21.275,-4.664
2026-06-01 16:20:58.050,2214397506,142050,1,0.89575,0.05225,0.67188,-17.542,8.015,-12.832
2026-06-01 16:20:58.050,2214397506,142050,2,1.00928,-0.16016,-0.17676,-16.252,7.87,-4.496
2026-06-01 16:20:58.250,2214397706,142250,1,0.87183,0.1084,0.65283,28.191,5.733,0.084
2026-06-01 16:20:58.250,2214397706,142250,2,1.02148,-0.10571,-0.18408,47.611,-11.641,-25.473
2026-06-01 16:20:58.450,2214397906,142450,1,0.88623,0.20972,0.59888,53.802,4.573,26.786
2026-06-01 16:20:58.450,2214397906,142450,2,1.01831,-0.02759,-0.22485,66.221,-12.84,-12.527
2026-06-01 16:20:58.650,2214398106,142650,1,0.94971,0.19116,0.51953,45.176,4.977,34.389
2026-06-01 16:20:58.650,2214398106,142650,2,1.00806,-0.04248,-0.26514,65.611,-8.924,-7.84
2026-06-01 16:20:58.850,2214398306,142850,1,0.96875,0.14844,0.51416,51.855,5.481,31.985
2026-06-01 16:20:58.850,2214398306,142850,2,1.01465,-0.00928,-0.29272,54.359,-5.58,-4.832
2026-06-01 16:20:59.050,2214398506,143050,1,0.94824,0.17578,0.52124,28.626,4.427,12.626
2026-06-01 16:20:59.050,2214398506,143050,2,1.02637,0.021,-0.28662,1.779,-3.29,-4.198
2026-06-01 16:20:59.250,2214398706,143250,1,0.94385,0.19238,0.51367,-16.382,1.985,-12.84
2026-06-01 16:20:59.250,2214398706,143250,2,1.0376,-0.04761,-0.25879,-54.672,2.931,17.916
2026-06-01 16:20:59.505,2214398961,143505,1,0.93408,0.11694,0.53491,-46.046,-2.733,-23.695
2026-06-01 16:20:59.505,2214398961,143505,2,0.97339,-0.10352,-0.28125,-37.42,7.397,9.237
2026-06-01 16:20:59.741,2214399197,143741,1,0.94214,0.10889,0.55859,-12.634,-1.267,-1.893
2026-06-01 16:20:59.741,2214399197,143741,2,1.02051,-0.10669,-0.26172,10.046,4.267,-0.763
2026-06-01 16:21:00.941,2214400397,143941,1,0.93677,0.10742,0.54102,12.153,4.687,10.71
2026-06-01 16:21:00.941,2214400397,143941,2,1.01587,-0.07813,-0.25391,21.427,1.672,-0.992
2026-06-01 16:21:00.170,2214399626,144170,1,0.98682,0.15576,0.5437,19.145,7.023,6.305
2026-06-01 16:21:00.170,2214399626,144170,2,1.13989,-0.00781,-0.25903,9.672,10.038,-1.084
2026-06-01 16:21:00.370,2214399826,144370,1,0.91602,0.17236,0.56323,-73.046,14.427,-32.542
2026-06-01 16:21:00.370,2214399826,144370,2,0.89648,-0.26978,-0.17505,-157.443,30.511,38.244
2026-06-01 16:21:00.586,2214400042,144586,1,0.97803,-0.22974,0.55688,-116.885,-20.802,-72.687
2026-06-01 16:21:00.586,2214400042,144586,2,0.8894,-0.39917,-0.20776,-161.397,11.679,-1.565
2026-06-01 16:21:00.786,2214400242,144786,1,1.11914,-0.05566,0.57104,-100.672,-50.916,-72.885
2026-06-01 16:21:00.786,2214400242,144786,2,1.13721,-0.15674,-0.354,-92.427,-0.802,10.061
2026-06-01 16:21:01.986,2214401442,144986,1,0.88623,0.0603,0.61206,-102.206,13.977,-41.16
2026-06-01 16:21:01.986,2214401442,144986,2,0.94116,-0.09448,-0.23755,-100.252,9.74,-26.809
2026-06-01 16:21:01.186,2214400642,145186,1,0.87842,-0.00659,0.56714,-77.046,-0.023,-46.733
2026-06-01 16:21:01.186,2214400642,145186,2,0.94287,-0.14282,-0.34644,-70.466,-5.71,-5.534
2026-06-01 16:21:01.386,2214400842,145386,1,0.94507,0.27686,0.43579,-51.122,-27.023,-45.115
2026-06-01 16:21:01.386,2214400842,145386,2,1.72852,-0.36743,-0.38818,-132.229,-26.939,93.076
2026-06-01 16:21:01.586,2214401042,145586,1,0.98438,-0.15454,0.65088,-92.947,14.214,6.145
2026-06-01 16:21:01.586,2214401042,145586,2,0.646,-0.16089,0.30249,-46.298,16.924,-33.076
2026-06-01 16:21:01.786,2214401242,145786,1,0.81079,-0.09717,0.61621,-49.74,-5.42,-58.084
2026-06-01 16:21:01.786,2214401242,145786,2,0.96533,-0.25342,-0.26074,-54.344,-11.153,-2.252
2026-06-01 16:21:02.986,2214402442,145986,1,0.92139,-0.05835,0.51709,5.084,-12.305,-13.916
2026-06-01 16:21:02.986,2214402442,145986,2,0.92822,-0.24878,-0.39136,16.282,-30.809,-3.817
2026-06-01 16:21:02.186,2214401642,146186,1,0.86694,0.37012,0.7063,37.679,40.061,0.16
2026-06-01 16:21:02.186,2214401642,146186,2,0.99316,0.06519,-0.07861,9.137,4.779,23.115
2026-06-01 16:21:02.386,2214401842,146386,1,0.854,0.23657,0.50879,12.58,-1.122,6.634
2026-06-01 16:21:02.386,2214401842,146386,2,0.79517,0.13574,-0.24683,-18.321,-13.687,-42.595
2026-06-01 16:21:02.586,2214402042,146586,1,1.69141,0.49658,0.67456,13.527,-86.847,13.038
2026-06-01 16:21:02.586,2214402042,146586,2,1.15308,0.03613,-0.13745,-11.458,-45.87,37.397
2026-06-01 16:21:02.786,2214402242,146786,1,0.80957,0.23462,0.61694,51.519,33.282,-11.489
2026-06-01 16:21:02.786,2214402242,146786,2,0.99634,0.05884,-0.16138,31.015,-11.588,40.0
2026-06-01 16:21:03.991,2214403447,146990,1,0.74463,0.16357,0.54297,67.0,20.725,66.565
2026-06-01 16:21:03.991,2214403447,146990,2,0.84277,0.00586,-0.08765,92.076,7.405,-19.267
2026-06-01 16:21:03.432,2214402888,147431,1,0.80615,0.30273,0.50586,71.763,29.382,59.412
2026-06-01 16:21:03.432,2214402888,147431,2,1.0083,0.21973,-0.44556,16.252,-4.733,-22.084
2026-06-01 16:21:03.696,2214403152,147696,1,0.9314,0.24048,0.59692,18.443,-38.634,6.519
