datetime,epoch_ms,ts_millis,mpu_id,ax,ay,az,gx,gy,gz
2026-05-20 15:20:56.284,1173995740,7284,1,0.89502,0.23779,0.53833,14.634,1.42,27.847
2026-05-20 15:20:56.284,1173995740,7284,2,1.03125,0.08765,-0.11621,5.076,-12.031,18.84
2026-05-20 15:20:56.484,1173995940,7484,1,1.13086,0.10132,0.47412,10.641,-35.519,26.519
2026-05-20 15:20:56.484,1173995940,7484,2,0.96021,-0.02637,-0.01318,59.878,31.122,26.885
2026-05-20 15:20:56.684,1173996140,7684,1,1.02417,-0.20264,0.375,41.267,-19.366,28.069
2026-05-20 15:20:56.684,1173996140,7684,2,0.93823,-0.41357,-0.10181,87.855,-6.412,37.191
2026-05-20 15:20:56.884,1173996340,7884,1,0.99756,-0.33594,0.3125,45.115,-17.481,39.588
2026-05-20 15:20:56.884,1173996340,7884,2,0.95361,-0.30884,-0.22339,68.458,-11.267,18.405
2026-05-20 15:20:56.084,1173995540,8084,1,1.09814,-0.33179,0.14136,58.847,4.504,14.496
2026-05-20 15:20:56.084,1173995540,8084,2,0.93945,-0.36255,-0.20483,71.153,-3.328,-11.641
2026-05-20 15:20:57.284,1173996740,8284,1,0.98682,-0.24316,0.31372,49.313,-4.038,-12.13
2026-05-20 15:20:57.284,1173996740,8284,2,0.9939,-0.30396,-0.24292,53.214,-11.008,-27.824
2026-05-20 15:20:57.484,1173996940,8484,1,1.26904,-0.13647,0.39771,42.0,-25.359,0.687
2026-05-20 15:20:57.484,1173996940,8484,2,0.91772,-0.01465,-0.073,23.664,9.473,-21.267
2026-05-20 15:20:57.684,1173997140,8684,1,0.94946,0.1167,0.52417,6.824,21.481,-16.023
2026-05-20 15:20:57.684,1173997140,8684,2,0.9646,0.02881,-0.02759,18.183,2.634,-8.321
2026-05-20 15:20:57.884,1173997340,8884,1,0.98193,0.1958,0.44287,-18.557,5.924,-8.641
2026-05-20 15:20:57.884,1173997340,8884,2,0.99707,-0.02832,-0.0415,-40.489,19.763,-7.885
2026-05-20 15:20:57.084,1173996540,9084,1,0.9707,0.14014,0.46094,-55.855,1.374,-24.015
2026-05-20 15:20:57.084,1173996540,9084,2,0.98047,0.0332,-0.02686,-72.794,8.611,8.71
2026-05-20 15:20:58.284,1173997740,9284,1,0.95557,0.20898,0.53711,-99.618,-13.145,-18.939
2026-05-20 15:20:58.284,1173997740,9284,2,0.98633,0.21411,-0.22144,-130.489,2.313,1.985
2026-05-20 15:20:58.484,1173997940,9484,1,0.97046,-0.06616,0.36621,-91.374,-10.817,-33.962
2026-05-20 15:20:58.484,1173997940,9484,2,0.96338,-0.375,0.02344,-117.176,-13.382,4.191
2026-05-20 15:20:58.684,1173998140,9684,1,1.0022,-0.16016,0.33716,-88.374,-6.519,-10.939
2026-05-20 15:20:58.684,1173998140,9684,2,1.01025,-0.24487,-0.17212,-73.427,18.237,27.252
2026-05-20 15:20:58.884,1173998340,9884,1,1.0188,-0.22241,0.29224,-94.824,12.603,-1.397
2026-05-20 15:20:58.884,1173998340,9884,2,0.93726,-0.37378,-0.20605,-108.863,5.802,33.656
2026-05-20 15:20:58.084,1173997540,10084,1,0.98218,-0.46851,0.31445,-39.809,13.305,-8.031
2026-05-20 15:20:58.084,1173997540,10084,2,0.89307,-0.45972,-0.22607,-21.634,11.153,8.191
2026-05-20 15:20:59.284,1173998740,10284,1,0.95288,-0.42114,0.34033,15.611,-1.672,-3.863
2026-05-20 15:20:59.284,1173998740,10284,2,0.9187,-0.43188,-0.21631,24.527,10.679,-20.321
2026-05-20 15:20:59.484,1173998940,10484,1,0.95801,-0.24414,0.36328,29.504,3.42,-14.015
2026-05-20 15:20:59.484,1173998940,10484,2,0.9375,-0.33374,-0.16431,37.13,-22.954,-28.328
2026-05-20 15:20:59.684,1173999140,10684,1,0.99268,0.03589,0.48511,50.779,13.847,-7.771
2026-05-20 15:20:59.684,1173999140,10684,2,1.14502,-0.02881,-0.18237,75.229,-19.336,-2.359
2026-05-20 15:20:59.884,1173999340,10884,1,0.90063,0.10059,0.40283,61.473,2.389,1.466
2026-05-20 15:20:59.884,1173999340,10884,2,1.02563,-0.03345,-0.17944,35.038,6.679,-27.443
2026-05-20 15:20:59.084,1173998540,11084,1,1.02515,0.11914,0.38501,43.718,6.115,0.13
2026-05-20 15:20:59.084,1173998540,11084,2,1.00854,-0.01929,-0.04419,29.618,4.115,-10.763
2026-05-20 15:21:00.284,1173999740,11284,1,0.97827,0.12622,0.44556,10.023,5.481,-4.649
2026-05-20 15:21:00.284,1173999740,11284,2,1.03516,0.06812,-0.1189,5.099,-7.74,-6.443
2026-05-20 15:21:00.484,1173999940,11484,1,0.97754,0.21753,0.46875,-5.038,3.328,-7.702
2026-05-20 15:21:00.484,1173999940,11484,2,1.03882,0.0354,-0.09399,-11.664,7.099,2.969
2026-05-20 15:21:00.684,1174000140,11684,1,0.96289,0.21484,0.41675,-21.664,-4.55,6.603
2026-05-20 15:21:00.684,1174000140,11684,2,1.00122,0.04346,-0.09497,-23.298,-13.802,15.29
2026-05-20 15:21:00.884,1174000340,11884,1,1.07959,0.08398,0.39111,-9.832,-12.733,15.58
2026-05-20 15:21:00.884,1174000340,11884,2,0.99829,-0.03638,-0.03809,18.313,24.405,18.779
2026-05-20 15:21:00.084,1173999540,12084,1,1.16699,-0.22607,0.43262,-13.58,1.954,22.244
2026-05-20 15:21:00.084,1173999540,12084,2,0.82129,-0.43042,-0.06641,10.573,-20.42,20.519
2026-05-20 15:21:01.315,1174000771,12315,1,0.88062,-0.27515,0.448,6.069,2.389,25.038
2026-05-20 15:21:01.315,1174000771,12315,2,1.0354,-0.24658,-0.12622,-20.435,7.84,2.137
2026-05-20 15:21:01.527,1174000983,12527,1,0.94556,-0.30127,0.21509,-0.42,-8.786,-11.267
2026-05-20 15:21:01.527,1174000983,12527,2,0.87476,-0.35034,-0.20947,-1.443,16.115,-1.008
2026-05-20 15:21:01.727,1174001183,12727,1,0.92236,-0.37207,0.44604,62.939,-13.145,-5.908
2026-05-20 15:21:01.727,1174001183,12727,2,1.11353,-0.25635,-0.11572,39.763,-11.679,-16.824
2026-05-20 15:21:01.927,1174001383,12927,1,0.92041,-0.01953,0.31763,65.55,11.58,-18.13
2026-05-20 15:21:01.927,1174001383,12927,2,1.12134,-0.06226,0.00415,65.29,-20.107,-15.954
2026-05-20 15:21:01.127,1174000583,13127,1,1.02393,0.20972,0.2522,28.87,-24.687,-1.282
2026-05-20 15:21:01.127,1174000583,13127,2,1.02686,-0.02979,0.04639,22.405,-9.206,-9.947
2026-05-20 15:21:02.327,1174001783,13327,1,0.97339,0.1499,0.40259,56.008,-5.649,25.015
2026-05-20 15:21:02.327,1174001783,13327,2,0.99072,0.11719,-0.10425,31.656,-17.557,7.656
2026-05-20 15:21:02.527,1174001983,13527,1,1.03003,0.1897,0.29785,-35.947,26.802,-4.924
2026-05-20 15:21:02.527,1174001983,13527,2,0.97363,0.06055,-0.15771,-54.405,29.13,-3.13
2026-05-20 15:21:02.727,1174002183,13727,1,0.9729,0.12378,0.33008,-74.87,-22.763,-28.076
2026-05-20 15:21:02.727,1174002183,13727,2,1.04102,0.12524,-0.17944,-89.992,-4.42,-0.664
2026-05-20 15:21:02.927,1174002383,13927,1,1.06836,0.02148,0.24854,-75.282,12.542,2.786
2026-05-20 15:21:02.927,1174002383,13927,2,0.95459,-0.10913,-0.19629,-87.611,-33.893,11.763
2026-05-20 15:21:02.127,1174001583,14127,1,1.11597,-0.06616,0.08789,-86.779,15.931,10.756
2026-05-20 15:21:02.127,1174001583,14127,2,0.99146,-0.27637,-0.30859,-93.153,6.992,31.397
2026-05-20 15:21:03.327,1174002783,14327,1,0.93384,-0.32861,0.14844,-80.275,29.191,20.931
2026-05-20 15:21:03.327,1174002783,14327,2,0.90234,-0.34766,-0.29858,-60.557,22.008,47.092
2026-05-20 15:21:03.527,1174002983,14527,1,0.93433,-0.46289,0.31494,-9.763,0.313,14.298
2026-05-20 15:21:03.527,1174002983,14527,2,1.01514,-0.32056,-0.24194,-12.687,4.496,-23.771
2026-05-20 15:21:03.727,1174003183,14727,1,0.97583,-0.31201,0.27563,23.863,-4.229,-4.26
2026-05-20 15:21:03.727,1174003183,14727,2,0.92432,-0.36377,-0.28027,65.527,-37.42,-1.313
2026-05-20 15:21:03.927,1174003383,14927,1,1.03442,-0.27466,0.22144,102.519,-15.435,21.374
2026-05-20 15:21:03.927,1174003383,14927,2,0.98828,-0.27734,-0.26343,118.763,-13.115,-16.87
2026-05-20 15:21:03.127,1174002583,15127,1,0.97217,-0.25293,0.25317,124.13,4.45,10.206
2026-05-20 15:21:03.127,1174002583,15127,2,0.94507,-0.19922,-0.28833,125.718,-15.13,-37.008
2026-05-20 15:21:04.327,1174003783,15327,1,0.89673,0.17773,0.33081,151.634,17.656,5.237
2026-05-20 15:21:04.327,1174003783,15327,2,0.9436,0.14575,0.05493,132.947,27.771,-0.939
2026-05-20 15:21:04.527,1174003983,15527,1,0.90869,0.18066,0.44116,66.496,-3.344,23.618
2026-05-20 15:21:04.527,1174003983,15527,2,0.9751,0.12305,0.04126,82.305,19.954,3.794
2026-05-20 15:21:04.727,1174004183,15727,1,0.98389,0.17651,0.44922,57.695,0.275,38.191
2026-05-20 15:21:04.727,1174004183,15727,2,0.97534,0.08691,-0.04004,46.931,16.427,25.679
2026-05-20 15:21:04.927,1174004383,15927,1,1.19849,-0.229,0.47583,23.031,-0.641,40.656
2026-05-20 15:21:04.927,1174004383,15927,2,0.94165,-0.29028,0.02979,75.855,-72.0,10.527
2026-05-20 15:21:04.127,1174003583,16127,1,0.96289,-0.17725,0.32129,48.74,-13.015,40.13
2026-05-20 15:21:04.127,1174003583,16127,2,1.04053,-0.19189,-0.11621,46.221,-7.023,5.748
2026-05-20 15:21:05.327,1174004783,16327,1,0.96094,-0.40674,0.42017,30.267,-25.282,10.366
2026-05-20 15:21:05.327,1174004783,16327,2,0.9502,-0.34277,-0.02832,99.878,-34.824,3.389
2026-05-20 15:21:05.527,1174004983,16527,1,1.13721,-0.27563,0.18579,92.55,-35.023,50.641
2026-05-20 15:21:05.527,1174004983,16527,2,0.96118,-0.00122,-0.01001,70.985,30.611,16.573
2026-05-20 15:21:05.727,1174005183,16727,1,0.98901,-0.24902,0.24536,24.832,1.824,13.679
2026-05-20 15:21:05.727,1174005183,16727,2,0.99268,-0.10425,0.03882,36.29,-1.84,9.725
2026-05-20 15:21:05.927,1174005383,16927,1,0.93433,-0.38623,0.29565,13.221,-15.198,18.412
2026-05-20 15:21:05.927,1174005383,16927,2,0.96362,-0.20093,0.07861,10.557,9.817,7.458
2026-05-20 15:21:05.127,1174004583,17127,1,1.03589,-0.41284,0.30371,5.435,-8.366,-1.244
2026-05-20 15:21:05.127,1174004583,17127,2,0.97412,-0.27441,0.11182,-1.84,2.244,-3.267
2026-05-20 15:21:06.327,1174005783,17327,1,0.9541,-0.39136,0.26221,-7.374,-7.168,6.145
2026-05-20 15:21:06.327,1174005783,17327,2,0.98364,-0.25562,0.15039,21.496,12.855,-1.031
2026-05-20 15:21:06.527,1174005983,17527,1,0.95142,-0.45166,0.27051,-16.397,0.992,-4.489
2026-05-20 15:21:06.527,1174005983,17527,2,0.93774,-0.19604,-0.01196,-13.366,-12.359,-1.992
2026-05-20 15:21:09.467,1174008923,20467,1,1.06567,-0.20776,0.30566,23.893,-20.603,-11.16
2026-05-20 15:21:09.467,1174008923,20467,2,1.01123,-0.1958,-0.00708,26.992,20.527,-4.641
2026-05-20 15:21:09.667,1174009123,20667,1,1.04907,-0.14502,0.31274,13.496,7.489,-9.679
2026-05-20 15:21:09.667,1174009123,20667,2,1.03223,-0.11816,-0.10107,3.679,-7.481,-4.221
2026-05-20 15:21:09.867,1174009323,20867,1,1.0127,-0.11694,0.31006,2.863,6.16,-8.191
2026-05-20 15:21:09.867,1174009323,20867,2,1.02563,-0.08984,-0.08887,-1.977,0.664,-4.618
2026-05-20 15:21:09.067,1174008523,21067,1,1.03003,-0.09326,0.29077,-5.099,1.374,-6.786
2026-05-20 15:21:09.067,1174008523,21067,2,1.03101,-0.08911,-0.07959,-10.901,-4.015,-2.252
2026-05-20 15:21:10.267,1174009723,21267,1,1.02759,-0.11133,0.28882,-6.817,-1.427,-1.244
2026-05-20 15:21:10.267,1174009723,21267,2,1.01514,-0.11011,-0.1333,-6.13,-9.076,3.038
2026-05-20 15:21:10.467,1174009923,21467,1,1.04614,-0.13599,0.28809,-5.557,-1.702,1.153
2026-05-20 15:21:10.467,1174009923,21467,2,1.01978,-0.12866,-0.11133,-5.748,0.313,1.687
2026-05-20 15:21:10.667,1174010123,21667,1,1.03906,-0.14746,0.27734,-3.87,-0.076,-0.687
2026-05-20 15:21:10.667,1174010123,21667,2,1.03101,-0.11377,-0.14575,-3.924,1.725,0.954
2026-05-20 15:21:10.867,1174010323,21867,1,1.03906,-0.13843,0.26978,-0.817,1.466,-0.611
2026-05-20 15:21:10.867,1174010323,21867,2,1.02344,-0.11206,-0.14478,-1.824,1.458,0.069
2026-05-20 15:21:10.067,1174009523,22067,1,1.02197,-0.12964,0.27783,0.985,1.74,-0.595
2026-05-20 15:21:10.067,1174009523,22067,2,1.02197,-0.10742,-0.15088,-2.397,0.733,-1.206
2026-05-20 15:21:11.267,1174010723,22267,1,1.03418,-0.11694,0.27393,-0.481,-0.802,-1.206
2026-05-20 15:21:11.267,1174010723,22267,2,1.03003,-0.09375,-0.12451,0.252,-1.412,-0.076
2026-05-20 15:21:11.467,1174010923,22467,1,1.03442,-0.12158,0.27783,0.031,-0.359,-0.565
2026-05-20 15:21:11.467,1174010923,22467,2,1.03296,-0.10571,-0.1377,-3.733,-1.16,0.412
2026-05-20 15:21:11.667,1174011123,22667,1,1.0354,-0.13037,0.26245,-0.985,1.046,-0.405
2026-05-20 15:21:11.667,1174011123,22667,2,1.03052,-0.10693,-0.15308,-3.748,-1.557,0.779
2026-05-20 15:21:11.867,1174011323,22867,1,1.03149,-0.12866,0.26953,-1.878,1.481,0.351
2026-05-20 15:21:11.867,1174011323,22867,2,1.02466,-0.11133,-0.14063,-1.885,-0.321,0.794
2026-05-20 15:21:11.067,1174010523,23067,1,1.03003,-0.12305,0.27271,0.336,0.237,-1.573
2026-05-20 15:21:11.067,1174010523,23067,2,1.02246,-0.09302,-0.15112,-1.496,-3.58,0.626
2026-05-20 15:21:12.267,1174011723,23267,1,1.03662,-0.13013,0.2561,8.244,1.595,0.137
2026-05-20 15:21:12.267,1174011723,23267,2,1.01636,-0.10107,-0.16211,4.0,0.618,0.588
2026-05-20 15:21:12.467,1174011923,23467,1,1.04028,-0.12378,0.26074,-0.008,3.939,-1.84
2026-05-20 15:21:12.467,1174011923,23467,2,1.02344,-0.09937,-0.15674,0.374,2.634,-1.313
2026-05-20 15:21:12.667,1174012123,23667,1,1.03345,-0.12842,0.26807,-0.015,2.137,-1.519
2026-05-20 15:21:12.667,1174012123,23667,2,1.02148,-0.09961,-0.15063,-3.145,-1.153,0.458
2026-05-20 15:21:12.867,1174012323,23867,1,1.03662,-0.11353,0.27856,-3.481,1.573,-1.725
2026-05-20 15:21:12.867,1174012323,23867,2,1.021,-0.09741,-0.14746,-2.649,0.214,1.298
2026-05-20 15:21:12.067,1174011523,24067,1,1.03613,-0.11475,0.27344,-2.718,-0.702,0.527
2026-05-20 15:21:12.067,1174011523,24067,2,1.02783,-0.10474,-0.14893,-4.435,-1.405,0.893
2026-05-20 15:21:13.267,1174012723,24267,1,1.0332,-0.12744,0.26953,-0.725,-0.603,0.565
2026-05-20 15:21:13.267,1174012723,24267,2,1.02246,-0.10107,-0.15283,-2.321,-0.733,1.015
2026-05-20 15:21:13.467,1174012923,24467,1,1.03711,-0.13306,0.26025,-1.275,0.611,-0.16
2026-05-20 15:21:13.467,1174012923,24467,2,1.0293,-0.10889,-0.1582,-2.229,0.328,0.573
2026-05-20 15:21:13.667,1174013123,24667,1,1.03198,-0.12939,0.25879,-0.55,1.618,-0.076
2026-05-20 15:21:13.667,1174013123,24667,2,1.02515,-0.10059,-0.15869,-0.023,0.641,0.122
2026-05-20 15:21:13.867,1174013323,24867,1,1.03027,-0.12354,0.27393,-1.519,1.656,-1.0
2026-05-20 15:21:13.867,1174013323,24867,2,1.02588,-0.11255,-0.16064,-0.351,0.725,-0.145
2026-05-20 15:21:13.067,1174012523,25067,1,1.05078,-0.11426,0.26489,1.137,2.939,0.115
2026-05-20 15:21:13.067,1174012523,25067,2,1.02271,-0.11011,-0.16528,3.771,1.26,0.908
2026-05-20 15:21:14.267,1174013723,25267,1,1.03149,-0.12427,0.26855,0.702,3.313,-1.58
2026-05-20 15:21:14.267,1174013723,25267,2,1.02368,-0.10474,-0.15283,0.557,2.122,-0.183
2026-05-20 15:21:14.467,1174013923,25467,1,1.02954,-0.10767,0.27979,0.916,2.412,-1.344
2026-05-20 15:21:14.467,1174013923,25467,2,1.01855,-0.10596,-0.1521,1.366,0.382,0.405
2026-05-20 15:21:14.667,1174014123,25667,1,1.02686,-0.10059,0.29565,-2.305,-1.237,-0.748
2026-05-20 15:21:14.667,1174014123,25667,2,1.02271,-0.09106,-0.15112,-6.901,-2.328,0.496
2026-05-20 15:21:14.867,1174014323,25867,1,1.0332,-0.10596,0.27295,-7.672,-4.908,-3.511
2026-05-20 15:21:14.867,1174014323,25867,2,1.01392,-0.11499,-0.16821,-8.336,-5.29,1.542
2026-05-20 15:21:14.067,1174013523,26067,1,1.04028,-0.09692,0.24829,-5.015,-3.099,-1.908
2026-05-20 15:21:14.067,1174013523,26067,2,1.02563,-0.10986,-0.17358,-7.427,-4.901,0.832
2026-05-20 15:21:15.267,1174014723,26267,1,1.04736,-0.1106,0.24438,-1.855,0.71,0.076
2026-05-20 15:21:15.267,1174014723,26267,2,1.02026,-0.11401,-0.19214,-1.679,0.87,1.45
2026-05-20 15:21:15.467,1174014923,26467,1,1.04907,-0.11523,0.24854,0.351,0.771,0.916
2026-05-20 15:21:15.467,1174014923,26467,2,1.02466,-0.10864,-0.20166,-2.359,-0.031,0.519
2026-05-20 15:21:15.667,1174015123,26667,1,1.03735,-0.10962,0.24365,2.061,1.519,-0.626
2026-05-20 15:21:15.667,1174015123,26667,2,1.00854,-0.11426,-0.17334,3.542,2.626,0.023
2026-05-20 15:21:15.867,1174015323,26867,1,1.03784,-0.10669,0.25342,3.191,0.58,-0.672
2026-05-20 15:21:15.867,1174015323,26867,2,1.02979,-0.09839,-0.17969,6.725,3.557,-0.779
2026-05-20 15:21:15.067,1174014523,27067,1,1.03735,-0.10083,0.24731,2.824,2.969,-1.71
2026-05-20 15:21:15.067,1174014523,27067,2,1.02759,-0.10693,-0.17065,1.16,-1.916,-1.832
2026-05-20 15:21:16.267,1174015723,27267,1,1.04224,-0.08789,0.26025,2.687,2.015,-1.55
2026-05-20 15:21:16.267,1174015723,27267,2,1.02808,-0.09424,-0.16699,1.397,1.313,-0.389
2026-05-20 15:21:16.467,1174015923,27467,1,1.04395,-0.08228,0.2478,1.397,3.336,-0.725
2026-05-20 15:21:16.467,1174015923,27467,2,1.01611,-0.09692,-0.15894,-0.557,2.87,0.397
2026-05-20 15:21:16.667,1174016123,27667,1,1.03271,-0.08618,0.27344,0.023,4.412,-0.092
2026-05-20 15:21:16.667,1174016123,27667,2,1.02563,-0.09009,-0.16089,-0.603,1.901,0.832
2026-05-20 15:21:16.867,1174016323,27867,1,1.03247,-0.08081,0.27808,1.16,2.458,0.542
2026-05-20 15:21:16.867,1174016323,27867,2,1.01172,-0.09399,-0.15356,0.641,1.053,0.771
2026-05-20 15:21:16.067,1174015523,28067,1,1.03687,-0.0918,0.28271,0.443,0.275,1.214
2026-05-20 15:21:16.067,1174015523,28067,2,1.02563,-0.09253,-0.15747,-2.305,-0.58,0.702
2026-05-20 15:21:17.267,1174016723,28267,1,1.03198,-0.09717,0.28784,0.863,-1.351,1.031
2026-05-20 15:21:17.267,1174016723,28267,2,1.01953,-0.10449,-0.15259,-3.618,-2.237,1.046
2026-05-20 15:21:17.467,1174016923,28467,1,1.03687,-0.104,0.26245,1.275,-2.786,2.16
2026-05-20 15:21:17.467,1174016923,28467,2,1.02271,-0.09058,-0.14868,-1.084,0.679,1.053
2026-05-20 15:21:17.667,1174017123,28667,1,1.03955,-0.11426,0.26025,-5.069,-2.557,-0.908
2026-05-20 15:21:17.667,1174017123,28667,2,1.02417,-0.1001,-0.1543,-8.824,-3.305,-0.702
2026-05-20 15:21:17.867,1174017323,28867,1,1.03931,-0.12061,0.22388,-4.229,-2.359,-1.176
2026-05-20 15:21:17.867,1174017323,28867,2,1.02124,-0.10742,-0.17554,2.397,0.924,0.16
2026-05-20 15:21:17.067,1174016523,29067,1,1.04199,-0.1106,0.2207,2.527,-0.702,-0.359
2026-05-20 15:21:17.067,1174016523,29067,2,1.01709,-0.08936,-0.17725,0.176,-6.427,1.076
2026-05-20 15:21:18.267,1174017723,29267,1,1.04224,-0.10815,0.22388,-0.366,-2.046,-0.687
2026-05-20 15:21:18.267,1174017723,29267,2,1.02808,-0.09937,-0.17651,0.718,1.702,-0.099
2026-05-20 15:21:18.467,1174017923,29467,1,1.03833,-0.10791,0.22168,-0.275,1.863,-2.061
2026-05-20 15:21:18.467,1174017923,29467,2,1.03027,-0.08472,-0.16748,0.046,3.458,0.038
2026-05-20 15:21:18.667,1174018123,29667,1,1.04492,-0.10107,0.21899,-0.252,2.924,-1.664
2026-05-20 15:21:18.667,1174018123,29667,2,1.01953,-0.09888,-0.18384,-3.542,-0.359,0.641
2026-05-20 15:21:18.867,1174018323,29867,1,1.04663,-0.10132,0.21948,4.076,0.137,1.031
2026-05-20 15:21:18.867,1174018323,29867,2,1.01318,-0.09033,-0.18506,3.832,1.931,0.191
2026-05-20 15:21:18.067,1174017523,30067,1,1.04126,-0.09302,0.22998,4.16,-0.427,0.015
2026-05-20 15:21:18.067,1174017523,30067,2,1.02148,-0.11572,-0.177,-0.824,1.313,1.229
2026-05-20 15:21:19.267,1174018723,30267,1,1.04199,-0.08618,0.22852,0.053,0.084,0.679
2026-05-20 15:21:19.267,1174018723,30267,2,1.02563,-0.07861,-0.18872,-6.237,-1.298,-0.099
2026-05-20 15:21:19.467,1174018923,30467,1,1.04663,-0.09668,0.20752,-2.458,-0.359,0.45
2026-05-20 15:21:19.467,1174018923,30467,2,1.02832,-0.09009,-0.18066,-4.916,-0.916,1.382
2026-05-20 15:21:19.667,1174019123,30667,1,1.05054,-0.10498,0.20923,-3.664,0.924,0.008
2026-05-20 15:21:19.667,1174019123,30667,2,1.01782,-0.08618,-0.18921,-1.992,0.015,1.176
2026-05-20 15:21:19.867,1174019323,30867,1,1.05127,-0.11133,0.20093,-0.954,2.863,-1.214
2026-05-20 15:21:19.867,1174019323,30867,2,1.02246,-0.10815,-0.18359,-1.74,0.099,0.565
2026-05-20 15:21:19.067,1174018523,31067,1,1.04785,-0.11133,0.21436,0.595,3.031,-1.29
2026-05-20 15:21:19.067,1174018523,31067,2,1.01563,-0.09448,-0.20508,0.084,0.565,-0.092
2026-05-20 15:21:20.267,1174019723,31267,1,1.05444,-0.09424,0.2063,-0.42,2.244,-0.695
2026-05-20 15:21:20.267,1174019723,31267,2,1.02686,-0.09912,-0.18774,-2.916,-1.16,-0.084
2026-05-20 15:21:20.490,1174019946,31490,1,1.04785,-0.09839,0.21362,-0.87,1.038,-0.282
2026-05-20 15:21:20.490,1174019946,31490,2,1.02197,-0.1062,-0.18164,-2.603,-0.115,-0.26
2026-05-20 15:21:20.690,1174020146,31690,1,1.04517,-0.11206,0.21045,-0.656,0.16,0.244
2026-05-20 15:21:20.690,1174020146,31690,2,1.01733,-0.09473,-0.19653,-0.656,-0.145,0.954
2026-05-20 15:21:20.890,1174020346,31890,1,1.04175,-0.10815,0.21582,-1.557,-0.168,0.779
2026-05-20 15:21:20.890,1174020346,31890,2,1.02539,-0.09521,-0.19116,-0.908,0.176,0.84
2026-05-20 15:21:20.090,1174019546,32090,1,1.04639,-0.11475,0.20996,0.275,1.87,0.031
2026-05-20 15:21:20.090,1174019546,32090,2,1.02344,-0.1001,-0.19824,-2.321,2.733,0.802
2026-05-20 15:21:21.290,1174020746,32290,1,1.0498,-0.11475,0.20337,-0.519,2.45,0.664
2026-05-20 15:21:21.290,1174020746,32290,2,1.01636,-0.09106,-0.19336,0.664,2.977,0.992
2026-05-20 15:21:21.490,1174020946,32490,1,1.05176,-0.10986,0.21533,0.962,3.305,-1.191
2026-05-20 15:21:21.490,1174020946,32490,2,1.01807,-0.09473,-0.1853,1.099,0.863,0.725
2026-05-20 15:21:21.690,1174021146,32690,1,1.03931,-0.11719,0.22607,0.679,2.977,-1.969
2026-05-20 15:21:21.690,1174021146,32690,2,1.0166,-0.10327,-0.17285,0.099,1.122,1.031
2026-05-20 15:21:21.952,1174021408,32952,1,1.05371,-0.09448,0.21533,0.565,3.534,-0.206
2026-05-20 15:21:21.952,1174021408,32952,2,1.02148,-0.09326,-0.18066,0.748,4.489,2.534
2026-05-20 15:21:21.152,1174020608,33152,1,1.04468,-0.10767,0.22876,1.038,-0.191,-1.481
2026-05-20 15:21:21.152,1174020608,33152,2,1.01416,-0.10571,-0.17432,1.29,0.466,-0.336
2026-05-20 15:21:22.390,1174021846,33390,1,1.04517,-0.09473,0.22729,1.901,2.901,-2.198
2026-05-20 15:21:22.390,1174021846,33390,2,1.02612,-0.09814,-0.15381,-0.695,3.405,-0.733
2026-05-20 15:21:22.590,1174022046,33590,1,1.04346,-0.08228,0.23242,0.863,3.634,-3.046
2026-05-20 15:21:22.590,1174022046,33590,2,1.03101,-0.10596,-0.15088,-0.473,0.832,-1.191
2026-05-20 15:21:22.790,1174022246,33790,1,1.04785,-0.07642,0.25122,1.137,3.802,-1.603
2026-05-20 15:21:22.790,1174022246,33790,2,1.02393,-0.08765,-0.16406,0.229,1.473,-0.122
2026-05-20 15:21:22.990,1174022446,33990,1,1.03857,-0.0686,0.26001,1.809,1.519,-0.038
2026-05-20 15:21:22.990,1174022446,33990,2,1.02124,-0.09058,-0.16309,-0.275,-1.466,0.153
2026-05-20 15:21:22.190,1174021646,34190,1,1.04321,-0.08105,0.24609,-1.893,-1.863,1.763
2026-05-20 15:21:22.190,1174021646,34190,2,1.01318,-0.09473,-0.15918,-2.321,-0.527,1.397
2026-05-20 15:21:23.390,1174022846,34390,1,1.04688,-0.08472,0.22974,-2.206,-0.71,1.053
2026-05-20 15:21:23.390,1174022846,34390,2,1.02051,-0.09399,-0.17358,-3.878,0.076,1.443
2026-05-20 15:21:23.590,1174023046,34590,1,1.03809,-0.1062,0.24609,-0.885,0.076,-0.183
2026-05-20 15:21:23.590,1174023046,34590,2,1.02417,-0.11914,-0.17944,-7.885,-5.351,-2.908
2026-05-20 15:21:23.790,1174023246,34790,1,1.05664,-0.19141,0.23047,17.168,8.366,-4.26
2026-05-20 15:21:23.790,1174023246,34790,2,1.03979,-0.18726,-0.10474,31.206,3.832,1.206
2026-05-20 15:21:23.990,1174023446,34990,1,1.04858,-0.20776,0.18555,75.107,59.008,-2.901
2026-05-20 15:21:23.990,1174023446,34990,2,0.94897,-0.01733,-0.05176,101.305,82.374,-22.183
2026-05-20 15:21:23.219,1174022675,35219,1,0.87451,0.26709,0.45654,91.626,-6.115,30.321
2026-05-20 15:21:23.219,1174022675,35219,2,0.94165,0.07813,0.03906,69.374,-33.878,13.427
2026-05-20 15:21:24.419,1174023875,35419,1,1.06909,0.0498,0.25171,63.962,-13.206,36.611
2026-05-20 15:21:24.419,1174023875,35419,2,0.94849,0.11353,0.08838,80.473,-0.611,15.244
2026-05-20 15:21:24.619,1174024075,35619,1,1.24463,-0.01465,0.12549,30.328,-16.038,1.672
2026-05-20 15:21:24.619,1174024075,35619,2,0.91064,-0.15039,-0.25806,46.069,-18.954,17.427
2026-05-20 15:21:24.819,1174024275,35819,1,1.08569,-0.27417,0.22778,24.221,28.832,4.496
2026-05-20 15:21:24.819,1174024275,35819,2,0.9436,-0.2417,-0.21362,56.977,-11.458,5.038
2026-05-20 15:21:24.019,1174023475,36019,1,0.98755,-0.23413,0.19751,96.153,7.58,17.321
2026-05-20 15:21:24.019,1174023475,36019,2,0.89038,-0.21313,-0.40967,91.748,-17.924,-24.679
2026-05-20 15:21:24.219,1174023675,36219,1,1.24146,-0.03833,0.22998,147.107,-19.26,10.038
2026-05-20 15:21:24.219,1174023675,36219,2,1.07446,-0.15576,0.02734,81.221,14.305,-16.473
2026-05-20 15:21:25.419,1174024875,36419,1,0.93579,0.25391,0.35669,104.969,9.847,21.809
2026-05-20 15:21:25.419,1174024875,36419,2,1.01074,0.18677,-0.19165,47.198,-11.13,-25.107
2026-05-20 15:21:25.619,1174025075,36619,1,0.948,0.24438,0.37476,65.298,-4.985,10.893
2026-05-20 15:21:25.619,1174025075,36619,2,0.97632,0.11401,-0.11963,75.565,2.023,14.863
2026-05-20 15:21:25.819,1174025275,36819,1,1.01147,0.24121,0.28589,63.527,8.252,36.916
2026-05-20 15:21:25.819,1174025275,36819,2,1.03027,0.23413,-0.16357,27.527,10.313,5.221
2026-05-20 15:21:25.019,1174024475,37019,1,1.22754,0.1062,0.24805,-7.321,-57.344,17.252
2026-05-20 15:21:25.019,1174024475,37019,2,0.91357,0.12988,-0.30835,-2.939,-11.634,-16.214
2026-05-20 15:21:25.219,1174024675,37219,1,1.15015,-0.1189,0.43311,-9.473,-6.603,10.74
2026-05-20 15:21:25.219,1174024675,37219,2,0.94702,-0.32349,-0.0603,77.855,-6.977,36.473
2026-05-20 15:21:26.419,1174025875,37419,1,0.91162,-0.30518,0.28516,27.878,-34.55,22.939
2026-05-20 15:21:26.419,1174025875,37419,2,1.07471,-0.16919,-0.18604,26.374,-17.847,14.672
2026-05-20 15:21:26.619,1174026075,37619,1,1.08643,-0.23828,0.04663,27.008,-3.298,7.542
2026-05-20 15:21:26.619,1174026075,37619,2,1.0127,-0.16553,-0.32349,9.45,10.649,-9.328
2026-05-20 15:21:26.819,1174026275,37819,1,0.99829,-0.26294,0.18457,26.405,-8.733,-4.412
2026-05-20 15:21:26.819,1174026275,37819,2,0.9834,-0.29517,-0.29053,19.779,11.382,4.244
2026-05-20 15:21:26.019,1174025475,38019,1,1.07568,-0.15869,0.22095,34.908,26.87,13.069
2026-05-20 15:21:26.019,1174025475,38019,2,1.13477,-0.18872,-0.23462,2.634,-4.084,-9.649
2026-05-20 15:21:26.219,1174025675,38219,1,1.03467,0.03198,0.34033,40.565,-18.191,9.954
2026-05-20 15:21:26.219,1174025675,38219,2,0.91309,0.0459,-0.17383,23.031,13.252,0.435
2026-05-20 15:21:27.419,1174026875,38419,1,1.20605,-0.18457,0.29077,-10.061,-16.038,15.26
2026-05-20 15:21:27.419,1174026875,38419,2,1.19775,-0.14502,-0.0332,18.412,-5.771,10.137
2026-05-20 15:21:27.619,1174027075,38619,1,0.91382,-0.30566,0.24316,36.0,-17.244,18.137
2026-05-20 15:21:27.619,1174027075,38619,2,0.89893,-0.22998,-0.03784,28.641,10.534,13.756
2026-05-20 15:21:27.819,1174027275,38819,1,0.92139,-0.4397,0.22729,10.626,7.031,15.053
2026-05-20 15:21:27.819,1174027275,38819,2,0.98486,-0.22437,0.02686,18.779,6.351,4.305
2026-05-20 15:21:27.139,1174026595,39139,1,0.95166,-0.40283,0.25171,6.275,1.397,3.359
2026-05-20 15:21:27.139,1174026595,39139,2,0.99463,-0.17969,-0.04761,8.527,1.0,-1.229
2026-05-20 15:21:28.339,1174027795,39339,1,0.95361,-0.40503,0.19141,-3.916,2.252,5.824
2026-05-20 15:21:28.339,1174027795,39339,2,1.01416,-0.16992,-0.02075,-3.588,1.221,4.641
2026-05-20 15:21:28.539,1174027995,39539,1,0.97217,-0.44751,0.22534,6.794,-1.26,9.145
2026-05-20 15:21:28.539,1174027995,39539,2,1.02881,-0.21265,-0.0293,0.618,0.84,5.931
2026-05-20 15:21:28.739,1174028195,39739,1,0.91406,-0.44385,0.23706,-4.679,5.473,2.565
2026-05-20 15:21:28.739,1174028195,39739,2,1.00537,-0.23047,0.02222,-0.847,3.275,0.084
2026-05-20 15:21:28.939,1174028395,39939,1,0.95483,-0.44189,0.23804,5.588,5.534,0.275
2026-05-20 15:21:28.939,1174028395,39939,2,1.00879,-0.21167,-0.0542,-1.053,4.695,-0.176
2026-05-20 15:21:28.139,1174027595,40139,1,0.94556,-0.46289,0.24048,-1.893,3.267,-3.168
2026-05-20 15:21:28.139,1174027595,40139,2,1.00366,-0.25635,-0.00171,-2.786,2.183,-2.282
2026-05-20 15:21:29.339,1174028795,40339,1,0.94824,-0.44629,0.26172,-2.641,-0.931,-3.061
2026-05-20 15:21:29.339,1174028795,40339,2,1.02222,-0.21899,-0.021,-1.275,9.359,2.511
2026-05-20 15:21:29.539,1174028995,40539,1,0.94458,-0.44482,0.25464,-0.519,1.214,-0.679
2026-05-20 15:21:29.539,1174028995,40539,2,1.00366,-0.19946,-0.02246,-3.885,-0.756,-0.481
2026-05-20 15:21:29.739,1174029195,40739,1,0.95068,-0.45483,0.2605,-3.176,5.756,-0.664
2026-05-20 15:21:29.739,1174029195,40739,2,1.0188,-0.20923,-0.02075,-2.305,0.817,0.603
2026-05-20 15:21:29.939,1174029395,40939,1,0.94678,-0.4585,0.23926,7.817,10.053,-0.191
2026-05-20 15:21:29.939,1174029395,40939,2,1.01318,-0.20581,-0.03589,-1.611,8.611,-0.695
2026-05-20 15:21:29.139,1174028595,41139,1,0.93433,-0.448,0.26563,3.511,2.504,0.26
2026-05-20 15:21:29.139,1174028595,41139,2,1.02124,-0.21094,-0.00195,1.702,-2.321,-0.031
2026-05-20 15:21:30.339,1174029795,41339,1,0.91919,-0.44531,0.27441,-2.71,-0.168,-2.481
2026-05-20 15:21:30.339,1174029795,41339,2,1.00879,-0.24487,0.00708,-1.221,2.87,1.695
2026-05-20 15:21:30.552,1174030008,41552,1,0.93579,-0.44946,0.25171,-7.275,-2.412,0.939
2026-05-20 15:21:30.552,1174030008,41552,2,1.01587,-0.21924,-0.00757,0.55,-0.595,0.779
2026-05-20 15:21:30.752,1174030208,41752,1,0.93628,-0.46143,0.26392,-1.656,0.252,0.847
2026-05-20 15:21:30.752,1174030208,41752,2,1.03003,-0.19653,-0.04834,-4.328,-3.733,0.145
2026-05-20 15:21:30.952,1174030408,41952,1,0.94189,-0.45996,0.2583,-0.985,4.099,-1.206
2026-05-20 15:21:30.952,1174030408,41952,2,0.99609,-0.20801,-0.03198,-3.824,3.763,-0.779
2026-05-20 15:21:30.152,1174029608,42152,1,0.91772,-0.47119,0.25122,-8.046,5.817,-9.878
2026-05-20 15:21:30.152,1174029608,42152,2,1.03369,-0.24023,-0.02905,-12.824,-4.916,-4.046
2026-05-20 15:21:31.352,1174030808,42352,1,0.96753,-0.45215,0.25659,13.756,1.893,-3.206
2026-05-20 15:21:31.352,1174030808,42352,2,1.02881,-0.16528,-0.06909,0.863,-1.802,-5.023
2026-05-20 15:21:31.552,1174031008,42552,1,0.98096,-0.38501,0.28516,-2.664,-2.58,-15.397
2026-05-20 15:21:31.552,1174031008,42552,2,1.01538,-0.22046,-0.12671,0.328,-17.206,-2.214
2026-05-20 15:21:31.752,1174031208,42752,1,0.96704,-0.38745,0.24438,-0.626,4.534,-11.313
2026-05-20 15:21:31.752,1174031208,42752,2,1.06494,-0.20508,-0.12695,-1.328,-8.252,-7.985
2026-05-20 15:21:31.952,1174031408,42952,1,1.0271,-0.35522,0.08228,-10.26,3.542,-3.313
2026-05-20 15:21:31.952,1174031408,42952,2,1.01489,-0.15039,-0.19312,0.298,15.832,2.405
2026-05-20 15:21:31.152,1174030608,43152,1,1.01294,-0.32104,0.20776,-22.756,-12.267,-37.244
2026-05-20 15:21:31.152,1174030608,43152,2,0.95508,-0.13599,-0.09668,-19.87,4.374,0.359
2026-05-20 15:21:32.352,1174031808,43352,1,0.97681,-0.19238,0.20093,-14.695,23.962,-33.481
2026-05-20 15:21:32.352,1174031808,43352,2,0.95117,-0.12134,-0.11353,-21.824,23.809,-10.863
2026-05-20 15:21:32.552,1174032008,43552,1,1.00439,-0.09888,0.32617,-0.687,16.321,-15.053
2026-05-20 15:21:32.552,1174032008,43552,2,1.05713,-0.06689,-0.05298,-13.191,5.878,-10.466
2026-05-20 15:21:32.752,1174032208,43752,1,1.00562,-0.12573,0.31714,17.206,29.542,-18.221
2026-05-20 15:21:32.752,1174032208,43752,2,0.99927,-0.07837,-0.01514,-14.573,6.725,-5.763
2026-05-20 15:21:32.952,1174032408,43952,1,1.00659,-0.09497,0.35913,15.092,13.023,-13.313
2026-05-20 15:21:32.952,1174032408,43952,2,1.00366,-0.12305,-0.01831,-7.847,6.16,-7.565
2026-05-20 15:21:32.152,1174031608,44152,1,1.0293,-0.05249,0.38281,2.893,14.099,1.206
2026-05-20 15:21:32.152,1174031608,44152,2,1.0437,-0.01929,0.02393,2.916,0.153,0.244
2026-05-20 15:21:33.352,1174032808,44352,1,1.01294,-0.07202,0.37329,-1.29,0.015,4.71
2026-05-20 15:21:33.352,1174032808,44352,2,1.01099,-0.05054,0.01392,8.466,0.435,3.481
2026-05-20 15:21:33.552,1174033008,44552,1,1.01343,-0.0708,0.41699,-1.45,3.878,2.038
2026-05-20 15:21:33.552,1174033008,44552,2,1.00537,-0.05615,-0.00439,8.809,-14.756,3.267
2026-05-20 15:21:33.788,1174033244,44787,1,0.94189,-0.16675,0.35767,18.908,-22.489,19.458
2026-05-20 15:21:33.788,1174033244,44787,2,0.89453,-0.19727,-0.09131,12.252,-20.275,-0.298
2026-05-20 15:21:33.987,1174033443,44987,1,1.15063,-0.27637,0.2583,7.847,-29.87,28.573
2026-05-20 15:21:33.987,1174033443,44987,2,1.23267,-0.04688,-0.10181,92.115,7.527,5.183
2026-05-20 15:21:34.275,1174033731,45275,1,1.0061,-0.10986,0.27393,70.382,-9.397,7.557
2026-05-20 15:21:34.275,1174033731,45275,2,1.00269,-0.03735,-0.06982,31.015,-18.397,-5.336
2026-05-20 15:21:34.475,1174033931,45475,1,1.05713,-0.13232,0.19312,41.756,-8.023,7.153
2026-05-20 15:21:34.475,1174033931,45475,2,0.92358,0.00171,0.09424,37.901,5.702,2.374
2026-05-20 15:21:34.675,1174034131,45675,1,0.94141,-0.00781,0.29053,22.725,24.16,-4.45
2026-05-20 15:21:34.675,1174034131,45675,2,1.09009,0.10254,-0.28369,53.985,-16.359,10.542
2026-05-20 15:21:36.978,1174036434,47978,1,0.97534,0.13452,0.2771,18.076,-3.008,31.076
2026-05-20 15:21:36.978,1174036434,47978,2,0.94653,-0.03687,-0.24878,17.954,-34.084,-1.687
2026-05-20 15:21:36.178,1174035634,48178,1,1.12695,-0.0752,0.25732,43.504,8.809,29.565
2026-05-20 15:21:36.178,1174035634,48178,2,0.88989,-0.13403,-0.1626,11.038,-48.305,6.336
2026-05-20 15:21:37.378,1174036834,48378,1,1.03027,-0.25952,0.2627,34.115,-5.382,10.878
2026-05-20 15:21:37.378,1174036834,48378,2,1.05127,-0.20459,-0.12402,53.313,9.351,5.817
2026-05-20 15:21:37.591,1174037047,48591,1,0.92847,-0.29395,0.39648,56.023,40.87,-6.519
2026-05-20 15:21:37.591,1174037047,48591,2,1.25293,-0.15161,-0.12671,57.275,-18.26,-17.435
2026-05-20 15:21:37.791,1174037247,48791,1,0.90918,-0.06226,0.38135,52.527,8.16,11.458
2026-05-20 15:21:37.791,1174037247,48791,2,0.92456,0.04077,-0.04419,18.824,10.893,-12.702
2026-05-20 15:21:37.991,1174037447,48991,1,1.04517,0.02588,0.47949,51.748,-47.527,-3.641
2026-05-20 15:21:37.991,1174037447,48991,2,1.07007,-0.01733,-0.04932,-9.168,6.038,-2.0
2026-05-20 15:21:37.191,1174036647,49191,1,1.01904,-0.04468,0.33203,-16.626,13.519,-11.168
2026-05-20 15:21:37.191,1174036647,49191,2,0.99268,-0.03467,-0.13208,-8.939,7.374,-7.099
2026-05-20 15:21:38.391,1174037847,49391,1,0.98462,-0.01025,0.36963,-8.153,11.389,-8.885
2026-05-20 15:21:38.391,1174037847,49391,2,1.01709,-0.07959,-0.1355,-18.481,-7.229,0.267
2026-05-20 15:21:38.591,1174038047,49591,1,0.97559,-0.08447,0.37695,4.473,-7.985,13.725
2026-05-20 15:21:38.591,1174038047,49591,2,1.02002,-0.07642,-0.11426,-0.107,-6.901,0.55
2026-05-20 15:21:38.791,1174038247,49791,1,0.90186,-0.1145,0.31299,1.435,-13.802,-1.489
2026-05-20 15:21:38.791,1174038247,49791,2,0.91528,-0.13916,-0.09229,26.496,-12.366,-1.481
2026-05-20 15:21:38.991,1174038447,49991,1,1.11914,-0.1167,0.36987,47.679,1.664,20.595
2026-05-20 15:21:38.991,1174038447,49991,2,1.06519,0.16821,-0.10767,32.13,-9.427,-13.382
2026-05-20 15:21:38.191,1174037647,50191,1,1.14063,-0.01782,0.36426,26.046,-18.817,16.443
2026-05-20 15:21:38.191,1174037647,50191,2,0.98364,0.10962,-0.22021,25.466,-35.176,2.252
2026-05-20 15:21:39.422,1174038878,50422,1,0.9834,-0.05078,0.29565,27.763,-0.534,-33.328
2026-05-20 15:21:39.422,1174038878,50422,2,0.95703,-0.22437,-0.63965,-43.076,-12.817,-10.74
2026-05-20 15:21:39.635,1174039091,50635,1,1.13965,-0.28491,0.06006,7.519,26.954,14.55
2026-05-20 15:21:39.635,1174039091,50635,2,1.00146,-0.21582,-0.42212,18.244,51.687,13.481
2026-05-20 15:21:39.835,1174039291,50835,1,0.92212,-0.23511,0.2063,5.023,-6.58,9.092
2026-05-20 15:21:39.835,1174039291,50835,2,0.97876,-0.07495,-0.30298,15.42,9.336,3.916
2026-05-20 15:21:39.035,1174038491,51035,1,1.05957,-0.17212,0.1709,-0.038,6.74,4.641
2026-05-20 15:21:39.035,1174038491,51035,2,0.94458,-0.11011,-0.2627,-15.618,-24.718,1.802
2026-05-20 15:21:40.235,1174039691,51235,1,1.02271,-0.19702,0.23755,-7.939,2.641,-4.626
2026-05-20 15:21:40.235,1174039691,51235,2,0.98682,-0.10742,-0.30981,14.626,0.16,2.031
2026-05-20 15:21:40.435,1174039891,51435,1,1.03931,-0.16821,0.20776,-4.695,7.076,-18.626
2026-05-20 15:21:40.435,1174039891,51435,2,0.9978,-0.0686,-0.3269,-2.527,-0.718,-1.718
2026-05-20 15:21:40.635,1174040091,51635,1,1.04321,-0.03613,0.24146,6.885,5.504,-10.282
2026-05-20 15:21:40.635,1174040091,51635,2,1.01807,-0.07568,-0.31665,-1.26,-0.977,-3.725
2026-05-20 15:21:40.835,1174040291,51835,1,1.03101,-0.03076,0.24902,3.328,2.58,-6.015
2026-05-20 15:21:40.835,1174040291,51835,2,0.99243,-0.06128,-0.29639,-0.542,3.45,-1.885
2026-05-20 15:21:40.035,1174039491,52035,1,1.03516,-0.02026,0.25513,0.504,0.466,-1.504
2026-05-20 15:21:40.035,1174039491,52035,2,1.01074,-0.07227,-0.31592,-4.145,-0.931,0.802
2026-05-20 15:21:41.235,1174040691,52235,1,1.05054,-0.03394,0.23999,-0.534,0.595,-0.336
2026-05-20 15:21:41.235,1174040691,52235,2,0.9668,-0.14673,-0.26514,-45.725,29.26,30.573
2026-05-20 15:21:44.409,1174043865,55409,1,1.06738,-0.26831,0.16309,-69.481,38.832,-17.939
2026-05-20 15:21:44.409,1174043865,55409,2,0.77319,-0.26172,-0.51196,-52.344,18.084,7.397
2026-05-20 15:21:44.609,1174044065,55609,1,1.05811,-0.25977,0.15576,-17.969,-1.641,-4.198
2026-05-20 15:21:44.609,1174044065,55609,2,1.09473,-0.36914,-0.27661,-37.473,30.954,5.481
2026-05-20 15:21:44.809,1174044265,55809,1,1.05884,-0.15698,0.34424,28.237,19.336,25.443
2026-05-20 15:21:44.809,1174044265,55809,2,1.04175,-0.00098,-0.09619,21.26,33.748,-18.29
2026-05-20 15:21:44.009,1174043465,56009,1,0.95435,0.03906,0.41772,1.015,-12.519,-4.893
2026-05-20 15:21:44.009,1174043465,56009,2,1.0415,-0.07886,-0.10034,-0.939,4.412,0.664
2026-05-20 15:21:47.879,1174047335,58879,1,1.02759,-0.07544,0.33179,-4.496,1.908,-2.756
2026-05-20 15:21:47.879,1174047335,58879,2,1.05054,-0.08545,-0.10303,-4.626,-1.344,-0.214
2026-05-20 15:21:47.079,1174046535,59079,1,1.02075,-0.08545,0.3252,-1.145,2.725,-1.916
2026-05-20 15:21:47.079,1174046535,59079,2,1.0271,-0.09302,-0.09204,-4.389,2.382,-1.344
2026-05-20 15:21:48.279,1174047735,59279,1,1.02832,-0.0769,0.33496,-0.519,-2.168,1.237
2026-05-20 15:21:48.279,1174047735,59279,2,1.03125,-0.07227,-0.09399,0.939,0.397,-0.046
2026-05-20 15:21:48.479,1174047935,59479,1,1.04248,-0.06396,0.32788,-1.481,-1.679,2.679
2026-05-20 15:21:48.479,1174047935,59479,2,1.02979,-0.07397,-0.11353,-1.885,0.366,0.702
2026-05-20 15:21:48.679,1174048135,59679,1,1.02661,-0.09082,0.31934,-6.466,-3.275,0.832
2026-05-20 15:21:48.679,1174048135,59679,2,1.03857,-0.09131,-0.07275,-4.092,-1.16,2.794
2026-05-20 15:21:48.879,1174048335,59879,1,1.03076,-0.09326,0.323,-3.282,-2.176,-0.573
2026-05-20 15:21:48.879,1174048335,59879,2,1.02197,-0.08716,-0.11206,-8.42,2.328,0.466
2026-05-20 15:21:48.079,1174047535,60079,1,1.01611,-0.10742,0.3186,-3.565,-0.038,-3.58
2026-05-20 15:21:48.079,1174047535,60079,2,1.04419,-0.10083,-0.104,-2.015,1.359,-1.687
2026-05-20 15:21:49.279,1174048735,60279,1,1.0083,-0.07251,0.31738,1.176,6.893,-5.374
2026-05-20 15:21:49.279,1174048735,60279,2,1.03027,-0.09204,-0.07715,-5.855,0.191,2.817
2026-05-20 15:21:49.479,1174048935,60479,1,1.01221,-0.06079,0.32886,2.321,4.817,1.466
2026-05-20 15:21:49.479,1174048935,60479,2,1.04224,-0.08569,-0.0813,-0.198,1.321,1.473
2026-05-20 15:21:49.679,1174049135,60679,1,1.0271,-0.09448,0.33911,-0.435,-1.695,-0.153
2026-05-20 15:21:49.679,1174049135,60679,2,1.02441,-0.09741,-0.0791,1.87,1.542,-0.366
2026-05-20 15:21:49.879,1174049335,60879,1,1.01367,-0.09229,0.33105,-0.748,-3.221,-3.031
2026-05-20 15:21:49.879,1174049335,60879,2,1.02368,-0.09033,-0.06201,-2.565,-3.046,-2.405
2026-05-20 15:21:49.079,1174048535,61079,1,1.01489,-0.05225,0.31641,-3.618,-2.71,-5.252
2026-05-20 15:21:49.079,1174048535,61079,2,1.01758,-0.08032,-0.06152,-9.855,-3.099,1.328
2026-05-20 15:21:50.279,1174049735,61279,1,1.03369,-0.05151,0.31079,1.962,12.038,1.649
2026-05-20 15:21:50.279,1174049735,61279,2,1.04663,-0.08008,-0.10205,5.252,2.992,-0.122
2026-05-20 15:21:50.479,1174049935,61479,1,1.04053,-0.07178,0.31299,-1.053,2.649,0.748
2026-05-20 15:21:50.479,1174049935,61479,2,1.03638,-0.0979,-0.08643,7.901,6.626,1.87
2026-05-20 15:21:50.679,1174050135,61679,1,1.01001,-0.06226,0.34253,4.252,1.511,3.015
2026-05-20 15:21:50.679,1174050135,61679,2,1.02856,-0.0835,-0.08203,5.137,-2.053,-2.939
2026-05-20 15:21:50.905,1174050361,61905,1,1.01758,-0.07568,0.34424,4.092,-2.092,1.969
2026-05-20 15:21:50.905,1174050361,61905,2,1.02173,-0.06665,-0.08447,4.359,1.282,-1.42
2026-05-20 15:21:50.105,1174049561,62105,1,1.03027,-0.08496,0.33008,-3.076,2.87,-2.405
2026-05-20 15:21:50.105,1174049561,62105,2,1.03394,-0.05005,-0.09863,4.015,0.267,0.969
2026-05-20 15:21:51.305,1174050761,62305,1,1.03564,-0.06348,0.33057,-0.634,-1.031,0.756
2026-05-20 15:21:51.305,1174050761,62305,2,1.03979,-0.06348,-0.07031,2.893,1.939,0.115
2026-05-20 15:21:51.505,1174050961,62505,1,1.01416,-0.04736,0.33936,3.496,1.885,2.473
2026-05-20 15:21:51.505,1174050961,62505,2,1.05811,-0.05444,-0.09595,-3.374,-0.145,2.275
2026-05-20 15:21:51.705,1174051161,62705,1,1.0332,-0.08154,0.34131,-3.389,4.092,-1.214
2026-05-20 15:21:51.705,1174051161,62705,2,1.01538,-0.06055,-0.07202,-4.489,5.756,3.931
2026-05-20 15:21:51.905,1174051361,62905,1,1.00635,-0.08423,0.33813,1.26,5.611,7.565
2026-05-20 15:21:51.905,1174051361,62905,2,1.03442,-0.05957,-0.06616,10.412,2.672,5.809
2026-05-20 15:21:51.105,1174050561,63105,1,1.01904,-0.09326,0.37061,-2.008,4.321,-1.878
2026-05-20 15:21:51.105,1174050561,63105,2,1.02368,-0.08716,-0.05957,-0.435,0.321,2.817
2026-05-20 15:21:52.305,1174051761,63305,1,1.03027,-0.09644,0.3811,-5.817,1.122,4.595
2026-05-20 15:21:52.305,1174051761,63305,2,1.00977,-0.11328,-0.08521,-7.122,-4.725,1.099
2026-05-20 15:21:52.505,1174051961,63505,1,0.99194,-0.10669,0.33618,-1.634,0.519,-2.565
2026-05-20 15:21:52.505,1174051961,63505,2,1.04175,-0.08472,-0.07666,2.794,-1.656,-4.351
2026-05-20 15:21:52.705,1174052161,63705,1,1.02148,-0.07983,0.32349,-6.687,0.435,-3.504
2026-05-20 15:21:52.705,1174052161,63705,2,1.01807,-0.08838,-0.11133,-6.718,1.756,-0.435
2026-05-20 15:21:52.905,1174052361,63905,1,1.03101,-0.0791,0.32251,-1.359,0.481,-3.977
2026-05-20 15:21:52.905,1174052361,63905,2,1.02246,-0.09497,-0.08203,-5.176,-0.588,-0.328
2026-05-20 15:21:52.105,1174051561,64105,1,1.01782,-0.08447,0.34497,6.992,0.023,1.137
2026-05-20 15:21:52.105,1174051561,64105,2,1.01147,-0.04907,-0.08276,2.947,3.282,-0.992
2026-05-20 15:21:53.305,1174052761,64305,1,1.02588,-0.06665,0.36401,7.191,-0.031,4.328
2026-05-20 15:21:53.305,1174052761,64305,2,1.02612,-0.07104,-0.03345,7.763,3.527,-0.779
2026-05-20 15:21:53.505,1174052961,64505,1,1.02344,-0.0769,0.36206,-2.634,1.489,-0.893
2026-05-20 15:21:53.505,1174052961,64505,2,1.02173,-0.06787,-0.08496,-2.84,-1.489,1.817
2026-05-20 15:21:53.705,1174053161,64705,1,1.02539,-0.07471,0.34009,-1.107,-0.771,-0.29
2026-05-20 15:21:53.705,1174053161,64705,2,1.02539,-0.07373,-0.05957,-5.84,-4.618,2.908
2026-05-20 15:21:53.905,1174053361,64905,1,1.00806,-0.10645,0.36157,4.397,4.137,1.916
2026-05-20 15:21:53.905,1174053361,64905,2,0.89307,-0.14917,-0.07349,4.763,-1.321,1.405
2026-05-20 15:21:53.105,1174052561,65105,1,0.93579,-0.09375,0.34448,25.969,8.725,11.672
2026-05-20 15:21:53.105,1174052561,65105,2,0.98608,-0.03638,-0.13379,23.221,-9.656,-1.702
2026-05-20 15:21:54.305,1174053761,65305,1,1.06299,-0.09351,0.39404,21.458,-2.74,-4.176
2026-05-20 15:21:54.305,1174053761,65305,2,1.02344,0.0481,-0.07349,26.855,1.153,-12.076
2026-05-20 15:21:54.505,1174053961,65505,1,1.11182,0.05542,0.41724,16.687,14.099,-2.672
2026-05-20 15:21:54.505,1174053961,65505,2,0.98853,0.12695,-0.14429,-42.466,-41.504,11.489
2026-05-20 15:21:54.729,1174054185,65729,1,0.98975,0.02686,0.3606,-66.084,-15.924,-6.298
2026-05-20 15:21:54.729,1174054185,65729,2,0.99292,0.04712,-0.09131,-55.557,-19.962,16.061
2026-05-20 15:21:54.929,1174054385,65929,1,1.04224,0.03711,0.22583,-40.015,-43.328,4.481
2026-05-20 15:21:54.929,1174054385,65929,2,1.07739,-0.18774,-0.1084,-46.198,21.42,14.298
2026-05-20 15:21:54.129,1174053585,66129,1,1.24023,-0.12524,0.22559,-42.634,23.55,-2.557
2026-05-20 15:21:54.129,1174053585,66129,2,1.43018,-0.07422,-0.32715,-109.832,17.885,21.267
2026-05-20 15:21:55.329,1174054785,66329,1,0.9729,-0.3667,0.16235,-56.122,-0.084,-1.527
2026-05-20 15:21:55.329,1174054785,66329,2,1.07007,-0.21802,-0.27808,-23.588,28.099,15.779
2026-05-20 15:21:55.529,1174054985,66529,1,0.96509,-0.26782,0.38745,-24.221,10.305,-17.061
2026-05-20 15:21:55.529,1174054985,66529,2,0.97192,-0.25903,-0.13159,-51.206,15.489,-3.275
2026-05-20 15:21:55.729,1174055185,66729,1,0.9646,-0.23853,0.40625,-51.412,1.779,-32.053
2026-05-20 15:21:55.729,1174055185,66729,2,1.04028,-0.27271,-0.0752,-55.443,16.817,-4.962
2026-05-20 15:21:55.929,1174055385,66929,1,0.92554,-0.25635,0.45044,-43.924,9.954,-32.221
2026-05-20 15:21:55.929,1174055385,66929,2,1.04517,-0.12012,0.02173,-43.489,7.107,-21.855
2026-05-20 15:21:55.129,1174054585,67129,1,1.09912,0.08936,0.39771,-11.565,23.122,-36.237
2026-05-20 15:21:55.129,1174054585,67129,2,1.08057,0.1167,-0.06323,-7.305,20.115,-17.366
2026-05-20 15:21:56.329,1174055785,67329,1,0.97656,0.19019,0.35425,-62.092,-18.893,-51.916
2026-05-20 15:21:56.329,1174055785,67329,2,1.00439,0.0061,-0.08203,-53.008,-28.061,0.374
2026-05-20 15:21:56.608,1174056064,67608,1,0.98047,0.17993,0.4668,-24.595,-13.824,-18.038
2026-05-20 15:21:56.608,1174056064,67608,2,1.07104,-0.07251,-0.05908,-10.221,-27.298,3.885
2026-05-20 15:21:56.808,1174056264,67808,1,0.97339,0.14209,0.45825,-14.763,-4.893,0.802
2026-05-20 15:21:56.808,1174056264,67808,2,1.01489,-0.0686,-0.09814,-20.832,-3.489,-3.427
2026-05-20 15:21:56.008,1174055464,68008,1,0.91138,0.1228,0.44312,-6.26,-4.924,9.557
2026-05-20 15:21:56.008,1174055464,68008,2,1.03467,-0.05493,-0.08984,5.313,-4.053,1.664
2026-05-20 15:21:56.208,1174055664,68208,1,1.05933,0.05518,0.3064,-16.71,5.115,9.779
2026-05-20 15:21:56.208,1174055664,68208,2,1.04346,-0.06885,-0.10376,-1.985,-7.519,3.863
2026-05-20 15:21:57.408,1174056864,68408,1,0.96094,0.0188,0.48755,-4.137,16.137,8.389
2026-05-20 15:21:57.408,1174056864,68408,2,1.02515,-0.06128,-0.16504,9.153,-3.603,2.664
2026-05-20 15:21:57.608,1174057064,68608,1,0.9502,-0.02075,0.53125,7.565,13.015,6.87
2026-05-20 15:21:57.608,1174057064,68608,2,1.02954,-0.06494,-0.11646,2.336,4.588,1.412
2026-05-20 15:21:57.808,1174057264,68808,1,0.96045,-0.0376,0.50415,-7.649,-3.13,-2.611
2026-05-20 15:21:57.808,1174057264,68808,2,1.02734,-0.09668,-0.09668,-4.053,5.046,0.397
2026-05-20 15:21:57.008,1174056464,69008,1,0.94336,-0.00366,0.49097,-5.672,14.916,2.466
2026-05-20 15:21:57.008,1174056464,69008,2,1.00366,-0.10376,-0.10425,16.511,3.092,-2.687
2026-05-20 15:21:57.208,1174056664,69208,1,0.92578,-0.04517,0.60376,-8.649,14.405,-1.061
2026-05-20 15:21:57.208,1174056664,69208,2,1.02588,-0.04028,-0.10547,3.565,6.542,-4.351
2026-05-20 15:21:58.429,1174057885,69429,1,0.8396,0.09546,0.72339,-19.863,13.229,-9.031
2026-05-20 15:21:58.429,1174057885,69429,2,0.91382,0.06299,-0.08691,-41.702,4.649,8.504
2026-05-20 15:21:58.629,1174058085,69629,1,0.9165,0.04517,0.60083,-42.305,-36.504,-15.695
2026-05-20 15:21:58.629,1174058085,69629,2,0.97681,-0.06763,-0.02246,-20.183,3.145,23.015
2026-05-20 15:21:58.829,1174058285,69829,1,1.03638,-0.11304,0.48267,-14.588,-3.221,-5.0
2026-05-20 15:21:58.829,1174058285,69829,2,1.01196,0.0105,-0.3457,-61.84,-2.221,5.992
2026-05-20 15:21:58.029,1174057485,70029,1,0.96655,-0.16675,0.47534,-42.573,3.725,-6.992
2026-05-20 15:21:58.029,1174057485,70029,2,1.01733,-0.25146,-0.16821,-67.389,39.267,25.664
2026-05-20 15:21:59.229,1174058685,70229,1,0.95532,-0.521,0.53125,-13.84,3.992,6.527
2026-05-20 15:21:59.229,1174058685,70229,2,0.94067,-0.21289,-0.09668,-51.298,54.786,-11.466
2026-05-20 15:21:59.429,1174058885,70429,1,0.99927,-0.35913,0.50513,-37.252,-13.275,-10.382
2026-05-20 15:21:59.429,1174058885,70429,2,1.23901,0.03711,-0.12354,12.466,-32.313,-3.405
2026-05-20 15:21:59.629,1174059085,70629,1,0.9668,-0.09863,0.50757,-3.252,-0.405,-24.26
2026-05-20 15:21:59.629,1174059085,70629,2,1.03516,-0.07642,-0.20654,-38.023,43.405,-5.374
2026-05-20 15:21:59.829,1174059285,70829,1,0.93579,0.01245,0.53809,20.42,7.595,11.405
2026-05-20 15:21:59.829,1174059285,70829,2,1.01978,-0.08887,-0.00049,35.679,-0.298,0.176
2026-05-20 15:21:59.029,1174058485,71029,1,0.948,-0.03442,0.51538,10.405,-0.489,-1.076
2026-05-20 15:21:59.029,1174058485,71029,2,1.01709,-0.08643,-0.08789,-11.443,9.458,0.611
2026-05-20 15:22:00.229,1174059685,71229,1,0.9231,-0.14648,0.57104,-6.595,-3.595,3.099
2026-05-20 15:22:00.229,1174059685,71229,2,0.99902,0.00635,-0.30444,41.481,4.725,-7.626
2026-05-20 15:22:00.429,1174059885,71429,1,0.94873,-0.2793,0.75684,15.031,16.939,6.901
2026-05-20 15:22:00.429,1174059885,71429,2,1.04395,-0.01929,-0.41895,14.122,4.718,-7.878
2026-05-20 15:22:00.629,1174060085,71629,1,0.94507,-0.12646,0.52515,-4.687,2.672,1.733
2026-05-20 15:22:00.629,1174060085,71629,2,1.02905,-0.1167,-0.18066,4.176,14.802,3.26
2026-05-20 15:22:00.829,1174060285,71829,1,0.94141,-0.12378,0.56909,2.939,6.595,3.099
2026-05-20 15:22:00.829,1174060285,71829,2,1.01978,-0.09937,-0.20117,-4.427,-7.893,-2.412
2026-05-20 15:22:00.029,1174059485,72029,1,0.96118,-0.08569,0.48535,16.969,-31.557,-9.282
2026-05-20 15:22:00.029,1174059485,72029,2,1.06519,-0.06323,-0.18994,12.71,-2.481,0.939
2026-05-20 15:22:01.229,1174060685,72229,1,1.03613,-0.10522,0.37158,13.74,-4.084,-7.611
2026-05-20 15:22:01.229,1174060685,72229,2,1.02905,-0.08496,0.00195,-18.611,44.023,-4.748
2026-05-20 15:22:01.429,1174060885,72429,1,1.0022,0.05469,0.49902,-17.511,5.328,-16.977
2026-05-20 15:22:01.429,1174060885,72429,2,0.99878,-0.09619,-0.01416,-10.611,23.0,2.198
2026-05-20 15:22:01.629,1174061085,72629,1,0.94189,0.02979,0.44922,-7.382,15.74,-3.58
2026-05-20 15:22:01.629,1174061085,72629,2,1.0415,-0.18213,0.06763,18.313,31.153,4.183
2026-05-20 15:22:01.829,1174061285,72829,1,0.87573,0.0166,0.66309,-17.473,0.351,4.725
2026-05-20 15:22:01.829,1174061285,72829,2,1.03857,-0.13965,0.08423,-5.977,8.099,11.313
2026-05-20 15:22:01.029,1174060485,73029,1,0.89063,0.00049,0.63672,-10.824,-9.672,1.756
2026-05-20 15:22:01.029,1174060485,73029,2,1.41089,-0.17773,-0.12695,-65.168,-29.878,-10.321
2026-05-20 15:22:02.322,1174061778,73322,1,0.896,-0.00195,0.47852,-27.901,-2.473,-14.145
2026-05-20 15:22:02.322,1174061778,73322,2,0.92578,-0.03809,0.02808,-52.198,-17.244,-5.992
2026-05-20 15:22:02.522,1174061978,73522,1,1.02979,-0.03149,0.41699,-11.634,-13.344,-6.908
2026-05-20 15:22:02.522,1174061978,73522,2,1.06689,-0.22925,-0.00024,3.496,-13.489,-8.588
2026-05-20 15:22:02.722,1174062178,73722,1,1.01416,-0.02783,0.34888,12.664,-12.061,-4.519
2026-05-20 15:22:02.722,1174062178,73722,2,1.09741,-0.15088,-0.12964,-27.481,-18.198,-11.779
2026-05-20 15:22:02.922,1174062378,73922,1,1.02637,0.02734,0.31177,17.786,12.893,11.58
2026-05-20 15:22:02.922,1174062378,73922,2,1.03516,-0.10205,-0.18628,15.023,0.992,-0.214
2026-05-20 15:22:02.122,1174061578,74122,1,0.99268,-0.01758,0.44727,42.061,5.282,17.015
2026-05-20 15:22:02.122,1174061578,74122,2,1.02856,-0.03833,-0.17871,16.031,8.618,-12.725
2026-05-20 15:22:03.322,1174062778,74322,1,1.01709,0.02319,0.38257,35.542,4.076,2.824
2026-05-20 15:22:03.322,1174062778,74322,2,0.96411,-0.06689,-0.12842,29.153,-34.649,14.405
2026-05-20 15:22:03.522,1174062978,74522,1,1.0498,-0.04053,0.40479,22.626,11.099,27.473
2026-05-20 15:22:03.522,1174062978,74522,2,1.07495,-0.02466,-0.17505,50.725,11.878,-1.664
2026-05-20 15:22:03.722,1174063178,74722,1,0.9917,-0.01978,0.44482,-2.29,3.229,-0.313
2026-05-20 15:22:03.722,1174063178,74722,2,1.01563,-0.1416,-0.13086,-7.374,-1.847,18.779
2026-05-20 15:22:03.922,1174063378,74922,1,0.95459,-0.04785,0.35498,-31.351,2.191,9.359
2026-05-20 15:22:03.922,1174063378,74922,2,1.10571,-0.12549,-0.19263,-3.13,7.847,-6.183
2026-05-20 15:22:03.168,1174062624,75168,1,0.9668,-0.12061,0.51514,-1.267,45.046,-16.893
2026-05-20 15:22:03.168,1174062624,75168,2,1.00244,-0.02783,-0.01318,31.076,-2.397,-3.427
2026-05-20 15:22:04.368,1174063824,75368,1,0.9126,-0.06836,0.61938,-19.641,16.183,-17.168
2026-05-20 15:22:04.368,1174063824,75368,2,0.98267,0.08447,-0.62549,-48.656,-26.885,-14.771
2026-05-20 15:22:04.568,1174064024,75568,1,0.92065,-0.06958,0.5791,-20.969,6.366,-10.29
2026-05-20 15:22:04.568,1174064024,75568,2,1.05884,-0.1106,-0.07251,2.519,-13.275,4.489
2026-05-20 15:22:04.768,1174064224,75768,1,0.86206,-0.09204,0.69214,-16.542,1.344,-4.519
2026-05-20 15:22:04.768,1174064224,75768,2,1.24292,-0.20605,0.14917,162.962,-80.366,5.55
2026-05-20 15:22:04.968,1174064424,75968,1,0.9519,-0.03345,0.55933,-36.267,-23.763,-14.458
2026-05-20 15:22:04.968,1174064424,75968,2,0.95923,0.00073,-0.26367,-21.771,-34.344,11.496
2026-05-20 15:22:04.168,1174063624,76168,1,0.98779,-0.09692,0.45532,-6.076,17.412,-0.313
2026-05-20 15:22:04.168,1174063624,76168,2,0.97485,-0.22461,-0.03735,-8.092,6.534,9.046
2026-05-20 15:22:05.368,1174064824,76368,1,0.93018,-0.19458,0.61328,-21.252,18.969,11.405
2026-05-20 15:22:05.368,1174064824,76368,2,1.05151,-0.08667,-0.19043,3.939,-7.038,2.397
2026-05-20 15:22:05.568,1174065024,76568,1,0.89844,-0.16968,0.65723,2.382,-12.26,-5.16
2026-05-20 15:22:05.568,1174065024,76568,2,1.00317,-0.16016,-0.19824,4.191,-10.855,-3.534
2026-05-20 15:22:05.768,1174065224,76768,1,0.93164,0.04492,0.52051,6.573,-1.527,7.015
2026-05-20 15:22:05.768,1174065224,76768,2,1.04028,-0.16382,0.11157,-116.954,37.015,3.756
2026-05-20 15:22:05.968,1174065424,76968,1,1.04663,-0.03516,0.39478,-61.565,4.985,-42.458
2026-05-20 15:22:05.968,1174065424,76968,2,0.99756,-0.16895,-0.23633,-60.733,-4.534,1.527
2026-05-20 15:22:05.168,1174064624,77168,1,0.96753,-0.03979,0.53809,-35.473,7.061,-17.153
2026-05-20 15:22:05.168,1174064624,77168,2,1.00269,-0.17407,-0.17773,-15.191,4.481,14.565
2026-05-20 15:22:06.368,1174065824,77368,1,0.99609,-0.11792,0.50806,-12.435,6.527,-10.817
2026-05-20 15:22:06.368,1174065824,77368,2,0.9917,-0.15771,-0.22534,-11.008,15.939,6.527
2026-05-20 15:22:06.568,1174066024,77568,1,0.89819,-0.15186,0.53418,-0.336,19.901,11.351
2026-05-20 15:22:06.568,1174066024,77568,2,0.94971,-0.2771,-0.01709,4.076,40.473,10.534
2026-05-20 15:22:06.768,1174066224,77768,1,0.87329,-0.14648,0.68091,11.74,11.008,12.519
2026-05-20 15:22:06.768,1174066224,77768,2,1.00439,-0.13892,-0.05298,18.046,-0.198,-2.29
2026-05-20 15:22:06.968,1174066424,77968,1,0.86499,-0.10645,0.677,26.176,-0.84,12.443
2026-05-20 15:22:06.968,1174066424,77968,2,1.05737,-0.1272,-0.01587,16.954,3.756,1.855
2026-05-20 15:22:06.168,1174065624,78168,1,0.91382,-0.09204,0.60791,34.649,3.947,25.008
2026-05-20 15:22:06.168,1174065624,78168,2,0.97852,-0.11255,0.1604,43.588,23.099,13.588
2026-05-20 15:22:07.368,1174066824,78368,1,0.89404,-0.1167,0.70996,15.351,-5.74,20.359
2026-05-20 15:22:07.368,1174066824,78368,2,1.02954,-0.10181,0.19116,18.573,3.504,8.008
2026-05-20 15:22:07.568,1174067024,78568,1,0.89282,-0.12134,0.65869,50.282,9.092,19.603
2026-05-20 15:22:07.568,1174067024,78568,2,0.97046,-0.12842,0.19653,40.809,24.954,15.656
2026-05-20 15:22:07.768,1174067224,78768,1,0.80225,-0.16016,0.75122,7.198,3.969,18.618
2026-05-20 15:22:07.768,1174067224,78768,2,0.95288,-0.23438,0.29102,21.481,17.015,13.26
2026-05-20 15:22:10.440,1174069896,81439,1,0.92285,-0.10254,0.56567,12.687,0.13,10.389
2026-05-20 15:22:10.440,1174069896,81439,2,0.94507,0.08496,0.28638,141.344,7.397,21.504
2026-05-20 15:22:10.639,1174070095,81639,1,1.03979,-0.11938,0.54712,12.893,-5.916,-5.641
2026-05-20 15:22:10.639,1174070095,81639,2,1.05176,-0.07349,-0.26294,-21.137,-21.511,8.679
2026-05-20 15:22:10.839,1174070295,81839,1,1.08105,-0.37744,0.72241,179.267,-14.511,103.397
2026-05-20 15:22:10.839,1174070295,81839,2,1.03345,-0.06543,0.14478,-64.42,71.489,-11.847
2026-05-20 15:22:10.039,1174069495,82039,1,0.94092,-0.11792,0.56738,13.939,21.74,9.42
2026-05-20 15:22:10.039,1174069495,82039,2,0.99316,-0.07397,-0.22119,18.84,-12.74,10.435
2026-05-20 15:22:11.248,1174070704,82248,1,0.88354,-0.07324,0.64771,1.511,7.466,5.916
2026-05-20 15:22:11.248,1174070704,82248,2,0.85327,-0.07666,-0.15308,-35.244,6.237,-0.084
2026-05-20 15:22:11.477,1174070933,82477,1,0.87939,-0.11597,0.62524,-5.618,-4.336,-13.397
2026-05-20 15:22:11.477,1174070933,82477,2,1.05615,-0.10938,-0.06543,-16.947,19.504,3.221
2026-05-20 15:22:11.677,1174071133,82677,1,0.90503,-0.09351,0.62012,-3.863,3.115,-6.115
2026-05-20 15:22:11.677,1174071133,82677,2,1.18774,-0.12256,0.03052,-6.053,-5.473,4.008
2026-05-20 15:22:11.877,1174071333,82877,1,0.91602,-0.11743,0.67505,8.763,24.481,-13.267
2026-05-20 15:22:11.877,1174071333,82877,2,0.86963,-0.00879,-0.23657,10.412,13.313,-7.092
2026-05-20 15:22:11.077,1174070533,83077,1,0.89648,0.12671,0.54517,-18.489,-17.237,-0.038
2026-05-20 15:22:11.077,1174070533,83077,2,0.90845,0.3999,0.5918,-115.267,39.221,16.214
2026-05-20 15:22:12.277,1174071733,83277,1,0.92651,-0.0874,0.60986,-4.427,-20.817,21.13
2026-05-20 15:22:12.277,1174071733,83277,2,1.03369,-0.03369,0.0542,3.122,24.13,-5.962
2026-05-20 15:22:12.477,1174071933,83477,1,0.89478,-0.11035,0.58545,-2.053,10.412,13.298
2026-05-20 15:22:12.477,1174071933,83477,2,1.05054,0.06616,-0.05176,33.221,10.756,14.382
2026-05-20 15:22:12.677,1174072133,83677,1,0.8938,-0.15161,0.60571,-10.076,6.58,13.603
2026-05-20 15:22:12.677,1174072133,83677,2,1.01147,-0.03101,0.03247,-6.328,17.771,3.725
2026-05-20 15:22:12.877,1174072333,83877,1,0.91382,-0.08618,0.63037,-5.84,4.718,-14.565
2026-05-20 15:22:12.877,1174072333,83877,2,0.99683,-0.07007,0.07251,18.191,-14.748,11.099
2026-05-20 15:22:12.077,1174071533,84077,1,0.89917,-0.09985,0.69507,-22.794,5.679,-16.855
2026-05-20 15:22:12.077,1174071533,84077,2,1.02832,-0.0061,-0.06152,5.718,-5.366,0.664
2026-05-20 15:22:13.277,1174072733,84277,1,0.87573,-0.01563,0.55029,-8.855,-30.092,-8.405
2026-05-20 15:22:13.277,1174072733,84277,2,0.96362,-0.02002,-0.05322,-2.695,-7.756,4.191
2026-05-20 15:22:13.477,1174072933,84477,1,1.06982,-0.02637,0.43408,1.863,28.282,-4.687
2026-05-20 15:22:13.477,1174072933,84477,2,1.11841,-0.09937,0.03198,-18.328,39.168,-5.702
2026-05-20 15:22:13.685,1174073141,84685,1,0.88916,-0.08936,0.60303,-0.145,38.321,-5.336
2026-05-20 15:22:13.685,1174073141,84685,2,0.95361,-0.06299,-0.01099,30.282,11.748,1.687
2026-05-20 15:22:13.885,1174073341,84885,1,0.78784,-0.11279,0.81079,-3.168,2.87,-3.076
2026-05-20 15:22:13.885,1174073341,84885,2,0.97485,-0.14014,-0.02246,30.519,-22.916,-6.649
2026-05-20 15:22:13.085,1174072541,85085,1,0.86011,-0.10938,0.68042,2.237,-35.695,-4.641
2026-05-20 15:22:13.085,1174072541,85085,2,0.9939,-0.11353,-0.02075,11.962,-26.855,-0.771
2026-05-20 15:22:14.285,1174073741,85285,1,0.97534,-0.10327,0.42676,9.924,-43.038,-6.626
2026-05-20 15:22:14.285,1174073741,85285,2,1.09839,-0.07202,-0.07861,-1.107,-27.634,-14.534
2026-05-20 15:22:14.485,1174073941,85485,1,1.04004,-0.06885,0.3999,14.344,3.962,-0.74
2026-05-20 15:22:14.485,1174073941,85485,2,1.04175,-0.04736,-0.01343,5.824,17.435,-2.092
2026-05-20 15:22:14.766,1174074222,85766,1,0.92432,0.03735,0.53638,3.023,34.962,-2.26
2026-05-20 15:22:14.766,1174074222,85766,2,0.99951,-0.13721,0.03418,10.84,6.489,11.489
2026-05-20 15:22:14.966,1174074422,85966,1,0.83618,-0.21118,0.55493,25.374,12.565,-3.412
2026-05-20 15:22:14.966,1174074422,85966,2,1.01563,-0.38696,-0.05933,65.771,-5.344,-9.756
2026-05-20 15:22:14.166,1174073622,86166,1,0.94653,0.646,0.67017,64.275,-23.847,4.145
2026-05-20 15:22:14.166,1174073622,86166,2,0.8999,-0.03369,0.03442,-18.733,-68.786,7.71
2026-05-20 15:22:15.366,1174074822,86366,1,0.90161,0.23193,0.44702,18.527,-15.336,10.832
2026-05-20 15:22:15.366,1174074822,86366,2,1.04492,0.09863,-0.10938,4.565,-44.611,7.954
2026-05-20 15:22:15.582,1174075038,86581,1,1.15576,-0.06567,0.25684,8.145,-36.55,13.397
2026-05-20 15:22:15.582,1174075038,86581,2,1.01392,-0.05005,-0.03149,-3.641,13.504,-0.221
2026-05-20 15:22:15.781,1174075237,86781,1,1.0354,-0.01929,0.35059,10.656,1.435,1.214
2026-05-20 15:22:15.781,1174075237,86781,2,1.02832,-0.11841,-0.07593,20.397,2.55,8.267
2026-05-20 15:22:15.981,1174075437,86981,1,1.01343,0.04199,0.32764,-4.137,-0.565,3.893
2026-05-20 15:22:15.981,1174075437,86981,2,1.09644,-0.08228,-0.1272,-3.023,-2.595,1.206
2026-05-20 15:22:15.181,1174074637,87181,1,0.99683,0.03638,0.37158,-4.282,11.473,0.183
2026-05-20 15:22:15.181,1174074637,87181,2,1.00293,-0.04907,-0.11914,12.206,-5.405,-5.458
2026-05-20 15:22:16.381,1174075837,87381,1,1.00781,0.0603,0.38721,5.702,-0.206,1.802
2026-05-20 15:22:16.381,1174075837,87381,2,0.97119,-0.03833,-0.21924,-4.282,-11.168,1.13
2026-05-20 15:22:16.581,1174076037,87581,1,1.00415,0.04102,0.34204,9.573,0.282,-0.733
2026-05-20 15:22:16.581,1174076037,87581,2,1.02686,-0.05981,-0.13965,-9.221,-4.336,-0.74
2026-05-20 15:22:16.781,1174076237,87781,1,0.99512,0.01489,0.35107,1.267,-2.489,1.183
2026-05-20 15:22:16.781,1174076237,87781,2,1.03418,-0.0979,-0.15552,-3.626,0.473,-5.656
2026-05-20 15:22:16.981,1174076437,87981,1,1.01123,0.03125,0.39185,20.977,2.061,3.397
2026-05-20 15:22:16.981,1174076437,87981,2,1.02344,-0.10522,-0.12109,1.214,0.359,-6.092
2026-05-20 15:22:16.181,1174075637,88181,1,1.03687,0.0271,0.36548,-5.389,-0.901,1.0
2026-05-20 15:22:16.181,1174075637,88181,2,1.07886,-0.01343,-0.1333,-15.847,-4.916,1.145
2026-05-20 15:22:17.381,1174076837,88381,1,1.0083,-0.00391,0.41284,1.092,7.26,-0.611
2026-05-20 15:22:17.381,1174076837,88381,2,1.04834,0.00659,-0.18042,-5.084,-1.137,4.664
2026-05-20 15:22:17.581,1174077037,88581,1,1.00562,-0.01465,0.36987,-8.786,6.122,-2.634
2026-05-20 15:22:17.581,1174077037,88581,2,1.03101,-0.0918,-0.18652,-8.29,0.954,-2.74
2026-05-20 15:22:17.781,1174077237,88781,1,1.00903,0.01587,0.42212,-7.458,8.878,-6.511
2026-05-20 15:22:17.781,1174077237,88781,2,1.01147,-0.05151,-0.18896,-10.947,6.191,0.176
2026-05-20 15:22:17.981,1174077437,88981,1,0.98755,0.01929,0.4165,-11.718,1.794,-1.008
2026-05-20 15:22:17.981,1174077437,88981,2,0.99512,-0.05151,-0.17529,2.145,-2.588,-5.038
2026-05-20 15:22:17.181,1174076637,89181,1,1.01733,0.06689,0.39893,10.046,-3.389,-1.122
2026-05-20 15:22:17.181,1174076637,89181,2,1.02856,-0.00635,-0.16333,6.282,0.687,1.954
2026-05-20 15:22:18.381,1174077837,89381,1,1.00806,0.0481,0.37866,7.267,-0.748,3.313
2026-05-20 15:22:18.381,1174077837,89381,2,1.0271,-0.01123,-0.16675,4.107,0.855,4.771
2026-05-20 15:22:18.581,1174078037,89581,1,1.01904,0.00073,0.4231,-0.817,4.107,3.565
2026-05-20 15:22:18.581,1174078037,89581,2,1.05591,-0.02197,-0.13477,-1.672,1.366,0.718
2026-05-20 15:22:18.781,1174078237,89781,1,1.00366,0.00854,0.4187,-7.267,5.969,1.389
2026-05-20 15:22:18.781,1174078237,89781,2,1.01123,-0.03857,-0.1438,-1.527,-2.733,3.847
2026-05-20 15:22:18.981,1174078437,89981,1,1.02197,0.06787,0.42407,0.679,2.55,-4.405
2026-05-20 15:22:18.981,1174078437,89981,2,1.021,-0.06958,-0.10327,-9.626,4.031,1.061
2026-05-20 15:22:18.181,1174077637,90181,1,1.00415,0.00757,0.43286,-2.137,-1.656,0.191
2026-05-20 15:22:18.181,1174077637,90181,2,1.01025,-0.02637,-0.19824,-8.344,-4.16,-0.176
2026-05-20 15:22:19.395,1174078851,90395,1,0.97559,0.04883,0.4585,-10.366,-8.359,3.282
2026-05-20 15:22:19.395,1174078851,90395,2,1.01221,0.02124,-0.20654,-3.489,-4.466,-4.786
2026-05-20 15:22:19.595,1174079051,90595,1,0.97339,0.14771,0.33594,-8.939,-11.901,14.573
2026-05-20 15:22:19.595,1174079051,90595,2,1.17212,0.05029,-0.07349,-26.359,23.244,-0.519
2026-05-20 15:22:19.795,1174079251,90795,1,0.9978,-0.0835,0.37573,-0.756,5.389,6.053
2026-05-20 15:22:19.795,1174079251,90795,2,0.9624,-0.07861,-0.14551,-7.023,-7.725,10.733
2026-05-20 15:22:19.995,1174079451,90995,1,0.97485,-0.06055,0.39014,-43.397,7.122,4.389
2026-05-20 15:22:19.995,1174079451,90995,2,1.06104,-0.10767,-0.17407,-29.29,-9.344,13.992
2026-05-20 15:22:19.195,1174078651,91195,1,1.02197,-0.15356,0.31787,-75.649,12.198,-8.275
2026-05-20 15:22:19.195,1174078651,91195,2,0.99683,-0.14771,-0.27344,-60.26,-10.382,15.153
2026-05-20 15:22:20.397,1174079853,91396,1,1.01465,-0.146,0.36426,-55.42,0.992,-11.649
2026-05-20 15:22:20.397,1174079853,91396,2,1.0,-0.1377,-0.26001,-52.168,2.0,13.351
2026-05-20 15:22:20.596,1174080052,91596,1,1.04004,-0.15723,0.39331,-47.145,13.824,-16.115
2026-05-20 15:22:20.596,1174080052,91596,2,0.99854,-0.16211,-0.28882,-52.733,9.641,15.443
2026-05-20 15:22:20.796,1174080252,91796,1,1.01172,-0.16406,0.37573,-21.328,3.374,10.298
2026-05-20 15:22:20.796,1174080252,91796,2,1.00049,-0.16846,-0.23364,-3.496,19.504,2.458
2026-05-20 15:22:20.996,1174080452,91996,1,1.01245,-0.2019,0.3208,6.29,11.725,9.924
2026-05-20 15:22:20.996,1174080452,91996,2,1.01929,-0.22266,-0.20142,7.962,20.809,-2.008
2026-05-20 15:22:20.196,1174079652,92196,1,0.99463,-0.19995,0.37744,30.359,16.901,8.366
2026-05-20 15:22:20.196,1174079652,92196,2,1.02612,-0.18604,-0.02905,21.962,41.511,2.359
2026-05-20 15:22:21.396,1174080852,92396,1,0.90088,-0.12158,0.60303,32.916,16.008,18.718
2026-05-20 15:22:21.396,1174080852,92396,2,1.10303,-0.15063,0.01685,17.336,-3.168,8.595
2026-05-20 15:22:21.596,1174081052,92596,1,0.93921,-0.20142,0.57837,24.977,-5.206,11.939
2026-05-20 15:22:21.596,1174081052,92596,2,1.02759,-0.11182,0.0835,29.687,17.672,-20.656
2026-05-20 15:22:21.796,1174081252,92796,1,0.98291,-0.08105,0.51416,25.092,1.649,0.145
2026-05-20 15:22:21.796,1174081252,92796,2,0.98706,-0.14819,0.11279,30.924,6.489,7.664
2026-05-20 15:22:21.996,1174081452,92996,1,0.88232,-0.1001,0.65112,9.504,7.427,5.489
2026-05-20 15:22:21.996,1174081452,92996,2,1.02563,-0.1001,0.11353,17.542,-7.336,13.366
2026-05-20 15:22:21.196,1174080652,93196,1,0.89307,-0.17896,0.64355,15.473,-5.489,4.42
2026-05-20 15:22:21.196,1174080652,93196,2,0.97437,-0.1687,0.04224,6.412,-22.137,-2.962
2026-05-20 15:22:22.396,1174081852,93396,1,0.94385,-0.13428,0.45508,20.893,-52.16,-0.099
2026-05-20 15:22:22.396,1174081852,93396,2,1.01001,-0.17505,-0.00586,-17.962,-36.863,-23.0
2026-05-20 15:22:22.596,1174082052,93596,1,1.02026,-0.02979,0.30029,11.58,-24.214,0.229
2026-05-20 15:22:22.596,1174082052,93596,2,1.01001,-0.12842,-0.17163,13.962,-39.954,6.282
2026-05-20 15:22:22.796,1174082252,93796,1,1.07642,-0.08301,0.29712,-1.863,-15.733,7.336
2026-05-20 15:22:22.796,1174082252,93796,2,1.07544,-0.0459,-0.12109,18.313,-0.992,0.412
2026-05-20 15:22:22.996,1174082452,93996,1,1.05713,-0.08765,0.31152,-2.252,12.473,-3.756
2026-05-20 15:22:22.996,1174082452,93996,2,0.98926,-0.26685,-0.23071,9.527,-1.748,-9.756
2026-05-20 15:22:25.845,1174085301,96845,1,0.96265,-0.2937,0.39673,26.824,-11.237,-5.786
2026-05-20 15:22:25.845,1174085301,96845,2,1.04541,-0.15796,-0.22437,25.786,-17.878,-15.847
2026-05-20 15:22:25.045,1174084501,97045,1,1.07739,-0.03809,0.35767,-3.115,1.58,-21.061
2026-05-20 15:22:25.045,1174084501,97045,2,1.01489,-0.09082,-0.23608,-16.672,0.13,-11.443
2026-05-20 15:22:26.245,1174085701,97245,1,0.9353,0.09912,0.47803,-21.481,15.26,-26.435
2026-05-20 15:22:26.245,1174085701,97245,2,1.02173,0.07202,-0.18994,-37.672,-3.435,-3.748
2026-05-20 15:22:26.445,1174085901,97445,1,0.95313,0.11157,0.48389,-30.847,-2.649,-10.267
2026-05-20 15:22:26.445,1174085901,97445,2,1.00488,0.06787,-0.17456,-32.802,-3.901,9.931
2026-05-20 15:22:26.645,1174086101,97645,1,1.00488,0.01318,0.41553,-29.939,-9.489,-4.015
2026-05-20 15:22:26.645,1174086101,97645,2,1.00879,-0.09082,-0.2373,-40.931,-17.008,2.74
2026-05-20 15:22:26.845,1174086301,97845,1,1.05615,-0.11108,0.41016,-5.183,7.664,2.588
2026-05-20 15:22:26.845,1174086301,97845,2,1.02124,-0.05981,-0.20142,-6.786,0.252,1.389
2026-05-20 15:22:29.033,1174088489,101033,1,1.01538,-0.05957,0.37524,3.565,4.122,1.374
2026-05-20 15:22:29.033,1174088489,101033,2,1.02271,-0.02979,-0.21533,-5.053,1.466,1.916
2026-05-20 15:22:30.233,1174089689,101233,1,1.00806,-0.03979,0.37354,6.695,0.832,-1.748
2026-05-20 15:22:30.233,1174089689,101233,2,1.02539,-0.04199,-0.19678,2.87,-7.641,-0.443
2026-05-20 15:22:30.433,1174089889,101433,1,1.0249,-0.02759,0.36084,-0.336,-0.519,-0.206
2026-05-20 15:22:30.433,1174089889,101433,2,1.00879,-0.04004,-0.17456,0.771,1.374,0.198
2026-05-20 15:22:30.633,1174090089,101633,1,1.02344,-0.13867,0.34961,0.015,-1.359,-5.313
2026-05-20 15:22:30.633,1174090089,101633,2,1.03076,-0.06079,-0.20776,-8.092,1.031,-0.863
2026-05-20 15:22:33.605,1174093061,104605,1,1.02832,-0.07373,0.31079,10.328,2.053,-0.573
2026-05-20 15:22:33.605,1174093061,104605,2,1.02905,-0.02783,-0.21948,-0.771,1.748,-0.603
2026-05-20 15:22:33.805,1174093261,104805,1,1.03027,-0.05591,0.33716,-0.321,1.313,2.183
2026-05-20 15:22:33.805,1174093261,104805,2,1.01709,-0.06396,-0.20483,5.099,-1.168,2.939
2026-05-20 15:22:33.005,1174092461,105005,1,1.0105,-0.07544,0.34082,-10.687,-2.679,1.58
2026-05-20 15:22:33.005,1174092461,105005,2,1.01001,-0.06396,-0.20898,-11.382,0.58,2.901
2026-05-20 15:22:33.205,1174092661,105205,1,1.04102,-0.0564,0.30566,-11.412,9.977,-0.023
2026-05-20 15:22:33.205,1174092661,105205,2,1.04443,-0.05054,-0.25854,-3.511,7.71,7.099
2026-05-20 15:22:34.405,1174093861,105405,1,1.02612,-0.09741,0.32471,-6.092,0.557,-0.649
2026-05-20 15:22:34.405,1174093861,105405,2,1.0249,-0.02783,-0.20337,5.221,0.977,1.099
2026-05-20 15:22:36.183,1174095639,108183,1,1.0127,-0.09814,0.37012,8.397,2.29,1.214
2026-05-20 15:22:36.183,1174095639,108183,2,1.04932,-0.08862,-0.15796,-0.153,11.985,-1.779
2026-05-20 15:22:37.383,1174096839,108383,1,1.0083,-0.0542,0.37256,-0.076,1.267,0.115
2026-05-20 15:22:37.383,1174096839,108383,2,1.0354,-0.05884,-0.17896,1.756,-3.74,2.557
2026-05-20 15:22:37.583,1174097039,108583,1,1.0061,-0.08521,0.37598,-3.198,0.42,-0.45
2026-05-20 15:22:37.583,1174097039,108583,2,1.02856,-0.07617,-0.1665,5.107,2.107,-0.176
2026-05-20 15:22:37.783,1174097239,108783,1,1.01294,-0.08813,0.3457,1.008,2.924,-3.832
2026-05-20 15:22:37.783,1174097239,108783,2,1.01758,-0.06665,-0.16919,-1.74,5.718,-1.427
2026-05-20 15:22:37.016,1174096472,109016,1,1.01855,-0.07935,0.36133,-11.405,0.145,3.542
2026-05-20 15:22:37.016,1174096472,109016,2,1.02222,-0.04565,-0.15283,-6.122,-2.145,1.038
2026-05-20 15:22:37.216,1174096672,109216,1,1.0105,-0.09888,0.3501,-5.947,1.634,-0.939
2026-05-20 15:22:37.216,1174096672,109216,2,1.03076,-0.07056,-0.18945,0.771,-4.962,1.115
2026-05-20 15:22:38.421,1174097877,109420,1,1.02661,-0.104,0.34863,7.832,-0.237,-0.74
2026-05-20 15:22:38.421,1174097877,109420,2,1.01025,-0.06763,-0.19116,3.031,3.924,-0.863
2026-05-20 15:22:38.620,1174098076,109620,1,1.03662,-0.07007,0.34448,-5.084,2.137,-1.366
2026-05-20 15:22:38.620,1174098076,109620,2,1.00513,-0.05859,-0.18579,-5.008,0.733,0.947
2026-05-20 15:22:38.820,1174098276,109820,1,1.01709,-0.08032,0.34448,-8.382,-0.527,-3.298
2026-05-20 15:22:38.820,1174098276,109820,2,1.00977,-0.08472,-0.19214,-5.664,-0.282,1.863
2026-05-20 15:22:38.020,1174097476,110020,1,1.02246,-0.09033,0.34619,1.511,-1.191,-0.45
2026-05-20 15:22:38.020,1174097476,110020,2,1.03174,-0.06787,-0.18335,1.573,-1.427,-0.634
2026-05-20 15:22:38.220,1174097676,110220,1,1.0188,-0.06421,0.33105,6.885,-1.634,1.046
2026-05-20 15:22:38.220,1174097676,110220,2,1.05566,-0.06616,-0.20508,14.977,-5.649,-2.29
2026-05-20 15:22:39.420,1174098876,110420,1,1.03662,-0.05591,0.3291,9.061,3.26,0.748
2026-05-20 15:22:39.420,1174098876,110420,2,1.02002,-0.00146,-0.16309,12.16,5.427,1.84
2026-05-20 15:22:39.707,1174099163,110706,1,1.02026,-0.09106,0.32935,0.321,1.542,-1.679
2026-05-20 15:22:39.707,1174099163,110706,2,1.05493,-0.06738,-0.16992,7.718,7.916,0.313
2026-05-20 15:22:39.906,1174099362,110906,1,1.01343,-0.05322,0.35205,-0.672,6.557,-1.305
2026-05-20 15:22:39.906,1174099362,110906,2,1.02905,-0.05298,-0.20068,3.969,1.107,0.084
2026-05-20 15:22:39.106,1174098562,111106,1,1.01831,-0.04175,0.35596,0.802,1.924,-1.725
2026-05-20 15:22:39.106,1174098562,111106,2,1.02295,-0.04419,-0.19702,-2.885,-0.557,2.733
2026-05-20 15:22:40.318,1174099774,111317,1,1.02295,-0.05298,0.34839,-6.718,-2.137,-0.45
2026-05-20 15:22:40.318,1174099774,111317,2,1.03955,-0.06934,-0.17261,-5.107,5.794,2.046
2026-05-20 15:22:40.517,1174099973,111517,1,1.02295,-0.06421,0.36963,-7.435,1.672,-0.847
2026-05-20 15:22:40.517,1174099973,111517,2,1.02051,-0.07666,-0.1897,-3.542,-1.153,2.046
2026-05-20 15:22:40.717,1174100173,111717,1,0.99585,-0.07935,0.38623,-4.901,-0.511,-0.183
2026-05-20 15:22:40.717,1174100173,111717,2,1.00415,-0.0625,-0.18652,-7.672,-7.687,-1.603
2026-05-20 15:22:40.917,1174100373,111917,1,1.05127,-0.09741,0.27368,-2.771,10.359,-3.962
2026-05-20 15:22:40.917,1174100373,111917,2,1.02295,-0.02026,-0.26538,7.496,6.901,1.008
2026-05-20 15:22:40.117,1174099573,112117,1,1.0271,-0.04712,0.39331,4.817,6.763,-1.626
2026-05-20 15:22:40.117,1174099573,112117,2,1.00928,-0.03491,-0.23608,5.878,4.084,3.573
2026-05-20 15:22:41.317,1174100773,112317,1,1.03516,-0.06396,0.37476,-9.481,2.023,-2.13
2026-05-20 15:22:41.317,1174100773,112317,2,1.02075,-0.08643,-0.23022,-10.603,1.992,3.641
2026-05-20 15:22:41.517,1174100973,112517,1,0.98633,-0.04639,0.35913,-5.802,-5.473,9.916
2026-05-20 15:22:41.517,1174100973,112517,2,1.07422,0.01074,-0.20972,-8.885,-1.534,1.053
2026-05-20 15:22:41.717,1174101173,112717,1,0.9895,-0.05859,0.40137,4.42,12.008,0.519
2026-05-20 15:22:41.717,1174101173,112717,2,0.99854,-0.12744,-0.1626,-17.771,-1.611,5.588
2026-05-20 15:22:41.917,1174101373,112917,1,1.03906,-0.05347,0.40112,5.115,-4.382,-5.458
2026-05-20 15:22:41.917,1174101373,112917,2,1.01074,-0.07837,-0.146,-1.733,3.473,2.389
2026-05-20 15:22:41.120,1174100576,113120,1,1.04126,-0.08179,0.32886,12.511,2.008,3.115
2026-05-20 15:22:41.120,1174100576,113120,2,1.02905,-0.09839,-0.198,8.366,-0.397,2.962
2026-05-20 15:22:42.320,1174101776,113320,1,1.04346,-0.1001,0.33105,12.573,2.473,3.901
2026-05-20 15:22:42.320,1174101776,113320,2,1.03687,-0.0918,-0.14453,18.893,1.244,-0.847
2026-05-20 15:22:42.520,1174101976,113520,1,0.95459,-0.16089,0.38525,13.55,19.802,-0.771
2026-05-20 15:22:42.520,1174101976,113520,2,0.98389,-0.14502,-0.27881,-11.176,3.046,-3.328
2026-05-20 15:22:42.720,1174102176,113720,1,1.00732,-0.09351,0.39258,-0.924,0.366,-5.511
2026-05-20 15:22:42.720,1174102176,113720,2,1.05688,-0.15356,0.07788,-9.618,49.756,-0.756
2026-05-20 15:22:42.920,1174102376,113920,1,1.00439,0.00146,0.41553,-1.687,23.618,-7.603
2026-05-20 15:22:42.920,1174102376,113920,2,1.05542,-0.11426,-0.16016,-8.855,-20.656,1.244
2026-05-20 15:22:42.120,1174101576,114120,1,1.04346,0.01709,0.41138,8.603,6.908,-9.504
2026-05-20 15:22:42.120,1174101576,114120,2,0.90088,0.02026,-0.30493,40.977,-38.16,1.107
2026-05-20 15:22:43.320,1174102776,114320,1,1.00562,0.04126,0.40381,-18.344,-1.42,1.183
2026-05-20 15:22:43.320,1174102776,114320,2,1.05371,-0.03735,-0.11841,-51.313,5.771,4.969
2026-05-20 15:22:43.520,1174102976,114520,1,1.00317,-0.04126,0.44604,-0.573,7.412,-7.053
2026-05-20 15:22:43.520,1174102976,114520,2,1.16064,-0.02246,-0.13452,-3.26,26.504,18.802
2026-05-20 15:22:43.720,1174103176,114720,1,0.98145,-0.04712,0.46118,13.779,3.916,1.145
2026-05-20 15:22:43.720,1174103176,114720,2,0.97803,-0.09839,0.05298,-13.031,7.634,-5.87
2026-05-20 15:22:43.920,1174103376,114920,1,0.98193,-0.03418,0.49829,1.183,-2.374,1.176
2026-05-20 15:22:43.920,1174103376,114920,2,1.05615,-0.07739,-0.17261,2.534,4.786,8.137
2026-05-20 15:22:43.120,1174102576,115120,1,0.98413,-0.06567,0.49683,8.969,0.58,2.679
2026-05-20 15:22:43.120,1174102576,115120,2,1.03589,-0.10107,-0.11401,-12.374,-12.977,-17.427
2026-05-20 15:22:44.320,1174103776,115320,1,1.02148,-0.0332,0.44775,-3.053,5.473,0.374
2026-05-20 15:22:44.320,1174103776,115320,2,1.13916,-0.07227,-0.24854,6.489,24.634,3.092
2026-05-20 15:22:44.520,1174103976,115520,1,0.99805,-0.0769,0.44092,0.893,9.13,-1.275
2026-05-20 15:22:44.520,1174103976,115520,2,1.0061,-0.14624,-0.10254,4.275,-1.328,4.13
2026-05-20 15:22:44.720,1174104176,115720,1,1.00195,-0.02686,0.43384,4.916,-3.206,-1.763
2026-05-20 15:22:44.720,1174104176,115720,2,1.01782,-0.08032,0.03809,23.565,8.618,-1.595
2026-05-20 15:22:44.920,1174104376,115920,1,0.93164,0.09302,0.38403,-19.931,-12.031,1.603
2026-05-20 15:22:44.920,1174104376,115920,2,1.04224,-0.05713,-0.14111,-27.008,5.809,-0.969
2026-05-20 15:22:45.245,1174104701,116245,1,0.9873,-0.05273,0.42627,3.718,3.389,1.176
2026-05-20 15:22:45.245,1174104701,116245,2,1.00537,-0.04321,-0.20483,-12.626,1.206,0.122
2026-05-20 15:22:45.445,1174104901,116445,1,0.99414,-0.07349,0.43091,1.282,2.504,-1.763
2026-05-20 15:22:45.445,1174104901,116445,2,0.99292,-0.19409,0.09399,-37.107,53.725,-3.237
2026-05-20 15:22:45.645,1174105101,116645,1,0.98706,-0.06055,0.44897,-8.16,-12.427,5.763
2026-05-20 15:22:45.645,1174105101,116645,2,1.03149,-0.03687,-0.15991,-29.382,-13.672,-2.611
2026-05-20 15:22:45.845,1174105301,116845,1,1.01978,-0.05078,0.39038,-6.473,-4.71,1.863
2026-05-20 15:22:45.845,1174105301,116845,2,1.15552,-0.01709,-0.22778,0.748,6.206,-5.794
2026-05-20 15:22:45.045,1174104501,117045,1,1.00049,-0.04541,0.41797,0.656,5.336,-0.267
2026-05-20 15:22:45.045,1174104501,117045,2,1.19189,-0.23804,-0.39746,-67.267,-0.145,13.985
2026-05-20 15:22:46.245,1174105701,117245,1,0.98169,-0.03174,0.44897,6.84,5.389,1.069
2026-05-20 15:22:46.245,1174105701,117245,2,1.12671,-0.13843,-0.07617,-14.565,-4.42,-5.802
2026-05-20 15:22:46.445,1174105901,117445,1,0.99707,-0.00317,0.42114,-5.435,10.74,-1.901
2026-05-20 15:22:46.445,1174105901,117445,2,1.15576,-0.14844,-0.04175,-28.595,-26.664,8.595
2026-05-20 15:22:46.645,1174106101,117645,1,0.9812,-0.08008,0.46387,-1.901,3.412,4.893
2026-05-20 15:22:46.645,1174106101,117645,2,1.01147,-0.1311,-0.11694,-6.16,7.267,-0.16
2026-05-20 15:22:46.845,1174106301,117845,1,0.97754,-0.07153,0.4519,3.885,4.954,2.16
2026-05-20 15:22:46.845,1174106301,117845,2,0.89819,-0.1394,-0.14917,19.496,9.191,3.336
2026-05-20 15:22:46.045,1174105501,118045,1,1.0415,-0.12354,0.39478,23.344,-0.099,16.695
2026-05-20 15:22:46.045,1174105501,118045,2,1.04053,-0.03125,-0.10571,35.107,14.626,0.695
2026-05-20 15:22:47.245,1174106701,118245,1,0.92261,0.29102,0.48682,0.855,-21.42,29.588
2026-05-20 15:22:47.245,1174106701,118245,2,1.04468,0.06909,-0.09326,-16.061,-3.336,2.939
2026-05-20 15:22:47.445,1174106901,118445,1,1.14014,-0.30298,0.35132,51.473,-6.023,24.55
2026-05-20 15:22:47.445,1174106901,118445,2,0.9314,-0.26685,-0.02759,1.74,-28.45,12.718
2026-05-20 15:22:47.645,1174107101,118645,1,0.83228,-0.28931,0.35791,0.924,2.145,13.443
2026-05-20 15:22:47.645,1174107101,118645,2,0.93042,-0.25317,-0.23291,0.656,-41.641,10.328
2026-05-20 15:22:50.537,1174109993,121537,1,0.68896,0.07983,0.77832,-26.328,-12.748,22.145
2026-05-20 15:22:50.537,1174109993,121537,2,0.72754,-0.1792,0.6604,-14.794,-28.611,12.344
2026-05-20 15:22:50.737,1174110193,121737,1,0.95313,-0.22485,0.68237,-8.008,-0.588,12.939
2026-05-20 15:22:50.737,1174110193,121737,2,0.92139,-0.1731,0.81641,2.687,25.893,25.389
2026-05-20 15:22:50.937,1174110393,121937,1,0.62061,-0.38257,0.55713,-3.42,5.534,5.435
2026-05-20 15:22:50.937,1174110393,121937,2,0.52759,-0.21533,0.23535,-13.534,-7.634,-5.939
2026-05-20 15:22:50.137,1174109593,122137,1,0.90967,-0.41504,0.73999,-27.168,-55.969,-4.206
2026-05-20 15:22:50.137,1174109593,122137,2,0.99878,-0.4043,0.78833,16.282,-0.42,6.947
2026-05-20 15:22:51.337,1174110793,122337,1,1.18042,-0.27173,0.67114,45.656,41.939,15.443
2026-05-20 15:22:51.337,1174110793,122337,2,1.46753,-0.0769,0.8623,55.603,30.183,8.16
2026-05-20 15:22:51.537,1174110993,122537,1,0.8186,-0.12183,1.21484,31.298,22.885,2.863
2026-05-20 15:22:51.537,1174110993,122537,2,0.78687,-0.12476,0.58252,-13.137,-56.878,-11.29
2026-05-20 15:22:51.737,1174111193,122737,1,0.76416,-0.177,0.91089,-11.702,-17.29,-7.481
2026-05-20 15:22:51.737,1174111193,122737,2,0.76855,-0.10962,0.48267,0.366,-36.0,-2.412
2026-05-20 15:22:51.937,1174111393,122937,1,0.58594,-0.14429,0.60327,-6.809,-27.076,-14.26
2026-05-20 15:22:51.937,1174111393,122937,2,0.49341,-0.10083,0.14795,-27.725,-48.527,-3.107
2026-05-20 15:22:51.137,1174110593,123137,1,0.85718,-0.08765,0.31909,-24.13,-89.595,-5.473
2026-05-20 15:22:51.137,1174110593,123137,2,0.85986,-0.1748,0.30273,-32.656,-52.115,-2.45
2026-05-20 15:22:52.337,1174111793,123337,1,1.0022,-0.09668,0.30151,-2.565,-8.069,-4.237
2026-05-20 15:22:52.337,1174111793,123337,2,1.03271,-0.1333,0.10034,9.023,7.244,4.702
2026-05-20 15:22:52.552,1174112008,123551,1,0.95361,-0.16089,0.49707,5.443,5.718,5.206
2026-05-20 15:22:52.552,1174112008,123551,2,0.99512,-0.12305,0.09692,7.824,4.412,2.382
2026-05-20 15:22:52.751,1174112207,123751,1,0.95215,-0.12305,0.48657,3.489,10.435,5.069
2026-05-20 15:22:52.751,1174112207,123751,2,1.01074,-0.09009,0.17407,2.389,20.893,4.389
2026-05-20 15:22:52.951,1174112407,123951,1,0.93994,-0.10132,0.47754,-2.557,34.908,4.435
2026-05-20 15:22:52.951,1174112407,123951,2,0.93872,-0.15991,0.2356,5.649,35.649,8.931
2026-05-20 15:22:52.151,1174111607,124151,1,0.5249,-0.14868,0.54126,5.084,54.237,13.26
2026-05-20 15:22:52.151,1174111607,124151,2,0.5459,0.08838,0.11646,-41.45,29.435,17.527
2026-05-20 15:22:53.351,1174112807,124351,1,0.70117,-0.27368,0.65015,-9.832,13.412,18.282
2026-05-20 15:22:53.351,1174112807,124351,2,0.81445,-0.12793,0.4082,12.542,39.115,-2.931
2026-05-20 15:22:53.561,1174113017,124561,1,0.7522,-0.27734,0.91089,5.649,28.107,8.855
2026-05-20 15:22:53.561,1174113017,124561,2,0.87769,-0.21533,0.59473,19.847,27.099,2.26
2026-05-20 15:22:53.761,1174113217,124761,1,0.87427,-0.1521,0.94995,-16.855,-23.191,-5.122
2026-05-20 15:22:53.761,1174113217,124761,2,1.07715,-0.12866,0.57593,-13.916,-11.511,-2.366
2026-05-20 15:22:53.961,1174113417,124961,1,0.89966,-0.5791,1.19116,-11.282,-18.809,-7.901
2026-05-20 15:22:53.961,1174113417,124961,2,0.98633,-0.35669,0.64771,4.038,15.069,5.58
2026-05-20 15:22:53.161,1174112617,125161,1,0.68286,-0.22144,0.75269,9.153,6.427,-2.847
2026-05-20 15:22:53.161,1174112617,125161,2,0.79712,-0.13232,0.5,-7.244,0.153,-3.687
2026-05-20 15:22:54.361,1174113817,125361,1,0.75537,-0.21973,0.8418,-11.336,3.351,-4.641
2026-05-20 15:22:54.361,1174113817,125361,2,0.79785,-0.34497,0.5437,-13.824,2.145,1.023
2026-05-20 15:22:54.561,1174114017,125561,1,0.63062,-0.28491,0.87622,-3.496,2.87,-4.137
2026-05-20 15:22:54.561,1174114017,125561,2,0.71606,-0.21899,0.5271,6.145,-2.718,-3.13
2026-05-20 15:22:54.761,1174114217,125761,1,0.69189,-0.21777,0.83057,-5.405,-10.802,-7.321
2026-05-20 15:22:54.761,1174114217,125761,2,0.82666,-0.17065,0.54956,-1.389,-8.794,-3.634
2026-05-20 15:22:54.961,1174114417,125961,1,0.83325,-0.08545,0.55933,-2.504,-9.282,-5.87
2026-05-20 15:22:54.961,1174114417,125961,2,0.92578,-0.2168,0.48486,-9.74,1.565,5.519
2026-05-20 15:22:54.161,1174113617,126161,1,0.72827,-0.33203,0.79272,-21.748,24.198,-4.023
2026-05-20 15:22:54.161,1174113617,126161,2,0.81958,-0.27832,0.47461,-5.992,26.504,5.137
2026-05-20 15:22:55.361,1174114817,126361,1,0.62744,-0.28418,0.88135,11.527,2.13,2.885
2026-05-20 15:22:55.361,1174114817,126361,2,0.79785,-0.24512,0.55151,1.817,-4.45,-3.321
2026-05-20 15:22:55.561,1174115017,126561,1,0.69531,-0.27026,0.85693,18.832,-3.634,3.916
2026-05-20 15:22:55.561,1174115017,126561,2,0.78003,-0.20215,0.51538,2.481,0.588,0.863
2026-05-20 15:22:55.761,1174115217,126761,1,0.66528,-0.23706,0.91309,-5.809,-2.298,8.588
2026-05-20 15:22:55.761,1174115217,126761,2,0.78857,-0.16699,0.55981,-5.611,-4.565,1.939
2026-05-20 15:22:55.961,1174115417,126961,1,0.69409,-0.2522,0.8269,-3.076,-0.939,-2.573
2026-05-20 15:22:55.961,1174115417,126961,2,0.80176,-0.229,0.51978,-7.969,3.344,1.061
2026-05-20 15:22:55.161,1174114617,127161,1,0.71729,-0.29834,0.82153,-5.115,3.45,1.137
2026-05-20 15:22:55.161,1174114617,127161,2,0.81421,-0.24927,0.52832,-2.656,-0.267,0.275
2026-05-20 15:22:56.361,1174115817,127361,1,0.70972,-0.26221,0.77197,4.863,1.939,-1.618
2026-05-20 15:22:56.361,1174115817,127361,2,0.80469,-0.24072,0.50122,-1.733,3.908,2.29
2026-05-20 15:22:56.561,1174116017,127561,1,0.69849,-0.32446,0.84448,-10.008,4.359,3.496
2026-05-20 15:22:56.561,1174116017,127561,2,0.79688,-0.24951,0.5542,-0.588,5.069,1.42
2026-05-20 15:22:56.761,1174116217,127761,1,0.66187,-0.28467,0.80347,5.672,1.908,1.771
2026-05-20 15:22:56.761,1174116217,127761,2,0.78589,-0.22827,0.55322,7.962,5.573,0.42
2026-05-20 15:22:56.961,1174116417,127961,1,0.69604,-0.27588,0.85669,3.115,-2.176,1.985
2026-05-20 15:22:56.961,1174116417,127961,2,0.77173,-0.22266,0.56519,6.641,,0.496
2026-05-20 15:22:56.161,1174115617,128161,1,0.7417,-0.31836,0.93823,8.756,-13.527,-6.45
2026-05-20 15:22:56.161,1174115617,128161,2,0.92456,-0.35083,0.74316,2.664,-0.557,-4.435
2026-05-20 15:22:59.929,1174119385,130929,1,0.77271,-0.17041,0.83154,-13.74,4.038,-0.443
2026-05-20 15:22:59.929,1174119385,130929,2,0.81836,-0.18359,0.54224,4.344,7.229,3.038
2026-05-20 15:22:59.129,1174118585,131129,1,0.73218,-0.18994,0.76514,-4.023,3.916,0.008
2026-05-20 15:22:59.129,1174118585,131129,2,0.80884,-0.2063,0.54053,3.679,-0.305,0.641
2026-05-20 15:23:00.329,1174119785,131329,1,0.84473,-0.17798,0.75806,8.939,5.267,4.588
2026-05-20 15:23:00.329,1174119785,131329,2,0.96851,-0.21484,0.65186,15.458,11.916,8.076
2026-05-20 15:23:00.529,1174119985,131529,1,0.84033,-0.23877,1.17871,28.847,99.29,23.427
2026-05-20 15:23:00.529,1174119985,131529,2,0.74365,-0.14941,0.83374,29.191,67.145,22.336
2026-05-20 15:23:00.729,1174120185,131729,1,0.26392,-0.05371,1.00659,39.053,90.969,15.504
2026-05-20 15:23:00.729,1174120185,131729,2,0.42017,-0.01807,0.74829,32.42,57.733,13.046
2026-05-20 15:23:00.929,1174120385,131929,1,0.07593,-0.14526,1.22314,14.809,34.649,-2.916
2026-05-20 15:23:00.929,1174120385,131929,2,0.26221,-0.10938,0.74341,-8.885,-0.252,-8.634
2026-05-20 15:23:00.153,1174119609,132153,1,0.10913,-0.10815,1.08203,-13.229,-97.977,-12.595
2026-05-20 15:23:00.153,1174119609,132153,2,0.61011,-0.15039,0.53687,-26.992,-124.351,-15.084
2026-05-20 15:23:01.353,1174120809,132353,1,0.47656,-0.08887,0.64575,-25.893,-130.26,-5.55
2026-05-20 15:23:01.353,1174120809,132353,2,0.85522,-0.03882,0.30981,-34.176,-124.359,-9.473
2026-05-20 15:23:01.553,1174121009,132553,1,0.90454,-0.15308,0.26807,-59.176,-85.733,-22.718
2026-05-20 15:23:01.553,1174121009,132553,2,1.07007,-0.18286,0.01465,-16.985,-63.504,-3.168
2026-05-20 15:23:01.753,1174121209,132753,1,1.04395,-0.14478,0.32568,6.557,-16.84,-13.756
2026-05-20 15:23:01.753,1174121209,132753,2,1.04883,-0.15601,-0.11353,7.084,-0.939,-4.58
2026-05-20 15:23:01.953,1174121409,132953,1,1.03735,-0.13623,0.36328,9.328,6.588,-4.565
2026-05-20 15:23:01.953,1174121409,132953,2,1.04614,-0.17822,-0.09351,17.244,14.221,0.382
2026-05-20 15:23:01.153,1174120609,133153,1,1.11401,-0.18652,0.21582,35.473,42.26,-0.527
2026-05-20 15:23:01.153,1174120609,133153,2,1.13379,-0.19287,0.08423,62.45,93.595,-19.542
2026-05-20 15:23:02.353,1174121809,133353,1,0.49976,0.19824,0.41675,19.13,154.191,6.084
2026-05-20 15:23:02.353,1174121809,133353,2,0.91846,0.16309,0.1875,14.42,124.595,12.992
2026-05-20 15:23:02.553,1174122009,133553,1,0.22705,-0.13452,0.96289,-19.115,131.092,2.55
2026-05-20 15:23:02.553,1174122009,133553,2,0.56641,-0.33423,0.80103,59.763,113.061,5.015
2026-05-20 15:23:02.753,1174122209,133753,1,-0.13721,-0.08154,1.31763,9.237,77.924,8.855
2026-05-20 15:23:02.753,1174122209,133753,2,0.20752,-0.04858,0.84155,24.947,95.214,6.733
2026-05-20 15:23:02.953,1174122409,133953,1,-0.30566,-0.05688,1.27539,-1.191,20.626,11.374
2026-05-20 15:23:02.953,1174122409,133953,2,-0.07349,-0.00269,1.0,-8.718,9.542,0.634
2026-05-20 15:23:02.153,1174121609,134153,1,-0.20361,-0.04102,1.08472,0.45,1.954,-0.198
2026-05-20 15:23:02.153,1174121609,134153,2,0.01929,-0.00122,0.93848,-0.649,1.26,0.939
2026-05-20 15:23:03.353,1174122809,134353,1,-0.19312,-0.02368,1.03906,1.214,1.878,-0.405
2026-05-20 15:23:03.353,1174122809,134353,2,-0.00317,0.03101,0.94043,-1.519,6.076,-0.611
2026-05-20 15:23:03.553,1174123009,134553,1,-0.22314,-0.00952,1.04053,3.595,10.023,-0.603
2026-05-20 15:23:03.553,1174123009,134553,2,-0.03589,-0.00464,0.94409,-0.29,8.473,0.939
2026-05-20 15:23:03.753,1174123209,134753,1,-0.27979,-0.07178,0.96631,-4.244,12.977,3.786
2026-05-20 15:23:03.753,1174123209,134753,2,-0.21191,-0.01782,0.66968,4.435,8.435,9.237
2026-05-20 15:23:03.953,1174123409,134953,1,-0.09717,-0.02368,0.95361,-35.901,-56.977,-11.16
2026-05-20 15:23:03.953,1174123409,134953,2,0.0437,-0.17822,0.8811,-48.908,-20.359,-6.489
2026-05-20 15:23:03.153,1174122609,135153,1,-0.13257,-0.09595,1.10156,-17.191,-94.076,-8.176
2026-05-20 15:23:03.153,1174122609,135153,2,0.34131,-0.08618,0.86035,-36.908,-96.412,-9.794
2026-05-20 15:23:04.353,1174123809,135353,1,0.37231,-0.22046,1.0061,-0.542,-96.702,-20.115
2026-05-20 15:23:04.353,1174123809,135353,2,1.58691,-0.13989,1.29248,10.107,-59.458,-10.084
2026-05-20 15:23:04.617,1174124073,135617,1,0.80688,-0.11914,0.9751,-6.382,34.069,-6.061
2026-05-20 15:23:04.617,1174124073,135617,2,0.58276,-0.10474,0.37622,-15.611,29.71,-3.489
2026-05-20 15:23:04.817,1174124273,135817,1,0.50146,-0.09033,0.87451,-8.366,-19.069,-5.84
2026-05-20 15:23:04.817,1174124273,135817,2,-0.03613,0.02759,0.93994,-3.405,15.74,-1.145
2026-05-20 15:23:07.661,1174127117,138661,1,-0.17188,-0.08008,1.17578,-9.519,18.771,-4.084
2026-05-20 15:23:07.661,1174127117,138661,2,-0.03662,0.01782,0.92017,-9.076,-2.252,2.298
2026-05-20 15:23:07.861,1174127317,138861,1,-0.19287,-0.13086,1.07813,-6.45,1.924,-6.779
2026-05-20 15:23:07.861,1174127317,138861,2,-0.02637,0.01685,0.94287,7.206,1.534,-3.58
2026-05-20 15:23:07.061,1174126517,139061,1,-0.14795,-0.13257,1.06714,1.351,-0.015,-2.534
2026-05-20 15:23:07.061,1174126517,139061,2,-0.00806,0.0376,0.94824,1.405,1.855,-1.641
2026-05-20 15:23:08.261,1174127717,139261,1,-0.1792,-0.10034,1.02759,10.473,10.298,-5.336
2026-05-20 15:23:08.261,1174127717,139261,2,0.00293,-0.00903,0.87842,-2.771,3.748,1.771
2026-05-20 15:23:08.461,1174127917,139461,1,-0.20386,-0.01099,1.10596,33.305,2.099,3.939
2026-05-20 15:23:08.461,1174127917,139461,2,-0.21729,0.0957,0.99609,-16.321,-0.374,3.771
2026-05-20 15:23:08.661,1174128117,139661,1,-0.0708,-0.07178,1.07788,11.511,-33.954,-7.565
2026-05-20 15:23:08.661,1174128117,139661,2,0.25684,-0.00122,0.95776,-9.115,-83.076,5.389
2026-05-20 15:23:08.869,1174128325,139869,1,0.01563,0.00146,1.28052,-10.191,-79.901,6.321
2026-05-20 15:23:08.869,1174128325,139869,2,0.48071,-0.02148,0.82129,-26.237,-113.916,-7.565
2026-05-20 15:23:08.069,1174127525,140069,1,0.23999,-0.08325,0.99731,2.405,-136.168,-7.29
2026-05-20 15:23:08.069,1174127525,140069,2,0.79443,-0.10254,0.50806,-22.947,-137.107,-12.664
2026-05-20 15:23:09.269,1174128725,140269,1,0.66943,-0.09546,0.54517,-36.641,-131.87,-13.557
2026-05-20 15:23:09.269,1174128725,140269,2,0.93604,-0.09888,0.2522,-19.466,-90.252,-17.901
2026-05-20 15:23:09.469,1174128925,140469,1,1.05127,-0.01123,0.33862,-1.145,-54.282,-5.0
2026-05-20 15:23:09.469,1174128925,140469,2,1.02954,-0.09863,0.02002,1.061,-33.84,-5.344
2026-05-20 15:23:09.669,1174129125,140669,1,1.03198,-0.08447,0.28662,-12.931,-16.542,-1.962
2026-05-20 15:23:09.669,1174129125,140669,2,1.07471,-0.07568,-0.01416,5.473,6.771,1.511
2026-05-20 15:23:09.869,1174129325,140869,1,1.05054,-0.0271,0.2854,1.916,22.015,3.924
2026-05-20 15:23:09.869,1174129325,140869,2,1.04785,-0.0979,0.08008,22.511,26.328,9.664
2026-05-20 15:23:09.069,1174128525,141069,1,0.81836,-0.06152,0.26099,17.473,133.397,12.229
2026-05-20 15:23:09.069,1174128525,141069,2,0.90601,-0.06372,0.10815,59.664,140.931,18.267
2026-05-20 15:23:10.269,1174129725,141269,1,0.42163,-0.1521,0.9563,7.908,139.824,-1.626
2026-05-20 15:23:10.269,1174129725,141269,2,0.73389,-0.16626,0.61914,25.466,128.695,8.962
2026-05-20 15:23:10.469,1174129925,141469,1,-0.0022,-0.04077,1.20776,8.527,94.603,12.939
2026-05-20 15:23:10.469,1174129925,141469,2,0.39526,0.0249,0.68384,-6.252,81.855,-15.344
2026-05-20 15:23:10.700,1174130156,141700,1,-0.22705,-0.02661,1.29297,6.244,41.527,7.992
2026-05-20 15:23:10.700,1174130156,141700,2,0.07935,0.13379,0.94995,10.947,49.863,-6.397
2026-05-20 15:23:10.900,1174130356,141900,1,-0.24976,0.01099,1.1023,-0.84,-1.359,0.687
2026-05-20 15:23:10.900,1174130356,141900,2,-0.00635,0.00903,0.89233,-0.855,1.008,0.397
2026-05-20 15:23:10.100,1174129556,142100,1,-0.24951,-0.03906,1.21069,-3.107,-22.084,1.802
2026-05-20 15:23:10.100,1174129556,142100,2,-0.05859,0.06079,1.04956,-12.099,-25.534,2.916
2026-05-20 15:23:11.300,1174130756,142300,1,-0.10229,-0.03271,1.37256,4.443,-84.214,-5.786
2026-05-20 15:23:11.300,1174130756,142300,2,0.30566,0.01392,0.85596,-17.229,-115.45,0.298
2026-05-20 15:23:11.500,1174130956,142500,1,0.11499,-0.04321,0.93408,-31.038,-155.107,-5.13
2026-05-20 15:23:11.500,1174130956,142500,2,0.93652,0.01025,0.40381,-34.176,-157.84,1.855
2026-05-20 15:23:11.700,1174131156,142700,1,0.73267,-0.06006,0.37207,-53.366,-127.733,-18.489
2026-05-20 15:23:11.700,1174131156,142700,2,0.86523,-0.14136,0.10889,-42.084,-114.802,-13.748
2026-05-20 15:23:11.900,1174131356,142900,1,1.02368,-0.13867,0.25464,-15.099,-42.733,-15.344
2026-05-20 15:23:11.900,1174131356,142900,2,1.07886,-0.16626,-0.15112,-37.389,-29.031,-1.771
2026-05-20 15:23:11.100,1174130556,143100,1,1.0769,-0.12817,0.2041,-2.282,-9.084,-10.802
2026-05-20 15:23:11.100,1174130556,143100,2,1.05811,-0.14502,-0.2002,17.557,-9.145,5.298
2026-05-20 15:23:12.300,1174131756,143300,1,1.04272,-0.10327,0.26245,-4.298,5.176,-2.84
2026-05-20 15:23:12.300,1174131756,143300,2,1.0332,-0.13721,-0.21216,-12.863,6.74,-1.389
2026-05-20 15:23:12.521,1174131977,143521,1,0.99878,-0.14551,0.39185,-10.588,10.962,-0.534
2026-05-20 15:23:12.521,1174131977,143521,2,1.02222,-0.14502,-0.20728,7.656,0.71,-2.298
2026-05-20 15:23:12.721,1174132177,143721,1,1.12988,-0.12817,0.14844,34.634,38.71,4.893
2026-05-20 15:23:12.721,1174132177,143721,2,1.03125,-0.21948,-0.22534,66.008,60.832,-4.13
2026-05-20 15:23:12.921,1174132377,143921,1,0.90698,-0.07813,0.44995,107.053,68.366,13.534
2026-05-20 15:23:12.921,1174132377,143921,2,0.95166,0.06812,0.05908,110.282,72.557,-15.099
2026-05-20 15:23:12.121,1174131577,144121,1,0.66455,0.34204,0.53589,98.55,68.45,-20.55
2026-05-20 15:23:12.121,1174131577,144121,2,0.85059,0.13159,0.35156,55.656,54.511,-35.374
2026-05-20 15:23:13.321,1174132777,144321,1,0.6582,0.65601,0.90527,51.29,13.473,-9.191
2026-05-20 15:23:13.321,1174132777,144321,2,1.01099,0.21802,0.52539,35.176,33.473,4.405
2026-05-20 15:23:13.521,1174132977,144521,1,0.61938,0.40747,0.88135,-11.977,17.947,6.191
2026-05-20 15:23:13.521,1174132977,144521,2,0.8728,0.16968,0.42847,5.328,19.649,13.389
2026-05-20 15:23:13.721,1174133177,144721,1,0.58423,0.37305,0.86816,-1.084,5.305,8.916
2026-05-20 15:23:13.721,1174133177,144721,2,0.87134,0.15332,0.4436,-0.954,-2.29,9.053
2026-05-20 15:23:13.921,1174133377,144921,1,0.59058,0.41455,0.84204,-9.542,-14.275,15.137
2026-05-20 15:23:13.921,1174133377,144921,2,0.81885,0.15576,0.44775,-13.687,-5.87,6.359
2026-05-20 15:23:13.121,1174132577,145121,1,0.64868,0.24854,0.84302,-14.244,-4.664,10.679
2026-05-20 15:23:13.121,1174132577,145121,2,0.87866,0.19873,0.47827,-10.679,-11.427,6.893
2026-05-20 15:23:14.321,1174133777,145321,1,0.6814,0.2439,0.78613,-2.359,-3.405,-5.534
2026-05-20 15:23:14.321,1174133777,145321,2,0.89624,0.20801,0.49829,6.901,-17.13,-0.267
2026-05-20 15:23:14.521,1174133977,145521,1,0.67749,0.33716,0.81494,-3.695,-4.847,-3.992
2026-05-20 15:23:14.521,1174133977,145521,2,0.88843,0.12476,0.44312,-8.74,7.366,-1.252
2026-05-20 15:23:14.721,1174134177,145721,1,0.68677,0.2832,0.85132,3.534,5.702,-9.84
2026-05-20 15:23:14.721,1174134177,145721,2,0.93799,0.15601,0.44287,4.71,-0.878,-2.16
2026-05-20 15:23:14.921,1174134377,145921,1,0.64722,0.25391,0.73022,-1.962,-0.511,-5.771
2026-05-20 15:23:14.921,1174134377,145921,2,0.94287,0.17798,0.42358,4.191,0.122,-5.664
2026-05-20 15:23:14.121,1174133577,146121,1,0.67725,0.32886,0.77563,11.168,-2.328,-8.229
2026-05-20 15:23:14.121,1174133577,146121,2,0.86963,0.17407,0.39111,9.031,-9.092,2.954
2026-05-20 15:23:15.321,1174134777,146321,1,0.68433,0.32593,0.77954,-0.023,2.557,-2.718
2026-05-20 15:23:15.321,1174134777,146321,2,0.89819,0.15869,0.42798,-0.122,7.962,0.145
2026-05-20 15:23:15.521,1174134977,146521,1,0.64429,0.3208,0.75586,12.008,-0.534,6.145
2026-05-20 15:23:15.521,1174134977,146521,2,0.87134,0.13354,0.40186,-2.298,-1.137,2.344
2026-05-20 15:23:15.721,1174135177,146721,1,0.69165,0.42725,0.84766,5.863,-14.985,0.916
2026-05-20 15:23:15.721,1174135177,146721,2,0.96802,0.20996,0.41284,-25.656,-6.153,3.519
2026-05-20 15:23:15.921,1174135377,146921,1,0.77148,0.13086,0.68945,-142.206,-64.336,10.87
2026-05-20 15:23:15.921,1174135377,146921,2,0.87549,-0.15308,0.14331,-92.588,-46.595,19.397
2026-05-20 15:23:15.121,1174134577,147121,1,1.00244,-0.1001,0.30835,-27.26,-29.489,18.45
2026-05-20 15:23:15.121,1174134577,147121,2,0.83716,-0.23511,0.19946,-12.221,7.527,1.298
2026-05-20 15:23:16.321,1174135777,147321,1,0.95361,0.13525,0.55396,-39.107,-28.863,-11.122
2026-05-20 15:23:16.321,1174135777,147321,2,0.91089,0.13721,0.02686,-45.962,-24.74,0.824
2026-05-20 15:23:16.521,1174135977,147521,1,0.97144,-0.10156,0.38208,-25.366,-11.84,-7.634
2026-05-20 15:23:16.521,1174135977,147521,2,1.07056,-0.13477,-0.09009,-5.13,-33.115,-7.847
2026-05-20 15:23:16.721,1174136177,147721,1,1.03027,-0.02734,0.32813,-7.565,6.412,-8.206
2026-05-20 15:23:16.721,1174136177,147721,2,1.02661,-0.12891,-0.17358,-22.702,-1.611,4.969
2026-05-20 15:23:16.921,1174136377,147921,1,1.04614,-0.08008,0.29077,-3.733,4.74,-0.916
2026-05-20 15:23:16.921,1174136377,147921,2,1.01611,-0.0835,-0.19287,-4.733,-2.924,1.595
2026-05-20 15:23:16.121,1174135577,148121,1,1.05273,-0.0498,0.27759,10.74,2.435,-0.313
2026-05-20 15:23:16.121,1174135577,148121,2,1.03906,-0.11523,-0.1897,8.534,10.145,4.031
2026-05-20 15:23:17.321,1174136777,148321,1,1.11743,-0.06885,0.34766,-2.298,-3.344,2.496
2026-05-20 15:23:17.321,1174136777,148321,2,1.1499,-0.04907,-0.10962,20.962,-3.962,5.695
2026-05-20 15:23:17.521,1174136977,148521,1,1.06372,0.01001,0.375,2.038,-19.0,1.008
2026-05-20 15:23:17.521,1174136977,148521,2,1.00659,-0.10156,-0.13037,6.573,5.656,-6.092
2026-05-20 15:23:17.804,1174137260,148804,1,1.05396,-0.10376,0.33276,1.931,-8.687,3.29
2026-05-20 15:23:17.804,1174137260,148804,2,1.01685,-0.04443,-0.25146,14.588,-3.153,4.687
2026-05-20 15:23:17.004,1174136460,149004,1,1.01929,-0.0332,0.35718,-6.344,-4.458,-5.015
2026-05-20 15:23:17.004,1174136460,149004,2,1.04883,-0.04004,-0.11304,-28.145,-23.977,-9.282
2026-05-20 15:23:17.221,1174136677,149221,1,1.12378,-0.06616,0.23071,-18.198,34.863,-14.26
2026-05-20 15:23:17.221,1174136677,149221,2,1.03442,-0.06982,-0.27002,-10.069,13.305,6.191
2026-05-20 15:23:18.421,1174137877,149421,1,0.98926,-0.09912,0.37769,7.107,14.779,0.679
2026-05-20 15:23:18.421,1174137877,149421,2,1.02661,-0.09204,-0.16504,8.916,11.924,0.809
2026-05-20 15:23:18.621,1174138077,149621,1,0.98218,-0.09033,0.39673,-0.527,-3.618,-2.687
2026-05-20 15:23:18.621,1174138077,149621,2,1.03345,-0.09717,-0.16553,-2.702,5.809,-1.076
2026-05-20 15:23:18.821,1174138277,149821,1,1.02344,-0.0603,0.36719,-0.115,-2.015,-1.74
2026-05-20 15:23:18.821,1174138277,149821,2,1.01123,-0.07813,-0.15894,-5.023,-2.771,0.076
2026-05-20 15:23:18.021,1174137477,150021,1,1.01733,-0.04297,0.37476,-1.023,1.718,-2.221
2026-05-20 15:23:18.021,1174137477,150021,2,1.03223,-0.0686,-0.16919,-4.137,-0.305,0.153
2026-05-20 15:23:18.221,1174137677,150221,1,1.02246,-0.03003,0.34082,3.26,-0.763,-0.237
2026-05-20 15:23:18.221,1174137677,150221,2,1.03467,-0.06177,-0.15332,-3.588,-3.626,3.817
2026-05-20 15:23:19.421,1174138877,150421,1,1.021,-0.05298,0.36475,-8.901,-0.817,-5.26
2026-05-20 15:23:19.421,1174138877,150421,2,1.03418,-0.10205,-0.19507,-1.985,3.641,-2.412
2026-05-20 15:23:19.621,1174139077,150621,1,1.04663,-0.01245,0.32861,-2.031,-17.176,4.176
2026-05-20 15:23:19.621,1174139077,150621,2,1.03394,-0.08105,-0.21289,-6.977,2.588,3.55
2026-05-20 15:23:19.836,1174139292,150836,1,1.02466,-0.03516,0.36157,1.534,8.336,5.382
2026-05-20 15:23:19.836,1174139292,150836,2,0.99927,-0.12549,-0.15601,-2.809,-3.092,2.542
2026-05-20 15:23:19.036,1174138492,151036,1,1.0376,-0.07275,0.31909,4.389,-3.015,-1.244
2026-05-20 15:23:19.036,1174138492,151036,2,0.99341,-0.18677,-0.06128,28.847,10.244,12.458
2026-05-20 15:23:22.166,1174141622,154166,1,1.04077,-0.14282,0.31079,13.702,15.366,-5.229
2026-05-20 15:23:22.166,1174141622,154166,2,0.99707,-0.14526,-0.07275,-10.771,13.076,-2.489
2026-05-20 15:23:23.366,1174142822,154366,1,0.98535,-0.11768,0.38892,15.359,7.176,-9.122
2026-05-20 15:23:23.366,1174142822,154366,2,1.00879,-0.17334,-0.18945,14.672,-8.794,6.481
2026-05-20 15:23:23.566,1174143022,154566,1,0.99243,-0.1062,0.39185,21.008,0.328,-5.542
2026-05-20 15:23:23.566,1174143022,154566,2,0.98877,-0.12842,-0.11206,2.71,-0.183,-4.542
2026-05-20 15:23:23.766,1174143222,154766,1,1.1355,-0.03735,0.23364,-0.511,6.924,-12.427
2026-05-20 15:23:23.766,1174143222,154766,2,1.00781,-0.12378,0.00342,32.55,45.885,9.092
2026-05-20 15:23:23.966,1174143422,154966,1,0.87524,-0.04443,0.61768,28.939,43.176,13.794
2026-05-20 15:23:23.966,1174143422,154966,2,0.96167,-0.08276,-0.02026,4.656,14.756,-7.466
2026-05-20 15:23:23.166,1174142622,155166,1,0.97949,-0.01025,0.44995,6.137,0.534,-3.863
2026-05-20 15:23:23.166,1174142622,155166,2,0.98511,-0.11475,-0.00879,-6.214,-13.634,2.29
2026-05-20 15:23:24.366,1174143822,155366,1,1.02832,-0.01294,0.42139,-32.443,-34.824,9.74
2026-05-20 15:23:24.366,1174143822,155366,2,1.05176,-0.11475,-0.10498,-8.275,-27.145,-3.87
2026-05-20 15:23:24.566,1174144022,155566,1,1.02026,-0.05444,0.37671,0.969,-14.496,15.244
2026-05-20 15:23:24.566,1174144022,155566,2,1.01123,-0.04175,-0.13672,-25.099,-28.718,5.855
2026-05-20 15:23:24.766,1174144222,155766,1,1.05811,-0.11768,0.27368,2.947,1.397,6.092
2026-05-20 15:23:24.766,1174144222,155766,2,1.0564,-0.09644,-0.17456,0.809,-1.366,-0.008
2026-05-20 15:23:24.966,1174144422,155966,1,1.01611,-0.1709,0.28394,-13.0,-9.351,2.176
2026-05-20 15:23:24.966,1174144422,155966,2,1.03052,-0.09839,-0.16675,-13.817,-2.534,-5.901
2026-05-20 15:23:24.170,1174143626,156170,1,1.021,-0.12622,0.26685,8.008,16.977,-4.679
2026-05-20 15:23:24.170,1174143626,156170,2,1.02661,-0.06812,-0.19458,16.458,16.038,-2.542
2026-05-20 15:23:25.370,1174144826,156370,1,1.06738,-0.14136,0.32935,10.58,5.901,-7.634
2026-05-20 15:23:25.370,1174144826,156370,2,1.0459,-0.08398,-0.1543,-7.443,-3.29,-4.702
2026-05-20 15:23:25.642,1174145098,156642,1,1.06274,-0.01196,0.30908,-2.046,2.55,-2.015
2026-05-20 15:23:25.642,1174145098,156642,2,1.03223,-0.14063,-0.19019,4.344,15.198,1.611
2026-05-20 15:23:25.998,1174145454,156998,1,1.05371,-0.11255,0.33936,16.015,-9.931,9.779
2026-05-20 15:23:25.998,1174145454,156998,2,1.00293,-0.06616,-0.12964,10.664,-1.931,4.397
2026-05-20 15:23:25.198,1174144654,157198,1,1.00269,-0.08887,0.31006,22.305,2.061,5.809
2026-05-20 15:23:25.198,1174144654,157198,2,1.01685,-0.12695,-0.07104,17.618,-6.008,-5.153
2026-05-20 15:23:26.398,1174145854,157398,1,1.05127,-0.1062,0.31812,1.282,0.878,-4.046
2026-05-20 15:23:26.398,1174145854,157398,2,1.02295,-0.09985,-0.18774,-30.0,-5.664,-11.809
2026-05-20 15:23:26.598,1174146054,157598,1,1.01831,-0.13013,0.26294,-10.55,-1.038,0.122
2026-05-20 15:23:26.598,1174146054,157598,2,1.04639,-0.06152,-0.17432,7.275,4.214,-2.137
2026-05-20 15:23:26.815,1174146271,157815,1,1.05225,-0.12598,0.25269,-4.809,11.992,2.893
2026-05-20 15:23:26.815,1174146271,157815,2,1.01978,-0.05591,-0.1792,-14.924,4.695,2.16
2026-05-20 15:23:26.020,1174145476,158020,1,1.04688,-0.12354,0.23511,-12.656,-2.45,0.855
2026-05-20 15:23:26.020,1174145476,158020,2,1.0376,-0.06274,-0.18677,-11.305,-3.115,9.115
2026-05-20 15:23:26.220,1174145676,158220,1,1.02026,-0.09937,0.27271,5.473,-12.977,2.901
2026-05-20 15:23:26.220,1174145676,158220,2,1.02686,-0.0708,-0.1084,-2.237,3.107,-1.0
2026-05-20 15:23:27.420,1174146876,158420,1,0.98022,-0.28149,0.23877,-31.13,-16.16,4.656
2026-05-20 15:23:27.420,1174146876,158420,2,1.04492,-0.09277,-0.19824,-4.115,7.992,-1.489
2026-05-20 15:23:27.620,1174147076,158620,1,1.03809,-0.15552,0.20654,-1.191,9.359,-19.26
2026-05-20 15:23:27.620,1174147076,158620,2,1.02075,-0.11279,-0.16333,-18.557,-9.26,0.023
2026-05-20 15:23:27.829,1174147285,158829,1,1.00513,-0.03809,0.25342,-0.015,1.847,-16.374
2026-05-20 15:23:27.829,1174147285,158829,2,1.01025,-0.07617,-0.1394,20.779,-8.214,4.702
2026-05-20 15:23:27.029,1174146485,159029,1,1.06421,-0.17944,0.1604,40.099,3.351,-4.672
2026-05-20 15:23:27.029,1174146485,159029,2,1.03345,-0.104,-0.18994,-5.656,0.198,0.107
2026-05-20 15:23:28.229,1174147685,159229,1,1.04858,-0.0293,0.32959,-28.519,-0.718,2.855
2026-05-20 15:23:28.229,1174147685,159229,2,0.99487,-0.06445,-0.18579,-1.756,-2.649,3.076
2026-05-20 15:23:28.429,1174147885,159429,1,0.98779,-0.02246,0.32837,-3.656,1.481,-1.55
2026-05-20 15:23:28.429,1174147885,159429,2,1.01172,-0.10645,-0.19897,-13.74,3.267,0.954
2026-05-20 15:23:28.629,1174148085,159629,1,1.03394,-0.0127,0.27222,11.603,-2.588,6.328
2026-05-20 15:23:28.629,1174148085,159629,2,1.00537,-0.08643,-0.15918,23.679,-5.389,3.282
2026-05-20 15:23:28.829,1174148285,159829,1,1.01611,-0.08447,0.31592,-8.84,2.374,-5.87
2026-05-20 15:23:28.829,1174148285,159829,2,1.02026,-0.07837,-0.21362,-26.061,-1.214,-2.992
2026-05-20 15:23:28.029,1174147485,160029,1,1.08569,-0.05371,0.23926,-10.718,2.718,-7.504
2026-05-20 15:23:28.029,1174147485,160029,2,1.03784,-0.11182,-0.24634,-8.809,-2.244,-0.321
2026-05-20 15:23:29.229,1174148685,160229,1,1.05566,-0.01953,0.25146,5.71,-6.038,1.267
2026-05-20 15:23:29.229,1174148685,160229,2,1.05054,-0.11621,-0.18359,5.595,-5.153,-0.931
2026-05-20 15:23:29.429,1174148885,160429,1,0.97998,-0.0686,0.24243,9.298,-6.336,14.305
2026-05-20 15:23:29.429,1174148885,160429,2,1.00098,-0.06079,-0.26367,12.229,10.71,5.13
2026-05-20 15:23:29.629,1174149085,160629,1,1.04956,-0.01709,0.2876,11.313,3.748,-1.351
2026-05-20 15:23:29.629,1174149085,160629,2,1.02222,-0.08813,-0.12402,5.832,-3.092,-1.45
2026-05-20 15:23:29.829,1174149285,160829,1,0.99414,-0.07007,0.34619,3.168,-2.87,-2.252
2026-05-20 15:23:29.829,1174149285,160829,2,1.04468,-0.09619,-0.13062,4.26,-0.405,-4.977
2026-05-20 15:23:29.029,1174148485,161029,1,1.04395,-0.00513,0.30762,12.221,-0.588,-7.183
2026-05-20 15:23:29.029,1174148485,161029,2,0.99219,-0.04639,-0.17773,14.969,-0.13,-0.153
2026-05-20 15:23:30.229,1174149685,161229,1,1.01392,0.01367,0.34546,7.053,-7.076,0.176
2026-05-20 15:23:30.229,1174149685,161229,2,0.99927,-0.07959,-0.14038,6.267,7.863,-4.031
2026-05-20 15:23:30.429,1174149885,161429,1,1.03052,-0.02539,0.30347,-1.809,1.954,8.382
2026-05-20 15:23:30.429,1174149885,161429,2,1.01025,-0.08105,-0.1958,8.595,0.069,3.13
2026-05-20 15:23:30.629,1174150085,161629,1,1.05347,-0.00806,0.26758,7.252,-5.351,7.672
2026-05-20 15:23:30.629,1174150085,161629,2,1.03394,-0.05347,-0.18091,-4.718,-5.0,1.176
2026-05-20 15:23:30.829,1174150285,161829,1,1.05103,-0.02856,0.26318,-7.313,0.687,-2.473
2026-05-20 15:23:30.829,1174150285,161829,2,1.02637,-0.08447,-0.19165,-2.603,5.26,1.069
2026-05-20 15:23:30.029,1174149485,162029,1,1.03198,-0.04004,0.28857,-6.45,4.374,-1.947
2026-05-20 15:23:30.029,1174149485,162029,2,1.01929,-0.08008,-0.16821,-4.489,0.466,3.038
2026-05-20 15:23:31.280,1174150736,162280,1,1.03223,-0.03394,0.3042,-10.924,4.901,-1.969
2026-05-20 15:23:31.280,1174150736,162280,2,1.00732,-0.09009,-0.18237,-7.649,-2.382,4.153
2026-05-20 15:23:31.518,1174150974,162518,1,1.06787,-0.0249,0.25122,-22.977,1.0,-3.252
2026-05-20 15:23:31.518,1174150974,162518,2,1.00391,-0.10596,-0.21265,-25.382,-1.015,6.573
2026-05-20 15:23:31.718,1174151174,162718,1,1.04199,-0.04712,0.27002,-17.344,-1.344,4.29
2026-05-20 15:23:31.718,1174151174,162718,2,1.02246,-0.09448,-0.19043,-15.809,2.779,5.076
2026-05-20 15:23:31.918,1174151374,162918,1,1.03418,-0.04199,0.29224,-13.626,-5.618,6.313
2026-05-20 15:23:31.918,1174151374,162918,2,1.02368,-0.12231,-0.19141,-1.153,1.382,9.275
2026-05-20 15:23:31.118,1174150574,163118,1,1.03198,-0.1106,0.29736,-1.237,6.29,8.977
2026-05-20 15:23:31.118,1174150574,163118,2,0.99878,-0.08862,-0.18408,-9.435,15.534,-2.794
2026-05-20 15:23:32.318,1174151774,163318,1,1.02686,-0.09106,0.30566,-21.313,5.374,-5.405
2026-05-20 15:23:32.318,1174151774,163318,2,1.03271,-0.15332,-0.17725,-15.16,2.076,-4.198
2026-05-20 15:23:32.518,1174151974,163518,1,1.05615,-0.16431,0.2688,-18.176,15.87,-6.168
2026-05-20 15:23:32.518,1174151974,163518,2,1.03174,-0.17749,-0.23438,-16.863,3.038,3.069
2026-05-20 15:23:32.718,1174152174,163718,1,1.02002,-0.14575,0.29077,-14.267,12.214,-1.87
2026-05-20 15:23:32.718,1174152174,163718,2,1.00854,-0.18164,-0.17212,-21.13,16.359,-0.847
2026-05-20 15:23:32.918,1174152374,163918,1,1.01587,-0.16553,0.35596,-13.023,5.71,3.901
2026-05-20 15:23:32.918,1174152374,163918,2,0.99756,-0.14136,-0.09082,-5.237,0.962,3.267
2026-05-20 15:23:32.118,1174151574,164118,1,1.02856,-0.20947,0.35547,-3.015,6.237,-2.069
2026-05-20 15:23:32.118,1174151574,164118,2,1.05957,-0.12817,-0.11353,-2.328,-4.145,-3.26
2026-05-20 15:23:33.318,1174152774,164318,1,1.0,-0.16553,0.34863,35.588,7.176,-6.412
2026-05-20 15:23:33.318,1174152774,164318,2,0.95801,-0.17261,-0.20361,-16.718,4.802,1.992
2026-05-20 15:23:35.013,1174154469,167012,1,0.99658,-0.13208,0.3252,-10.649,5.122,5.298
2026-05-20 15:23:35.013,1174154469,167012,2,1.04663,-0.20776,-0.29395,-9.664,-3.55,-6.687
2026-05-20 15:23:35.212,1174154668,167212,1,1.06787,-0.19287,0.25708,53.84,-5.863,11.969
2026-05-20 15:23:35.212,1174154668,167212,2,0.91821,-0.271,-0.22388,65.328,0.29,-1.099
2026-05-20 15:23:36.412,1174155868,167412,1,1.05615,-0.16138,0.32007,88.496,-15.206,33.954
2026-05-20 15:23:36.412,1174155868,167412,2,1.03882,-0.10278,-0.23364,62.55,12.008,-13.565
2026-05-20 15:23:36.612,1174156068,167612,1,0.95361,-0.12402,0.26367,54.496,-11.885,14.527
2026-05-20 15:23:36.612,1174156068,167612,2,0.92944,-0.15698,-0.16919,72.168,-15.153,2.679
2026-05-20 15:23:36.812,1174156268,167812,1,1.14746,-0.19531,0.27148,69.603,-10.0,14.466
2026-05-20 15:23:36.812,1174156268,167812,2,1.1084,-0.09814,-0.33789,66.885,-11.573,-11.672
2026-05-20 15:23:36.012,1174155468,168012,1,1.00513,-0.04077,0.24731,59.275,-0.206,0.985
2026-05-20 15:23:36.012,1174155468,168012,2,0.93066,-0.0376,-0.21167,43.183,-4.916,-9.649
2026-05-20 15:23:37.304,1174156760,168304,1,1.01807,0.00464,0.23169,1.901,-1.061,-11.198
2026-05-20 15:23:37.304,1174156760,168304,2,0.90015,-0.00977,-0.14331,-12.786,-2.092,-1.229
2026-05-20 15:23:37.504,1174156960,168504,1,1.18115,0.05713,0.25098,-53.267,13.931,-20.176
2026-05-20 15:23:37.504,1174156960,168504,2,1.18457,0.01147,-0.37744,-73.771,-12.947,10.855
2026-05-20 15:23:37.704,1174157160,168704,1,0.99829,-0.01514,0.1709,-96.427,9.328,-20.763
2026-05-20 15:23:37.704,1174157160,168704,2,0.91943,-0.03198,-0.22778,-100.092,23.695,7.023
2026-05-20 15:23:37.904,1174157360,168904,1,1.06421,-0.01465,0.2771,-93.809,6.969,-28.656
2026-05-20 15:23:37.904,1174157360,168904,2,1.04517,-0.08862,-0.28931,-70.427,-3.817,11.55
2026-05-20 15:23:37.104,1174156560,169104,1,0.948,-0.00488,0.25513,-40.641,4.58,-11.0
2026-05-20 15:23:37.104,1174156560,169104,2,1.02319,-0.08667,-0.25366,-23.664,-4.122,7.405
2026-05-20 15:23:38.313,1174157769,169312,1,1.16504,-0.03833,0.33838,15.405,-4.053,7.008
2026-05-20 15:23:38.313,1174157769,169312,2,0.98389,-0.0752,-0.19067,57.344,13.649,-12.038
2026-05-20 15:23:38.515,1174157971,169515,1,0.98877,0.00171,0.29565,71.015,4.038,21.656
2026-05-20 15:23:38.515,1174157971,169515,2,0.99487,-0.08569,-0.16357,73.55,25.832,-10.679
2026-05-20 15:23:38.715,1174158171,169715,1,1.00879,0.02344,0.35474,54.168,8.466,19.626
2026-05-20 15:23:38.715,1174158171,169715,2,1.00024,-0.01685,-0.15894,65.824,-2.015,-0.366
2026-05-20 15:23:38.915,1174158371,169915,1,1.05249,-0.06909,0.34448,32.924,-14.099,17.481
2026-05-20 15:23:38.915,1174158371,169915,2,1.15747,0.00195,-0.11694,11.046,-3.405,-9.756
2026-05-20 15:23:38.146,1174157602,170146,1,1.01465,-0.03247,0.27539,-32.992,-1.901,-1.244
2026-05-20 15:23:38.146,1174157602,170146,2,0.95874,-0.09131,-0.08594,-27.916,-8.061,29.145
2026-05-20 15:23:39.346,1174158802,170346,1,1.02539,-0.15845,0.33545,-55.55,-0.29,1.954
2026-05-20 15:23:39.346,1174158802,170346,2,1.04761,-0.13354,-0.24219,-42.496,-4.229,21.29
2026-05-20 15:23:39.546,1174159002,170546,1,0.95337,-0.09668,0.31177,-38.962,9.031,-7.931
2026-05-20 15:23:39.546,1174159002,170546,2,0.9917,-0.15381,-0.19702,-19.344,-21.015,15.176
2026-05-20 15:23:39.746,1174159202,170746,1,1.1521,-0.18262,0.302,-4.221,1.718,-6.702
2026-05-20 15:23:39.746,1174159202,170746,2,1.04932,-0.14868,-0.25708,17.374,6.0,-14.267
2026-05-20 15:23:39.946,1174159402,170946,1,0.97266,-0.08594,0.26807,33.939,8.802,-6.496
2026-05-20 15:23:39.946,1174159402,170946,2,0.92065,-0.10669,-0.17871,26.878,23.817,-20.153
2026-05-20 15:23:39.146,1174158602,171146,1,1.02539,-0.04321,0.34302,28.588,3.992,-4.176
2026-05-20 15:23:39.146,1174158602,171146,2,0.97217,-0.06567,-0.22119,17.321,-4.481,-14.58
2026-05-20 15:23:40.346,1174159802,171346,1,1.01489,-0.03955,0.24951,23.115,-12.901,-1.076
2026-05-20 15:23:40.346,1174159802,171346,2,1.15723,0.00659,-0.21167,1.0,8.603,-21.336
2026-05-20 15:23:40.546,1174160002,171546,1,1.09424,0.01343,0.24512,-0.588,3.366,-4.954
2026-05-20 15:23:40.546,1174160002,171546,2,1.01318,-0.07129,-0.12305,-2.718,4.45,14.45
2026-05-20 15:23:40.746,1174160202,171746,1,1.00562,-0.01953,0.28735,-22.878,6.115,6.26
2026-05-20 15:23:40.746,1174160202,171746,2,0.96436,-0.06421,-0.16919,-22.405,-6.183,17.466
2026-05-20 15:23:40.946,1174160402,171946,1,1.03687,-0.08911,0.27344,-23.771,-3.939,2.84
2026-05-20 15:23:40.946,1174160402,171946,2,0.97998,-0.10303,-0.18042,-24.198,-6.649,13.847
2026-05-20 15:23:40.180,1174159636,172180,1,1.03394,-0.08862,0.27588,-28.198,3.672,-1.122
2026-05-20 15:23:40.180,1174159636,172180,2,1.09937,-0.07666,-0.26147,-22.481,-8.817,4.504
2026-05-20 15:23:41.380,1174160836,172380,1,1.02441,-0.09448,0.22192,7.557,1.511,-4.901
2026-05-20 15:23:41.380,1174160836,172380,2,0.97144,-0.12402,-0.14063,5.336,22.046,-8.702
2026-05-20 15:23:41.580,1174161036,172580,1,1.04297,-0.06934,0.2876,25.763,10.16,-3.71
2026-05-20 15:23:41.580,1174161036,172580,2,1.00977,-0.0686,-0.19263,19.099,5.015,-4.809
2026-05-20 15:23:41.780,1174161236,172780,1,1.00293,-0.04541,0.3042,21.557,1.733,2.206
2026-05-20 15:23:41.780,1174161236,172780,2,0.94946,-0.073,-0.13354,14.344,18.511,-12.863
2026-05-20 15:23:41.980,1174161436,172980,1,1.16992,-0.18872,0.34912,-0.038,2.84,9.939
2026-05-20 15:23:41.980,1174161436,172980,2,1.19482,-0.00146,-0.08569,-10.771,29.786,-5.565
2026-05-20 15:23:41.180,1174160636,173180,1,1.02368,-0.05371,0.3457,-18.618,2.26,-13.031
2026-05-20 15:23:41.180,1174160636,173180,2,0.9834,0.00391,-0.16968,-1.954,-27.649,20.458
2026-05-20 15:23:42.380,1174161836,173380,1,0.99561,-0.01636,0.32861,-20.351,-1.885,-3.863
2026-05-20 15:23:42.380,1174161836,173380,2,1.03467,-0.04639,-0.15991,-20.023,-11.244,10.489
2026-05-20 15:23:42.580,1174162036,173580,1,0.99902,-0.04321,0.31641,-25.725,0.076,0.366
2026-05-20 15:23:42.580,1174162036,173580,2,1.03467,0.00122,-0.10107,14.771,2.824,-6.969
2026-05-20 15:23:43.777,1174163233,174777,1,1.03125,0.07397,0.37451,8.954,1.198,4.313
2026-05-20 15:23:43.777,1174163233,174777,2,1.03784,-0.01294,-0.11182,2.885,4.977,-2.366
2026-05-20 15:23:43.995,1174163451,174995,1,1.04443,0.01953,0.38159,11.42,5.908,0.237
2026-05-20 15:23:43.995,1174163451,174995,2,1.05835,-0.02612,-0.03687,38.229,26.359,-2.977
2026-05-20 15:23:43.219,1174162675,175219,1,0.92407,0.17041,0.49243,42.481,6.13,8.397
2026-05-20 15:23:43.219,1174162675,175219,2,1.00684,0.10327,-0.07764,60.809,-11.634,6.519
2026-05-20 15:23:44.419,1174163875,175419,1,0.98071,0.14111,0.39063,43.573,-16.832,23.29
2026-05-20 15:23:44.419,1174163875,175419,2,1.05566,0.0188,-0.01392,48.191,-24.489,17.771
2026-05-20 15:23:44.619,1174164075,175619,1,0.98242,0.1084,0.40576,35.779,0.893,35.29
2026-05-20 15:23:44.619,1174164075,175619,2,1.06226,-0.00928,-0.08105,23.031,-23.969,30.748
2026-05-20 15:23:44.822,1174164278,175822,1,0.97314,-0.21167,0.37769,0.053,14.931,33.489
2026-05-20 15:23:44.822,1174164278,175822,2,1.07788,-0.28882,-0.32031,3.87,2.84,11.656
2026-05-20 15:23:44.022,1174163478,176022,1,0.9585,-0.23828,0.26318,27.626,-5.794,6.137
2026-05-20 15:23:44.022,1174163478,176022,2,0.96313,-0.24561,-0.22119,31.046,-5.695,-2.092
2026-05-20 15:23:44.222,1174163678,176222,1,1.08984,-0.15112,0.25879,45.863,-13.023,4.382
2026-05-20 15:23:44.222,1174163678,176222,2,1.09253,-0.0564,-0.10376,19.382,18.427,-2.649
2026-05-20 15:23:45.422,1174164878,176422,1,1.02539,-0.03784,0.3103,16.893,7.183,-7.969
2026-05-20 15:23:45.422,1174164878,176422,2,1.03149,-0.01953,-0.10352,17.443,-3.702,-4.565
2026-05-20 15:23:45.622,1174165078,176622,1,1.01294,-0.03369,0.35815,10.962,2.458,-2.26
2026-05-20 15:23:45.622,1174165078,176622,2,1.01807,-0.10986,-0.146,0.313,1.771,0.809
2026-05-20 15:23:48.287,1174167743,179287,1,1.02173,-0.08984,0.3208,-0.412,1.473,0.107
2026-05-20 15:23:48.287,1174167743,179287,2,1.03027,-0.10425,-0.14331,0.672,1.855,0.443
2026-05-20 15:23:48.487,1174167943,179487,1,1.02466,-0.09912,0.32617,0.107,1.695,-0.061
2026-05-20 15:23:48.487,1174167943,179487,2,1.02734,-0.10571,-0.14771,1.359,,-0.153
2026-05-20 15:23:48.687,1174168143,179687,1,1.02979,-0.09888,0.3208,0.695,2.855,-1.695
2026-05-20 15:23:48.687,1174168143,179687,2,1.02197,-0.11963,-0.15112,-0.435,0.214,0.42
2026-05-20 15:23:48.887,1174168343,179887,1,1.02612,-0.10938,0.31152,0.901,1.519,-3.015
2026-05-20 15:23:48.887,1174168343,179887,2,1.0188,-0.1189,-0.15405,-3.527,-1.031,-1.481
2026-05-20 15:23:48.087,1174167543,180087,1,1.03516,-0.08105,0.31152,2.771,0.534,-5.481
2026-05-20 15:23:48.087,1174167543,180087,2,1.03906,-0.08301,-0.15234,2.718,3.137,-4.55
2026-05-20 15:23:49.287,1174168743,180287,1,1.01147,-0.01514,0.35303,2.389,3.061,-5.71
2026-05-20 15:23:49.287,1174168743,180287,2,1.02734,-0.06323,-0.15576,3.847,-3.061,0.336
2026-05-20 15:23:49.487,1174168943,180487,1,1.03247,-0.0166,0.32861,0.214,-0.084,-0.588
2026-05-20 15:23:49.487,1174168943,180487,2,1.03101,-0.05078,-0.14893,-7.435,-0.305,-0.939
2026-05-20 15:23:49.687,1174169143,180687,1,1.03979,-0.02832,0.30029,-6.443,-1.824,-1.489
2026-05-20 15:23:49.687,1174169143,180687,2,1.02271,-0.05762,-0.15063,-12.359,0.389,1.282
2026-05-20 15:23:49.887,1174169343,180887,1,1.02563,-0.03711,0.32471,-10.534,-1.221,-2.794
2026-05-20 15:23:49.887,1174169343,180887,2,1.02222,-0.08325,-0.17017,-11.817,-3.595,2.527
2026-05-20 15:23:49.087,1174168543,181087,1,1.03247,-0.06299,0.2937,-4.718,5.275,-0.489
2026-05-20 15:23:49.087,1174168543,181087,2,1.02295,-0.09497,-0.17334,-3.183,3.344,3.336
2026-05-20 15:23:50.287,1174169743,181287,1,1.0376,-0.052,0.32568,0.351,4.351,0.931
2026-05-20 15:23:50.287,1174169743,181287,2,0.99854,-0.11914,-0.13062,1.58,7.351,2.115
2026-05-20 15:23:50.487,1174169943,181487,1,1.02148,-0.06836,0.32104,1.863,2.641,0.359
2026-05-20 15:23:50.487,1174169943,181487,2,1.02173,-0.10181,-0.17017,2.443,2.0,0.489
2026-05-20 15:23:50.687,1174170143,181687,1,1.03931,-0.06689,0.33936,6.473,0.679,-1.534
2026-05-20 15:23:50.687,1174170143,181687,2,1.02002,-0.09302,-0.14771,5.0,2.046,-0.107
2026-05-20 15:23:50.887,1174170343,181887,1,1.02124,-0.08154,0.37744,1.069,-3.229,-1.893
2026-05-20 15:23:50.887,1174170343,181887,2,1.00513,-0.09106,-0.177,-0.328,-1.58,-2.725
2026-05-20 15:23:50.087,1174169543,182087,1,1.03516,-0.06079,0.31152,6.763,-2.45,-5.351
2026-05-20 15:23:50.087,1174169543,182087,2,1.02002,-0.09839,-0.16943,2.466,-2.435,-6.893
2026-05-20 15:23:51.287,1174170743,182287,1,1.03076,-0.06152,0.33398,18.985,0.305,-5.29
2026-05-20 15:23:51.287,1174170743,182287,2,1.03052,-0.07715,-0.15112,19.481,0.099,-11.718
2026-05-20 15:23:51.487,1174170943,182487,1,1.02734,-0.05322,0.27124,30.779,8.649,-9.756
2026-05-20 15:23:51.487,1174170943,182487,2,1.01416,0.14478,-0.08862,45.725,31.664,-15.496
2026-05-20 15:23:51.736,1174171192,182736,1,0.95117,0.19531,0.39746,39.366,24.015,-20.58
2026-05-20 15:23:51.736,1174171192,182736,2,1.021,0.12671,-0.05347,24.0,16.176,-16.115
2026-05-20 15:23:51.936,1174171392,182936,1,0.92871,0.29077,0.45337,22.534,14.435,3.817
2026-05-20 15:23:51.936,1174171392,182936,2,0.98267,0.20801,-0.02026,21.107,11.443,1.924
2026-05-20 15:23:51.136,1174170592,183136,1,0.93188,0.24463,0.4502,1.893,-1.504,7.267
2026-05-20 15:23:51.136,1174170592,183136,2,1.01709,0.18262,-0.02271,5.107,-19.092,4.115
2026-05-20 15:23:52.336,1174171792,183336,1,0.98804,0.25391,0.4353,12.855,3.702,12.733
2026-05-20 15:23:52.336,1174171792,183336,2,0.87012,-0.41064,0.09033,-81.969,34.366,3.748
2026-05-20 15:23:55.414,1174174870,186413,1,0.75391,-0.3252,0.50439,-55.344,15.122,-21.954
2026-05-20 15:23:55.414,1174174870,186413,2,0.97192,-0.35571,-0.05884,-87.687,9.603,2.168
2026-05-20 15:23:55.613,1174175069,186613,1,0.77686,-0.42969,0.604,-36.298,24.122,-18.649
2026-05-20 15:23:55.613,1174175069,186613,2,0.87988,-0.32593,0.01807,15.924,-1.931,-15.908
2026-05-20 15:23:55.813,1174175269,186813,1,0.84253,-0.19385,0.6853,14.084,-35.649,-27.786
2026-05-20 15:23:55.813,1174175269,186813,2,1.05688,-0.12427,0.16211,18.885,8.191,-14.221
2026-05-20 15:23:55.013,1174174469,187013,1,0.98926,0.07397,0.48047,24.664,-21.244,7.588
2026-05-20 15:23:55.013,1174174469,187013,2,0.98364,0.05859,-0.00757,-17.672,-6.427,-9.092
2026-05-20 15:23:56.246,1174175702,187245,1,1.07959,-0.00562,0.38843,-20.55,-31.618,2.328
2026-05-20 15:23:56.246,1174175702,187245,2,1.01538,0.0249,-0.00464,0.656,-39.718,9.702
2026-05-20 15:23:56.445,1174175901,187445,1,1.073,-0.03027,0.36377,-6.214,-10.786,1.13
2026-05-20 15:23:56.445,1174175901,187445,2,1.02173,-0.10742,-0.12524,-25.252,-15.954,9.748
2026-05-20 15:23:56.645,1174176101,187645,1,1.05371,-0.08398,0.25708,-21.084,25.084,5.504
2026-05-20 15:23:56.645,1174176101,187645,2,1.02856,-0.14502,-0.14307,-42.496,28.351,18.794
2026-05-20 15:23:56.845,1174176301,187845,1,0.99902,-0.35547,0.36182,-34.489,21.901,-6.328
2026-05-20 15:23:56.845,1174176301,187845,2,0.91113,-0.30273,-0.28662,15.282,-16.611,2.122
2026-05-20 15:23:56.045,1174175501,188045,1,1.13599,-0.22998,0.23926,9.725,-29.061,1.389
2026-05-20 15:23:56.045,1174175501,188045,2,1.17407,-0.09473,-0.19897,-8.183,11.679,-10.763
2026-05-20 15:23:57.245,1174176701,188245,1,1.04224,-0.07153,0.31665,-18.015,10.061,-16.634
2026-05-20 15:23:57.245,1174176701,188245,2,1.01831,-0.08691,-0.1875,20.511,10.397,5.16
