datetime,epoch_ms,ts_millis,mpu_id,ax,ay,az,gx,gy,gz
2026-06-01 14:12:24.661,2206684117,26661,1,0.12476,-1.0083,-0.03223,0.794,1.84,-0.641
2026-06-01 14:12:24.661,2206684117,26661,2,0.02271,-0.75684,-0.72656,-1.313,0.412,0.443
2026-06-01 14:12:24.861,2206684317,26861,1,0.12402,-1.01245,-0.05127,0.496,1.817,-0.496
2026-06-01 14:12:24.861,2206684317,26861,2,0.0249,-0.75049,-0.74048,-1.092,0.427,0.511
2026-06-01 14:12:24.061,2206683517,27061,1,0.1189,-1.02515,-0.05396,0.565,2.031,-0.802
2026-06-01 14:12:24.061,2206683517,27061,2,0.02295,-0.75195,-0.73975,-0.916,0.55,0.466
2026-06-01 14:12:24.261,2206683717,27261,1,0.12988,-1.01196,-0.04932,0.519,1.802,-0.511
2026-06-01 14:12:24.261,2206683717,27261,2,0.02563,-0.75098,-0.73413,-1.183,0.427,0.527
2026-06-01 14:12:25.461,2206684917,27461,1,0.125,-1.01733,-0.03931,0.527,1.885,-0.305
2026-06-01 14:12:25.461,2206684917,27461,2,0.02002,-0.75366,-0.72998,-1.466,0.618,0.473
2026-06-01 14:12:25.661,2206685117,27661,1,0.12402,-1.01196,-0.04321,0.748,1.756,-0.473
2026-06-01 14:12:25.661,2206685117,27661,2,0.01978,-0.75171,-0.73535,-1.282,0.511,0.588
2026-06-01 14:12:25.959,2206685415,27959,1,0.12817,-1.02295,-0.04468,0.489,1.71,-0.42
2026-06-01 14:12:25.959,2206685415,27959,2,0.02637,-0.76147,-0.73096,-1.267,0.55,0.405
2026-06-01 14:12:25.159,2206684615,28159,1,0.12598,-1.01245,-0.04688,0.672,1.992,-0.496
2026-06-01 14:12:25.159,2206684615,28159,2,0.02246,-0.75732,-0.73145,-1.221,0.489,0.679
2026-06-01 14:12:26.359,2206685815,28359,1,0.12598,-1.0144,-0.05054,0.519,2.061,-0.489
2026-06-01 14:12:26.359,2206685815,28359,2,0.02319,-0.7522,-0.72559,-1.45,0.481,0.328
2026-06-01 14:12:26.559,2206686015,28559,1,0.12988,-1.01074,-0.03589,0.351,1.87,-0.641
2026-06-01 14:12:26.559,2206686015,28559,2,0.01685,-0.75879,-0.72729,-1.328,0.382,0.435
2026-06-01 14:12:26.759,2206686215,28759,1,0.12817,-1.01318,-0.04346,0.542,1.832,-0.534
2026-06-01 14:12:26.759,2206686215,28759,2,0.02295,-0.75806,-0.73145,-1.282,0.527,0.504
2026-06-01 14:12:26.959,2206686415,28959,1,0.12866,-1.01392,-0.03979,0.641,1.855,-0.298
2026-06-01 14:12:26.959,2206686415,28959,2,0.02393,-0.75195,-0.73071,-1.504,0.55,0.397
2026-06-01 14:12:26.185,2206685641,29185,1,0.12744,-1.0144,-0.03174,0.481,2.084,-0.504
2026-06-01 14:12:26.185,2206685641,29185,2,0.02612,-0.75854,-0.73486,-1.611,0.45,0.71
2026-06-01 14:12:27.447,2206686903,29446,1,0.12622,-1.01343,-0.04736,0.565,1.809,-0.435
2026-06-01 14:12:27.447,2206686903,29446,2,0.02441,-0.7583,-0.73218,-1.015,0.397,0.374
2026-06-01 14:12:27.652,2206687108,29652,1,0.12646,-1.01636,-0.04419,0.534,1.588,-0.328
2026-06-01 14:12:27.652,2206687108,29652,2,0.02344,-0.74658,-0.73511,-1.191,0.45,0.237
2026-06-01 14:12:27.852,2206687308,29852,1,0.12158,-1.01416,-0.04419,0.565,1.748,-0.504
2026-06-01 14:12:27.852,2206687308,29852,2,0.02002,-0.75439,-0.72583,-1.366,0.427,0.511
2026-06-01 14:12:27.052,2206686508,30052,1,0.12817,-1.01196,-0.04639,0.794,1.672,-0.565
2026-06-01 14:12:27.052,2206686508,30052,2,0.02026,-0.75659,-0.72266,-1.412,0.336,0.641
2026-06-01 14:12:27.252,2206686708,30252,1,0.12134,-1.01416,-0.04541,0.397,1.763,-0.672
2026-06-01 14:12:27.252,2206686708,30252,2,0.02295,-0.75049,-0.7334,-1.29,0.427,0.603
2026-06-01 14:12:28.452,2206687908,30452,1,0.12695,-1.01514,-0.03516,0.412,1.756,-0.504
2026-06-01 14:12:28.452,2206687908,30452,2,0.021,-0.75098,-0.73169,-1.466,0.504,0.405
2026-06-01 14:12:28.652,2206688108,30652,1,0.12451,-1.01514,-0.04395,0.458,1.878,-0.435
2026-06-01 14:12:28.652,2206688108,30652,2,0.0249,-0.75757,-0.72656,-1.435,0.427,0.679
2026-06-01 14:12:28.852,2206688308,30852,1,0.12231,-1.01416,-0.04297,0.489,1.908,-0.55
2026-06-01 14:12:28.852,2206688308,30852,2,0.02222,-0.75586,-0.72949,-1.206,0.649,0.275
2026-06-01 14:12:28.052,2206687508,31052,1,0.12476,-1.02148,-0.04199,0.45,1.573,-0.366
2026-06-01 14:12:28.052,2206687508,31052,2,0.01563,-0.75098,-0.72974,-1.336,0.344,0.733
2026-06-01 14:12:28.252,2206687708,31252,1,0.13184,-1.0127,-0.03589,0.412,1.847,-0.435
2026-06-01 14:12:28.252,2206687708,31252,2,0.02319,-0.75146,-0.72021,-1.275,0.534,0.344
2026-06-01 14:12:29.452,2206688908,31452,1,0.12817,-1.0144,-0.0459,0.626,1.771,-0.489
2026-06-01 14:12:29.452,2206688908,31452,2,0.02319,-0.7522,-0.73608,-1.473,0.511,0.443
2026-06-01 14:12:29.652,2206689108,31652,1,0.13037,-1.01904,-0.04028,0.557,1.832,-0.557
2026-06-01 14:12:29.652,2206689108,31652,2,0.02734,-0.75659,-0.73486,-1.374,0.298,0.466
2026-06-01 14:12:29.852,2206689308,31852,1,0.13403,-1.01538,-0.03906,0.45,1.702,-0.534
2026-06-01 14:12:29.852,2206689308,31852,2,0.02441,-0.75708,-0.74048,-1.313,0.466,0.595
2026-06-01 14:12:29.052,2206688508,32052,1,0.12134,-1.01343,-0.03467,0.634,1.893,-0.557
2026-06-01 14:12:29.052,2206688508,32052,2,0.03101,-0.74927,-0.73315,-1.29,0.344,0.573
2026-06-01 14:12:29.252,2206688708,32252,1,0.12866,-1.01904,-0.03955,0.641,1.71,-0.588
2026-06-01 14:12:29.252,2206688708,32252,2,0.03101,-0.75073,-0.74023,-0.954,0.626,0.534
2026-06-01 14:12:30.452,2206689908,32452,1,0.12476,-1.01733,-0.03711,0.42,1.885,-0.802
2026-06-01 14:12:30.452,2206689908,32452,2,0.02954,-0.75171,-0.72681,-1.214,0.565,0.504
2026-06-01 14:12:30.652,2206690108,32652,1,0.12793,-1.01538,-0.0415,0.71,1.74,-0.351
2026-06-01 14:12:30.652,2206690108,32652,2,0.02515,-0.75708,-0.72949,-1.435,0.656,0.397
2026-06-01 14:12:30.884,2206690340,32884,1,0.13037,-1.01733,-0.03687,0.16,1.832,-0.595
2026-06-01 14:12:30.884,2206690340,32884,2,0.02783,-0.75732,-0.72827,-1.267,0.511,0.618
2026-06-01 14:12:30.084,2206689540,33084,1,0.12207,-1.01221,-0.03296,0.489,1.916,-0.718
2026-06-01 14:12:30.084,2206689540,33084,2,0.0293,-0.74268,-0.73145,-1.405,1.244,0.374
2026-06-01 14:12:31.284,2206690740,33284,1,0.12646,-1.01343,-0.04321,0.061,0.969,-0.344
2026-06-01 14:12:31.284,2206690740,33284,2,0.02588,-0.75977,-0.7373,-1.611,0.71,0.45
2026-06-01 14:12:31.484,2206690940,33484,1,0.12793,-1.0166,-0.04761,1.092,1.84,0.023
2026-06-01 14:12:31.484,2206690940,33484,2,0.02197,-0.75098,-0.73096,-1.29,0.458,0.573
2026-06-01 14:12:31.684,2206691140,33684,1,0.12769,-1.0166,-0.04004,0.443,1.855,-0.649
2026-06-01 14:12:31.684,2206691140,33684,2,0.02344,-0.75098,-0.72656,-1.13,0.656,0.359
2026-06-01 14:12:31.884,2206691340,33884,1,0.11694,-1.01123,-0.04443,0.695,1.802,-0.618
2026-06-01 14:12:31.884,2206691340,33884,2,0.01978,-0.75,-0.72729,-1.977,0.534,0.748
2026-06-01 14:12:31.084,2206690540,34084,1,0.12622,-1.01465,-0.0354,0.55,1.847,-0.473
2026-06-01 14:12:31.084,2206690540,34084,2,0.02319,-0.7561,-0.73608,-1.481,0.489,0.466
2026-06-01 14:12:32.284,2206691740,34284,1,0.12354,-1.01514,-0.03906,0.42,1.71,-0.519
2026-06-01 14:12:32.284,2206691740,34284,2,0.02979,-0.75635,-0.74146,-1.42,0.481,0.611
2026-06-01 14:12:32.484,2206691940,34484,1,0.12329,-1.01587,-0.03516,0.427,1.87,-0.527
2026-06-01 14:12:32.484,2206691940,34484,2,0.02441,-0.75269,-0.73462,-1.29,0.053,0.397
2026-06-01 14:12:32.684,2206692140,34684,1,0.12939,-1.01343,-0.04297,0.168,1.634,-0.42
2026-06-01 14:12:32.684,2206692140,34684,2,0.02393,-0.75073,-0.7356,-1.13,0.466,0.267
2026-06-01 14:12:32.884,2206692340,34884,1,0.12939,-1.0166,-0.04321,0.649,1.718,-0.664
2026-06-01 14:12:32.884,2206692340,34884,2,0.02173,-0.75244,-0.73682,-1.412,0.458,0.611
2026-06-01 14:12:32.084,2206691540,35084,1,0.12378,-1.01367,-0.04028,0.45,1.763,-0.534
2026-06-01 14:12:32.084,2206691540,35084,2,0.02563,-0.75415,-0.72925,-0.969,0.298,0.366
2026-06-01 14:12:33.284,2206692740,35284,1,0.1228,-1.01392,-0.0415,0.458,1.771,-0.359
2026-06-01 14:12:33.284,2206692740,35284,2,0.0271,-0.75537,-0.73682,-1.0,1.038,0.366
2026-06-01 14:12:33.484,2206692940,35484,1,0.12769,-1.00928,-0.04834,-0.412,2.145,-0.863
2026-06-01 14:12:33.484,2206692940,35484,2,0.02026,-0.75952,-0.74438,0.893,3.458,2.244
2026-06-01 14:12:33.684,2206693140,35684,1,0.14136,-1.01245,-0.05786,0.969,2.901,0.534
2026-06-01 14:12:33.684,2206693140,35684,2,0.02856,-0.77954,-0.71069,1.603,0.977,1.687
2026-06-01 14:12:33.884,2206693340,35884,1,0.1377,-1.03125,-0.06812,-2.092,0.55,-1.824
2026-06-01 14:12:33.884,2206693340,35884,2,-0.17676,-0.82324,-0.771,-57.145,2.74,-13.519
2026-06-01 14:12:33.084,2206692540,36084,1,0.12329,-1.00171,-0.04858,-3.168,2.702,-5.458
2026-06-01 14:12:33.084,2206692540,36084,2,0.03589,-0.71582,-0.71484,-0.611,1.076,2.504
2026-06-01 14:12:34.284,2206693740,36284,1,0.12646,-1.0127,-0.01611,-1.374,-0.107,0.802
2026-06-01 14:12:34.284,2206693740,36284,2,0.0249,-0.75513,-0.73633,-1.176,0.641,-0.588
2026-06-01T14:16:17.051750,,,,,,,,,
2026-06-01 14:16:16.240,2206915696,9240,1,0.68677,0.2312,0.85449,1.802,1.336,-0.046
2026-06-01 14:16:16.240,2206915696,9240,2,1.00635,0.02759,-0.28979,0.779,0.87,1.046
2026-06-01 14:16:16.440,2206915896,9440,1,0.67529,0.22559,0.84619,1.992,1.779,-0.145
2026-06-01 14:16:16.440,2206915896,9440,2,0.99219,0.03784,-0.31836,-11.389,-3.389,0.809
2026-06-01 14:16:17.640,2206917096,9640,1,0.65967,0.2146,0.84009,-3.542,22.893,7.168
2026-06-01 14:16:17.640,2206917096,9640,2,0.96436,-0.03833,0.03833,51.244,20.45,8.916
2026-06-01 14:16:17.884,2206917340,9883,1,0.64575,0.1853,0.88501,-2.672,4.305,-1.008
2026-06-01 14:16:17.884,2206917340,9883,2,1.03052,-0.14673,-0.03931,-159.733,-36.122,-12.641
2026-06-01 14:16:17.083,2206916539,10083,1,0.67065,0.20776,0.86719,-2.13,6.099,-0.137
2026-06-01 14:16:17.083,2206916539,10083,2,0.93506,0.02734,0.2605,64.771,-18.0,5.74
2026-06-01 14:16:17.283,2206916739,10283,1,0.65405,0.19189,0.88867,2.832,-2.916,23.977
2026-06-01 14:16:17.283,2206916739,10283,2,1.17529,-0.04956,0.02783,-105.237,23.962,-11.893
2026-06-01 14:16:17.483,2206916939,10483,1,0.68506,0.19019,0.85303,-1.779,5.275,-4.153
2026-06-01 14:16:17.483,2206916939,10483,2,1.05249,-0.05249,-0.01611,11.29,-13.061,3.092
2026-06-01 14:16:18.683,2206918139,10683,1,0.67944,0.17456,0.82349,-0.427,6.397,4.977
2026-06-01 14:16:18.683,2206918139,10683,2,1.02783,0.00757,0.08057,64.779,-26.099,15.336
2026-06-01 14:16:18.883,2206918339,10883,1,0.67236,0.18652,0.87109,0.962,1.42,-3.008
2026-06-01 14:16:18.883,2206918339,10883,2,1.07544,-0.06226,0.08765,116.832,60.122,-4.053
2026-06-01 14:16:18.083,2206917539,11083,1,0.65601,0.18481,0.87695,2.573,2.718,4.359
2026-06-01 14:16:18.083,2206917539,11083,2,1.04346,-0.08911,0.07886,6.183,-9.252,-11.794
2026-06-01 14:16:18.283,2206917739,11283,1,0.66138,0.18408,0.89111,2.443,2.42,-2.076
2026-06-01 14:16:18.283,2206917739,11283,2,0.98511,-0.03735,0.02222,-102.023,-3.679,-23.214
2026-06-01 14:16:18.483,2206917939,11483,1,0.65967,0.18628,0.87476,4.382,-0.29,4.885
2026-06-01 14:16:18.483,2206917939,11483,2,1.02417,-0.07446,0.08008,-36.802,-8.748,4.916
2026-06-01 14:16:19.683,2206919139,11683,1,0.64673,0.19458,0.88086,-3.305,4.198,1.206
2026-06-01 14:16:19.683,2206919139,11683,2,1.01587,-0.08936,-0.04004,-4.115,-1.664,9.382
2026-06-01 14:16:19.883,2206919339,11883,1,0.66504,0.18774,0.88892,3.13,-1.908,2.061
2026-06-01 14:16:19.883,2206919339,11883,2,1.021,-0.08984,0.04956,72.511,-4.634,1.969
2026-06-01 14:16:19.083,2206918539,12083,1,0.66357,0.15698,0.87891,-2.458,4.565,1.588
2026-06-01 14:16:19.083,2206918539,12083,2,1.03198,-0.05054,-0.02515,-37.42,-14.099,-6.099
2026-06-01 14:16:19.283,2206918739,12283,1,0.69336,0.17773,0.86499,2.023,3.802,-2.214
2026-06-01 14:16:19.283,2206918739,12283,2,1.03369,-0.10205,-0.08472,-8.405,-1.885,0.489
2026-06-01 14:16:19.483,2206918939,12483,1,0.74634,0.12207,1.12036,-59.557,93.412,-11.672
2026-06-01 14:16:19.483,2206918939,12483,2,1.05322,-0.06177,-0.11304,-5.0,0.779,-6.969
2026-06-01 14:16:20.683,2206920139,12683,1,0.66284,0.18945,0.88281,-0.336,-0.779,-2.55
2026-06-01 14:16:20.683,2206920139,12683,2,1.02979,-0.05225,-0.04834,-65.107,-14.183,0.786
2026-06-01 14:16:25.833,2206925289,17833,1,0.7168,0.18457,0.927,-0.55,-1.198,2.641
2026-06-01 14:16:25.833,2206925289,17833,2,1.04053,-0.00269,-0.06372,-6.351,-2.076,0.74
2026-06-01 14:16:25.033,2206924489,18033,1,0.71899,0.18555,0.82446,-1.527,3.565,-2.718
2026-06-01 14:16:25.033,2206924489,18033,2,1.02905,-0.0166,-0.07983,-1.947,-0.237,2.718
2026-06-01 14:16:25.233,2206924689,18233,1,0.71729,0.1748,0.84131,-2.786,1.992,-3.336
2026-06-01 14:16:25.233,2206924689,18233,2,0.98267,0.09546,-0.2644,62.573,49.595,26.214
2026-06-01 14:16:25.433,2206924889,18433,1,0.72827,0.20801,0.83716,3.137,12.015,21.084
2026-06-01 14:16:25.433,2206924889,18433,2,1.01318,-0.01563,-0.00854,63.588,31.489,-1.176
2026-06-01 14:16:26.633,2206926089,18633,1,0.70532,0.16089,0.83911,-3.008,-3.397,-23.183
2026-06-01 14:16:26.633,2206926089,18633,2,1.06519,-0.06372,-0.11084,23.252,13.481,0.397
2026-06-01 14:16:26.843,2206926299,18843,1,0.70703,0.15283,0.84058,9.061,12.855,40.641
2026-06-01 14:16:26.843,2206926299,18843,2,1.05591,-0.00244,0.10815,38.481,28.397,-4.924
2026-06-01 14:16:26.043,2206925499,19043,1,0.7251,0.11182,0.84399,3.244,0.115,11.511
2026-06-01 14:16:26.043,2206925499,19043,2,1.01196,-0.00879,0.0647,-17.13,-9.176,-4.107
2026-06-01 14:16:26.243,2206925699,19243,1,0.72827,0.11011,0.83081,-13.267,-1.84,-25.252
2026-06-01 14:16:26.243,2206925699,19243,2,0.88647,0.04175,0.18481,-141.901,-166.534,18.855
2026-06-01 14:16:26.443,2206925899,19443,1,0.66504,0.16699,0.80249,-1.779,3.405,-1.595
2026-06-01 14:16:26.443,2206925899,19443,2,1.02344,-0.04907,0.0835,6.313,0.794,0.221
2026-06-01 14:16:27.643,2206927099,19643,1,0.67871,0.1665,0.8833,4.824,1.786,3.069
2026-06-01 14:16:27.643,2206927099,19643,2,1.03149,-0.02368,-0.03784,-0.969,0.366,1.412
2026-06-01 14:16:27.843,2206927299,19843,1,0.67871,0.16528,0.86353,-2.168,2.099,-3.015
2026-06-01 14:16:27.843,2206927299,19843,2,1.01929,-0.02075,-0.06445,-5.313,-1.718,-0.237
2026-06-01 14:16:27.043,2206926499,20043,1,0.70117,0.17212,0.86768,0.374,0.893,-0.718
2026-06-01 14:16:27.043,2206926499,20043,2,1.03491,-0.0166,-0.09375,-2.351,-0.885,1.321
2026-06-01 14:16:27.252,2206926708,20252,1,0.71045,0.17041,0.84888,-1.947,1.618,-2.198
2026-06-01 14:16:27.252,2206926708,20252,2,1.05469,-0.0127,-0.10938,-0.924,-1.809,-0.679
2026-06-01 14:16:28.568,2206928024,20568,1,0.70337,0.1582,0.88501,-15.893,-0.786,-13.588
2026-06-01 14:16:28.568,2206928024,20568,2,1.03101,-0.02441,-0.09204,-4.153,-0.756,0.321
2026-06-01 14:16:28.847,2206928303,20847,1,0.70068,0.15869,0.85693,2.977,0.115,2.336
2026-06-01 14:16:28.847,2206928303,20847,2,1.0271,-0.03345,-0.08301,-5.153,-1.771,-0.237
2026-06-01 14:16:28.228,2206927684,21228,1,0.6731,0.16577,0.85229,-2.595,-3.763,-0.412
2026-06-01 14:16:28.228,2206927684,21228,2,1.02783,-0.01563,-0.09033,-6.405,-3.817,1.237
2026-06-01 14:16:28.428,2206927884,21428,1,0.69507,0.16772,0.85986,-13.809,0.023,-10.466
2026-06-01 14:16:28.428,2206927884,21428,2,1.04395,-0.0166,-0.10547,-14.687,-5.985,8.901
2026-06-01 14:16:29.628,2206929084,21628,1,0.69629,0.15405,0.86182,-19.695,-3.672,-27.412
2026-06-01 14:16:29.628,2206929084,21628,2,1.03589,-0.05957,-0.14209,-44.198,1.634,1.359
2026-06-01 14:16:29.828,2206929284,21828,1,0.69092,0.13525,0.85449,-20.847,-2.275,-23.405
2026-06-01 14:16:29.828,2206929284,21828,2,1.02734,-0.0542,-0.11133,-20.153,5.328,0.092
2026-06-01 14:16:29.028,2206928484,22028,1,0.69775,0.1438,0.85547,-4.145,-4.962,-9.344
2026-06-01 14:16:29.028,2206928484,22028,2,1.01758,-0.07104,-0.1438,-4.725,-4.855,4.489
2026-06-01 14:16:29.228,2206928684,22228,1,0.71875,0.14087,0.84106,-2.046,-11.405,-5.389
2026-06-01 14:16:29.228,2206928684,22228,2,1.02979,-0.07178,-0.15308,-8.298,-1.542,1.664
2026-06-01 14:16:29.428,2206928884,22428,1,0.72827,0.15918,0.84302,-2.947,4.908,-3.954
2026-06-01 14:16:29.428,2206928884,22428,2,1.02637,-0.07349,-0.14526,-3.069,-0.527,1.977
2026-06-01 14:16:30.628,2206930084,22628,1,0.70386,0.15771,0.86182,-4.832,-1.168,-7.229
2026-06-01 14:16:30.628,2206930084,22628,2,1.01904,-0.0542,-0.14282,-38.679,2.45,-2.176
2026-06-01 14:16:30.828,2206930284,22828,1,0.71094,0.1499,0.84937,-5.206,-3.359,-8.282
2026-06-01 14:16:30.828,2206930284,22828,2,1.02051,-0.05835,-0.18018,-24.42,-4.565,-3.313
2026-06-01 14:16:30.028,2206929484,23028,1,0.75122,0.17065,0.8501,24.58,12.252,25.84
2026-06-01 14:16:30.028,2206929484,23028,2,1.02075,-0.08472,-0.12183,36.702,11.443,-7.511
2026-06-01 14:16:30.228,2206929684,23228,1,0.70386,0.17334,0.80127,33.832,38.573,51.969
2026-06-01 14:16:30.228,2206929684,23228,2,0.8313,-0.07959,-0.01563,102.885,44.985,-1.267
2026-06-01 14:16:30.428,2206929884,23428,1,0.75171,0.125,1.21753,2.237,19.321,25.229
2026-06-01 14:16:30.428,2206929884,23428,2,1.51563,0.05737,-0.05664,32.092,16.122,-11.595
2026-06-01 14:16:31.628,2206931084,23628,1,0.36499,0.17603,0.53101,5.748,16.206,-14.443
2026-06-01 14:16:31.628,2206931084,23628,2,0.79346,-0.19873,-0.07349,-83.916,-69.504,22.405
2026-06-01 14:16:31.828,2206931284,23828,1,0.52417,0.14209,0.93823,60.229,65.908,116.885
2026-06-01 14:16:31.828,2206931284,23828,2,1.05859,-0.16479,-0.04272,175.107,80.588,-10.756
2026-06-01 14:16:31.028,2206930484,24028,1,0.53687,0.18188,0.94238,45.534,24.71,75.756
2026-06-01 14:16:31.028,2206930484,24028,2,0.98242,0.19458,-0.03149,86.992,3.74,-2.992
2026-06-01 14:16:31.228,2206930684,24228,1,0.48047,0.28223,0.95581,21.023,9.092,35.824
2026-06-01 14:16:31.228,2206930684,24228,2,0.90796,0.26196,0.08594,48.962,-16.382,5.122
2026-06-01 14:16:31.428,2206930884,24428,1,0.53809,0.31104,1.02344,15.015,-5.641,10.763
2026-06-01 14:16:31.428,2206930884,24428,2,0.94849,-0.15186,-0.01978,5.916,-31.702,-10.885
2026-06-01 14:16:32.628,2206932084,24628,1,0.77832,0.15942,0.95874,-10.153,-8.16,-9.634
2026-06-01 14:16:32.628,2206932084,24628,2,1.18994,-0.14233,-0.0686,-80.382,-30.718,10.008
2026-06-01 14:16:32.828,2206932284,24828,1,0.72607,-0.04028,0.79639,-58.023,-5.679,-28.206
2026-06-01 14:16:32.828,2206932284,24828,2,0.92847,-0.04346,-0.06177,-56.55,-18.649,28.733
2026-06-01 14:16:32.028,2206931484,25028,1,0.65308,-0.12378,0.94995,22.725,9.328,19.718
2026-06-01 14:16:32.028,2206931484,25028,2,1.02661,-0.14258,-0.1333,21.359,-28.893,28.588
2026-06-01 14:16:32.228,2206931684,25228,1,0.65649,-0.20508,0.89233,52.076,-6.809,48.992
2026-06-01 14:16:32.228,2206931684,25228,2,1.01074,-0.21729,-0.21558,142.588,21.969,-13.099
2026-06-01 14:16:32.428,2206931884,25428,1,0.6333,0.0083,0.84204,75.847,0.229,105.252
2026-06-01 14:16:32.428,2206931884,25428,2,1.11475,-0.1814,-0.12964,112.534,-1.534,6.023
2026-06-01 14:16:33.628,2206933084,25628,1,0.68652,0.07324,0.86279,80.779,19.71,107.939
2026-06-01 14:16:33.628,2206933084,25628,2,1.05542,0.09204,-0.03174,152.557,7.267,4.13
2026-06-01 14:16:33.828,2206933284,25828,1,0.68726,0.0498,0.8877,22.053,-2.901,27.71
2026-06-01 14:16:33.828,2206933284,25828,2,1.02759,0.10229,-0.06592,22.626,-3.443,-3.511
2026-06-01 14:16:33.028,2206932484,26028,1,0.61841,0.23291,0.91748,-1.237,1.695,-17.718
2026-06-01 14:16:33.028,2206932484,26028,2,1.00806,0.15869,-0.09424,-94.053,-12.641,-4.489
2026-06-01 14:16:33.228,2206932684,26228,1,0.61011,0.12793,0.86963,-67.786,-25.824,-112.015
2026-06-01 14:16:33.228,2206932684,26228,2,1.02734,0.02344,-0.13208,-170.176,-14.557,9.061
2026-06-01 14:16:33.428,2206932884,26428,1,0.7312,0.10645,0.85938,-129.412,-28.504,-159.71
2026-06-01 14:16:33.428,2206932884,26428,2,1.02222,-0.11841,-0.1582,-238.069,-1.641,3.443
2026-06-01 14:16:34.628,2206934084,26628,1,0.8689,-0.0166,0.88696,-64.672,-5.458,-83.221
2026-06-01 14:16:34.628,2206934084,26628,2,0.97681,-0.10205,-0.27002,-124.45,-9.16,2.046
2026-06-01 14:16:34.828,2206934284,26828,1,0.7356,0.07495,0.84399,8.053,-2.16,-0.115
2026-06-01 14:16:34.828,2206934284,26828,2,1.02979,-0.04492,-0.1106,-6.145,5.359,-11.031
2026-06-01 14:16:34.028,2206933484,27028,1,0.73022,0.10376,0.86841,-5.618,-3.695,-21.29
2026-06-01 14:16:34.028,2206933484,27028,2,1.03687,-0.14453,-0.17407,-33.916,-2.061,-3.962
2026-06-01 14:16:34.228,2206933684,27228,1,0.6853,0.13403,0.83057,1.42,17.015,-4.45
2026-06-01 14:16:34.228,2206933684,27228,2,1.05054,-0.03003,-0.0481,-22.626,3.466,-4.244
2026-06-01 14:16:35.738,2206935194,27738,1,0.6377,0.20508,0.88232,1.206,4.924,-1.466
2026-06-01 14:16:35.738,2206935194,27738,2,1.02759,0.13672,-0.00488,-3.817,8.443,-1.29
2026-06-01 14:16:35.938,2206935394,27938,1,0.61304,0.30396,0.8772,-9.244,3.634,-12.313
2026-06-01 14:16:35.938,2206935394,27938,2,1.00684,0.15308,-0.0752,-45.282,-8.053,-0.443
2026-06-01 14:16:35.138,2206934594,28138,1,0.64429,0.28516,0.89648,-17.802,-13.672,-35.344
2026-06-01 14:16:35.138,2206934594,28138,2,1.11353,-0.00757,-0.0564,-32.031,-13.122,3.664
2026-06-01 14:16:35.338,2206934794,28338,1,0.65698,0.18726,0.84595,-3.763,-10.29,-12.458
2026-06-01 14:16:35.338,2206934794,28338,2,1.09033,-0.07397,-0.12305,-29.176,-8.885,-5.298
2026-06-01 14:16:35.538,2206934994,28538,1,0.67969,0.18506,0.88403,-5.863,-0.061,-18.115
2026-06-01 14:16:35.538,2206934994,28538,2,1.03076,0.00586,-0.09521,-19.802,-8.321,7.198
2026-06-01 14:16:36.738,2206936194,28738,1,0.6875,0.15259,0.8855,-2.916,4.763,-2.145
2026-06-01 14:16:36.738,2206936194,28738,2,0.99731,-0.04175,-0.17065,5.901,-2.244,3.634
2026-06-01 14:16:36.938,2206936394,28938,1,0.70386,0.15479,0.86523,-5.008,-0.595,9.626
2026-06-01 14:16:36.938,2206936394,28938,2,1.0293,-0.00269,-0.09277,1.511,-1.748,4.298
2026-06-01 14:16:36.138,2206935594,29138,1,0.6748,0.1853,0.85889,-10.053,2.092,-4.366
2026-06-01 14:16:36.138,2206935594,29138,2,1.00684,0.00439,-0.06885,-2.916,2.794,5.382
2026-06-01 14:16:36.338,2206935794,29338,1,0.67114,0.15601,0.86133,-4.504,-2.359,-5.527
2026-06-01 14:16:36.338,2206935794,29338,2,1.03662,0.00708,-0.04956,-2.969,1.473,0.412
2026-06-01 14:16:36.538,2206935994,29538,1,0.68042,0.17505,0.87109,-1.863,1.481,-4.534
2026-06-01 14:16:36.538,2206935994,29538,2,1.04077,0.00854,-0.05811,1.145,-0.947,3.71
2026-06-01 14:16:37.738,2206937194,29738,1,0.67554,0.16895,0.88013,0.947,3.427,0.458
2026-06-01 14:16:37.738,2206937194,29738,2,1.03198,-0.00464,-0.07349,8.565,4.321,1.489
2026-06-01 14:16:37.938,2206937394,29938,1,0.67603,0.16772,0.87671,1.336,3.443,1.908
2026-06-01 14:16:37.938,2206937394,29938,2,1.02954,0.00659,-0.07178,8.176,3.008,0.435
2026-06-01 14:16:37.138,2206936594,30138,1,0.65625,0.16943,0.88721,0.511,3.511,0.076
2026-06-01 14:16:37.138,2206936594,30138,2,1.03198,0.01758,-0.06885,-7.321,-1.672,-0.107
2026-06-01 14:16:37.338,2206936794,30338,1,0.66113,0.1665,0.88159,0.557,0.565,-0.626
2026-06-01 14:16:37.338,2206936794,30338,2,1.03491,0.00928,-0.07031,-4.519,-1.153,-0.916
2026-06-01 14:16:37.538,2206936994,30538,1,0.67261,0.1709,0.87622,1.664,-0.069,0.069
2026-06-01 14:16:37.538,2206936994,30538,2,1.02783,0.0127,-0.08057,-2.061,-0.802,-0.802
2026-06-01 14:16:38.738,2206938194,30738,1,0.68481,0.17627,0.86523,1.924,1.687,-0.71
2026-06-01 14:16:38.738,2206938194,30738,2,1.02856,0.02295,-0.07837,-1.092,-0.13,0.557
2026-06-01 14:16:38.938,2206938394,30938,1,0.67505,0.18457,0.87256,1.0,1.542,-1.42
2026-06-01 14:16:38.938,2206938394,30938,2,1.03345,0.0188,-0.07349,3.634,-0.679,0.534
2026-06-01 14:16:38.138,2206937594,31138,1,0.677,0.18237,0.86621,0.359,1.061,-1.237
2026-06-01 14:16:38.138,2206937594,31138,2,1.03491,0.03735,-0.07617,-4.725,-1.137,-0.641
2026-06-01 14:16:38.338,2206937794,31338,1,0.67285,0.17798,0.86743,0.359,1.275,-1.405
2026-06-01 14:16:38.338,2206937794,31338,2,1.03052,0.02173,-0.08105,-1.931,-2.183,0.954
2026-06-01 14:16:38.538,2206937994,31538,1,0.68042,0.18604,0.86401,-0.046,0.878,-0.794
2026-06-01 14:16:38.538,2206937994,31538,2,1.03613,0.021,-0.08325,-1.328,0.275,-0.649
2026-06-01 14:16:39.738,2206939194,31738,1,0.68457,0.17627,0.86353,0.084,1.183,-1.229
2026-06-01 14:16:39.738,2206939194,31738,2,1.03149,0.02026,-0.09448,-1.061,0.069,1.046
2026-06-01 14:16:39.938,2206939394,31938,1,0.69287,0.18921,0.854,1.16,2.397,-1.183
2026-06-01 14:16:39.938,2206939394,31938,2,1.03003,0.03394,-0.08154,1.618,1.252,-0.115
2026-06-01 14:16:39.138,2206938594,32138,1,0.68115,0.18604,0.85522,0.298,1.794,-1.168
2026-06-01 14:16:39.138,2206938594,32138,2,1.03052,0.03076,-0.08447,-0.443,0.802,-0.634
2026-06-01 14:16:39.338,2206938794,32338,1,0.68872,0.18384,0.86572,0.496,2.13,-1.229
2026-06-01 14:16:39.338,2206938794,32338,2,1.0332,0.02515,-0.08398,-1.855,-0.206,0.115
2026-06-01 14:16:40.858,2206940314,32858,1,0.68921,0.18555,0.85669,1.496,1.664,0.038
2026-06-01 14:16:40.858,2206940314,32858,2,1.0354,0.04126,-0.10107,-1.237,0.198,0.565
2026-06-01 14:16:40.058,2206939514,33058,1,0.68726,0.18018,0.86426,0.435,1.672,-1.489
2026-06-01 14:16:40.058,2206939514,33058,2,1.02783,0.03223,-0.09204,-3.221,-0.855,0.351
2026-06-01 14:16:40.258,2206939714,33258,1,0.68188,0.18555,0.86401,-0.847,1.969,-2.0
2026-06-01 14:16:40.258,2206939714,33258,2,1.0332,0.03149,-0.09229,-2.511,0.214,-0.275
2026-06-01 14:16:40.458,2206939914,33458,1,0.67822,0.18848,0.86768,0.092,1.74,-1.267
2026-06-01 14:16:40.458,2206939914,33458,2,1.03174,0.03174,-0.09766,-1.809,0.046,0.443
2026-06-01 14:16:41.658,2206941114,33658,1,0.67944,0.18384,0.86035,-0.229,1.794,-2.267
2026-06-01 14:16:41.658,2206941114,33658,2,1.0249,0.02881,-0.09668,-0.092,0.756,0.55
2026-06-01 14:16:41.858,2206941314,33858,1,0.6936,0.19019,0.85522,1.55,1.26,-0.382
2026-06-01 14:16:41.858,2206941314,33858,2,1.0249,0.03613,-0.08643,2.13,2.252,1.481
2026-06-01 14:16:41.148,2206940604,34148,1,0.69312,0.19067,0.86279,-0.794,2.031,-1.275
2026-06-01 14:16:41.148,2206940604,34148,2,1.02368,0.0293,-0.09644,0.229,1.42,2.061
2026-06-01 14:16:41.348,2206940804,34348,1,0.67578,0.17969,0.87402,-1.053,1.802,-0.13
2026-06-01 14:16:41.348,2206940804,34348,2,1.02515,0.03271,-0.08081,-2.305,0.855,1.092
2026-06-01 14:16:42.548,2206942004,34548,1,0.67627,0.17896,0.87842,0.527,1.267,0.611
2026-06-01 14:16:42.548,2206942004,34548,2,1.02588,0.03516,-0.08398,0.626,0.519,0.733
2026-06-01 14:16:42.748,2206942204,34748,1,0.68604,0.17383,0.87134,0.237,0.794,-0.901
2026-06-01 14:16:42.748,2206942204,34748,2,1.02954,0.02075,-0.08374,-1.786,0.412,0.443
2026-06-01 14:16:42.109,2206941565,35109,1,0.68921,0.17627,0.8584,0.687,0.687,-0.267
2026-06-01 14:16:42.109,2206941565,35109,2,1.02271,0.0188,-0.09253,-1.466,-0.145,0.374
2026-06-01 14:16:42.348,2206941804,35348,1,0.68213,0.17603,0.86963,1.527,2.435,0.008
2026-06-01 14:16:42.348,2206941804,35348,2,1.03003,0.02124,-0.0813,-1.748,-0.641,0.183
2026-06-01 14:16:43.548,2206943004,35548,1,0.68066,0.17896,0.86353,0.321,1.099,-0.824
2026-06-01 14:16:43.548,2206943004,35548,2,1.02905,0.03101,-0.09766,-3.351,-0.473,-0.45
2026-06-01 14:16:43.748,2206943204,35748,1,0.68311,0.1748,0.8623,0.046,0.985,-1.244
2026-06-01 14:16:43.748,2206943204,35748,2,1.02026,0.02905,-0.11377,2.374,-0.71,0.611
2026-06-01 14:16:43.948,2206943404,35948,1,0.68799,0.18774,0.86133,0.618,2.977,-1.229
2026-06-01 14:16:43.948,2206943404,35948,2,1.03296,0.02246,-0.09741,1.16,0.855,1.229
2026-06-01 14:16:43.148,2206942604,36148,1,0.69043,0.17944,0.8645,0.344,2.214,0.107
2026-06-01 14:16:43.148,2206942604,36148,2,1.03125,0.02441,-0.09302,2.008,2.061,0.107
2026-06-01 14:16:43.348,2206942804,36348,1,0.68774,0.18652,0.85767,0.214,2.046,-0.855
2026-06-01 14:16:43.348,2206942804,36348,2,1.02173,0.02979,-0.09155,-1.145,1.0,1.015
2026-06-01 14:16:44.548,2206944004,36548,1,0.68335,0.18115,0.85864,-1.176,2.893,-1.405
2026-06-01 14:16:44.548,2206944004,36548,2,1.03149,0.00854,-0.09448,1.427,1.496,0.824
2026-06-01 14:16:44.748,2206944204,36748,1,0.68726,0.17285,0.86792,-0.16,1.076,-0.313
2026-06-01 14:16:44.748,2206944204,36748,2,1.03149,0.01904,-0.09058,-2.725,1.076,-0.168
2026-06-01 14:16:44.948,2206944404,36948,1,0.67017,0.17261,0.86206,0.099,2.55,-1.443
2026-06-01 14:16:44.948,2206944404,36948,2,1.03833,0.01953,-0.07495,-2.817,0.618,1.611
2026-06-01 14:16:44.148,2206943604,37148,1,0.67041,0.16748,0.87061,-0.008,3.107,0.84
2026-06-01 14:16:44.148,2206943604,37148,2,1.02881,0.01953,-0.09424,-0.282,0.672,-0.26
2026-06-01 14:16:44.404,2206943860,37404,1,0.66675,0.1709,0.88672,1.802,1.702,0.664
2026-06-01 14:16:44.404,2206943860,37404,2,1.03687,0.0249,-0.08301,-1.855,-0.511,-0.099
2026-06-01 14:16:45.604,2206945060,37604,1,0.67725,0.17505,0.875,1.382,0.26,-1.931
2026-06-01 14:16:45.604,2206945060,37604,2,1.03174,0.02612,-0.08667,-0.855,0.634,0.405
2026-06-01 14:16:45.882,2206945338,37881,1,0.68384,0.18237,0.8667,0.588,1.496,-0.519
2026-06-01 14:16:45.882,2206945338,37881,2,1.03979,0.02539,-0.08276,8.855,2.718,1.382
2026-06-01 14:16:45.081,2206944537,38081,1,0.66675,0.20483,0.86523,-4.832,0.992,-5.206
2026-06-01 14:16:45.081,2206944537,38081,2,1.0144,0.05151,-0.0835,-13.145,-7.13,8.351
2026-06-01 14:16:45.281,2206944737,38281,1,0.68945,0.20337,0.85889,-32.702,-1.389,-30.0
2026-06-01 14:16:45.281,2206944737,38281,2,1.03076,0.05762,-0.11597,-52.565,0.16,7.321
2026-06-01 14:16:45.481,2206944937,38481,1,0.65674,0.1394,0.86865,-29.008,-14.855,-43.053
2026-06-01 14:16:45.481,2206944937,38481,2,1.02637,-0.02466,-0.12451,-69.412,-2.45,4.802
2026-06-01 14:16:46.681,2206946137,38681,1,0.67358,0.12085,0.86914,-38.229,-6.183,-44.313
2026-06-01 14:16:46.681,2206946137,38681,2,1.02271,-0.07544,-0.13403,-45.74,6.977,5.412
2026-06-01 14:16:46.881,2206946337,38881,1,0.68823,0.05981,0.88208,-14.611,2.504,-12.817
2026-06-01 14:16:46.881,2206946337,38881,2,1.02051,-0.06079,-0.10913,56.328,5.252,-7.45
2026-06-01 14:16:46.418,2206945874,39418,1,0.68335,0.15405,0.88452,25.878,3.191,26.641
2026-06-01 14:16:46.418,2206945874,39418,2,1.03882,0.01318,-0.07275,23.771,-3.359,-2.565
2026-06-01 14:16:47.618,2206947074,39618,1,0.68237,0.17407,0.86768,11.092,3.58,7.641
2026-06-01 14:16:47.618,2206947074,39618,2,1.04663,0.01025,-0.0686,9.542,3.405,0.237
2026-06-01 14:16:47.818,2206947274,39818,1,0.67725,0.16162,0.88184,0.603,0.473,-1.992
2026-06-01 14:16:47.818,2206947274,39818,2,1.03101,-0.01538,-0.07495,5.137,3.748,1.824
2026-06-01 14:16:47.018,2206946474,40018,1,0.66797,0.16699,0.88257,-2.511,3.366,-3.16
2026-06-01 14:16:47.018,2206946474,40018,2,1.03052,-0.00513,-0.1062,-10.679,-5.313,1.107
2026-06-01 14:16:47.218,2206946674,40218,1,0.68555,0.14771,0.87158,-2.565,-3.466,-5.412
2026-06-01 14:16:47.218,2206946674,40218,2,1.02539,-0.02002,-0.11279,-11.359,-0.931,0.298
2026-06-01 14:16:47.418,2206946874,40418,1,0.69214,0.15405,0.8689,-2.298,1.618,-2.542
2026-06-01 14:16:47.418,2206946874,40418,2,1.03931,-0.00464,-0.1272,-3.076,-1.725,0.496
2026-06-01 14:16:48.618,2206948074,40618,1,0.69702,0.15161,0.8689,-1.802,-0.595,-2.13
2026-06-01 14:16:48.618,2206948074,40618,2,1.0437,-0.00366,-0.10815,2.588,2.145,0.221
2026-06-01 14:16:48.818,2206948274,40818,1,0.68994,0.16162,0.87036,3.45,5.901,3.985
2026-06-01 14:16:48.818,2206948274,40818,2,1.02368,-0.03174,-0.13599,6.595,2.702,3.847
2026-06-01 14:16:48.018,2206947474,41018,1,0.71509,0.16699,0.84106,-0.595,1.626,-2.702
2026-06-01 14:16:48.018,2206947474,41018,2,1.02246,-0.03613,-0.06567,2.87,4.756,1.962
2026-06-01 14:16:48.218,2206947674,41218,1,0.64331,0.1394,0.88379,-5.168,3.947,0.786
2026-06-01 14:16:48.218,2206947674,41218,2,1.02466,-0.04956,-0.10376,-15.214,-0.588,0.191
2026-06-01 14:16:48.418,2206947874,41418,1,0.68677,0.12524,0.88208,4.313,0.656,4.649
2026-06-01 14:16:48.418,2206947874,41418,2,1.03418,-0.03906,-0.0957,-4.198,-5.87,-1.252
2026-06-01 14:16:49.618,2206949074,41618,1,0.59839,0.11597,0.91699,7.344,0.168,6.466
2026-06-01 14:16:49.618,2206949074,41618,2,1.00146,-0.05054,-0.09546,-13.519,-17.076,-2.901
2026-06-01 14:16:49.818,2206949274,41818,1,1.01953,0.00684,0.69238,28.176,32.008,-13.053
2026-06-01 14:16:49.818,2206949274,41818,2,1.12158,0.00586,-0.22778,-51.863,-6.191,4.115
2026-06-01 14:16:49.018,2206948474,42018,1,0.65479,0.14014,0.88257,0.489,4.282,-1.771
2026-06-01 14:16:49.018,2206948474,42018,2,1.02563,-0.01831,-0.1709,-6.214,9.076,6.985
2026-06-01 14:16:49.218,2206948674,42218,1,0.66309,0.12134,0.88428,-4.725,-3.069,-1.885
2026-06-01 14:16:49.218,2206948674,42218,2,1.0166,-0.04004,-0.1377,-2.45,2.305,2.611
2026-06-01 14:16:49.418,2206948874,42418,1,0.72266,0.11719,0.8606,-0.954,-11.038,0.725
2026-06-01 14:16:49.418,2206948874,42418,2,1.03394,-0.03735,-0.12939,-5.389,3.794,6.015
2026-06-01 14:16:50.618,2206950074,42618,1,0.70166,0.10132,0.85962,-2.931,-6.176,-7.695
2026-06-01 14:16:50.618,2206950074,42618,2,1.02954,-0.03687,-0.1604,-25.702,-1.901,0.931
2026-06-01 14:16:50.818,2206950274,42818,1,0.72339,0.10498,0.86206,0.809,-3.412,-4.031
2026-06-01 14:16:50.818,2206950274,42818,2,1.0271,-0.05054,-0.17603,-5.618,-0.756,2.519
2026-06-01 14:16:50.018,2206949474,43018,1,0.71655,0.09253,0.84448,-1.321,2.16,0.344
2026-06-01 14:16:50.018,2206949474,43018,2,1.02637,-0.02051,-0.13745,-6.412,2.794,-3.137
2026-06-01 14:16:50.281,2206949737,43281,1,0.71582,0.12695,0.84033,1.725,2.779,2.84
2026-06-01 14:16:50.281,2206949737,43281,2,1.02368,-0.04297,-0.14722,-4.824,0.992,2.115
2026-06-01 14:16:50.481,2206949937,43481,1,0.73096,0.11401,0.84473,3.137,2.885,-0.099
2026-06-01 14:16:50.481,2206949937,43481,2,1.02002,-0.06836,-0.14087,2.985,4.145,2.183
2026-06-01 14:16:51.681,2206951137,43681,1,0.7207,0.07813,0.85742,6.504,3.183,-1.328
2026-06-01 14:16:51.681,2206951137,43681,2,1.00244,-0.09839,-0.13599,-1.0,-0.611,-1.985
2026-06-01 14:16:51.881,2206951337,43881,1,0.71606,0.12378,0.85205,20.725,6.603,26.71
2026-06-01 14:16:51.881,2206951337,43881,2,1.03564,-0.04712,-0.13501,19.466,0.153,-2.695
2026-06-01 14:16:51.081,2206950537,44081,1,0.71533,0.13745,0.84375,9.588,5.832,12.504
2026-06-01 14:16:51.081,2206950537,44081,2,1.02832,-0.04858,-0.13843,3.405,0.328,-1.824
2026-06-01 14:16:51.281,2206950737,44281,1,0.69409,0.12158,0.85498,5.71,2.962,3.313
2026-06-01 14:16:51.281,2206950737,44281,2,1.03491,-0.05786,-0.10132,-0.16,-0.595,-0.87
2026-06-01 14:16:51.481,2206950937,44481,1,0.70215,0.13306,0.84937,2.893,2.687,0.168
2026-06-01 14:16:51.481,2206950937,44481,2,1.03076,-0.04492,-0.13599,0.863,1.122,1.672
2026-06-01 14:16:52.681,2206952137,44681,1,0.70728,0.1189,0.86548,-0.267,1.305,0.702
2026-06-01 14:16:52.681,2206952137,44681,2,1.02881,-0.04907,-0.13184,-0.267,-0.962,0.107
2026-06-01 14:16:52.881,2206952337,44881,1,0.70508,0.12402,0.86011,0.992,0.237,1.252
2026-06-01 14:16:52.881,2206952337,44881,2,1.02222,-0.05225,-0.14624,-3.611,-4.405,1.031
2026-06-01 14:16:52.081,2206951537,45081,1,0.72388,0.11987,0.85986,1.389,-1.573,-1.115
2026-06-01 14:16:52.081,2206951537,45081,2,1.02588,-0.06567,-0.125,0.137,-1.267,0.015
2026-06-01 14:16:52.281,2206951737,45281,1,0.72876,0.10571,0.83252,1.176,-0.099,-0.626
2026-06-01 14:16:52.281,2206951737,45281,2,1.03223,-0.04639,-0.15479,3.191,1.244,-1.405
2026-06-01 14:16:52.528,2206951984,45528,1,0.72852,0.11914,0.84399,2.695,1.221,2.252
2026-06-01 14:16:52.528,2206951984,45528,2,1.02734,-0.04272,-0.13916,3.542,-1.42,0.641
2026-06-01 14:16:53.728,2206953184,45728,1,0.72485,0.14233,0.84399,9.298,4.786,8.046
2026-06-01 14:16:53.728,2206953184,45728,2,1.01001,-0.02637,-0.19604,1.069,0.481,1.908
2026-06-01 14:16:53.928,2206953384,45928,1,0.72437,0.13599,0.8374,4.427,3.435,0.885
2026-06-01 14:16:53.928,2206953384,45928,2,1.02515,-0.04028,-0.15259,3.832,3.908,0.779
2026-06-01 14:16:53.128,2206952584,46128,1,0.72974,0.13525,0.83472,1.145,4.565,-0.947
2026-06-01 14:16:53.128,2206952584,46128,2,1.02515,-0.03076,-0.16748,-2.542,0.71,0.015
2026-06-01 14:16:53.328,2206952784,46328,1,0.71021,0.14087,0.83887,-1.252,2.336,-0.901
2026-06-01 14:16:53.328,2206952784,46328,2,1.02612,-0.02979,-0.15039,-6.023,0.954,-0.626
2026-06-01 14:16:53.528,2206952984,46528,1,0.71094,0.11621,0.84912,0.237,1.725,-0.542
2026-06-01 14:16:53.528,2206952984,46528,2,1.0293,-0.0332,-0.14453,2.191,1.16,-0.145
2026-06-01 14:16:54.728,2206954184,46728,1,0.72656,0.14844,0.84009,0.115,3.695,-1.328
2026-06-01 14:16:54.728,2206954184,46728,2,1.02856,-0.02661,-0.16113,-1.42,1.336,2.061
2026-06-01 14:16:54.928,2206954384,46928,1,0.7168,0.13623,0.8457,-3.473,1.817,-3.198
2026-06-01 14:16:54.928,2206954384,46928,2,1.02954,-0.03467,-0.15698,-8.145,-0.298,0.397
2026-06-01 14:16:54.128,2206953584,47128,1,0.72046,0.13281,0.84229,-6.809,1.908,-4.931
2026-06-01 14:16:54.128,2206953584,47128,2,1.02563,-0.05029,-0.12842,-6.847,1.817,3.252
2026-06-01 14:16:54.328,2206953784,47328,1,0.72266,0.10278,0.84521,-6.573,-2.802,-5.634
2026-06-01 14:16:54.328,2206953784,47328,2,1.02563,-0.05518,-0.15161,-6.191,0.191,3.038
2026-06-01 14:16:54.528,2206953984,47528,1,0.74292,0.08813,0.84155,1.282,2.275,-0.305
2026-06-01 14:16:54.528,2206953984,47528,2,1.03125,-0.06152,-0.15747,3.809,0.496,1.908
2026-06-01 14:16:55.728,2206955184,47728,1,0.71997,0.11133,0.85034,7.351,5.908,4.45
2026-06-01 14:16:55.728,2206955184,47728,2,1.02979,-0.05273,-0.13184,10.901,7.328,-1.542
2026-06-01 14:16:55.928,2206955384,47928,1,0.71094,0.12524,0.8562,5.603,6.351,6.061
2026-06-01 14:16:55.928,2206955384,47928,2,1.02637,-0.04395,-0.13525,10.634,3.679,0.366
2026-06-01 14:16:55.128,2206954584,48128,1,0.69556,0.14136,0.85767,6.084,3.695,5.802
2026-06-01 14:16:55.128,2206954584,48128,2,1.02295,-0.02905,-0.12085,-0.252,-0.084,-1.71
2026-06-01 14:16:55.328,2206954784,48328,1,0.71118,0.13086,0.85986,1.687,0.466,-1.397
2026-06-01 14:16:55.328,2206954784,48328,2,1.03345,-0.04517,-0.1272,-2.969,-1.473,-0.405
2026-06-01 14:16:55.528,2206954984,48528,1,0.66943,0.14868,0.8606,-4.832,-4.183,-3.229
2026-06-01 14:16:55.528,2206954984,48528,2,1.03003,-0.00977,-0.11353,-7.29,-2.038,2.092
2026-06-01 14:16:56.728,2206956184,48728,1,0.74268,0.14282,0.82764,-20.107,-1.489,-25.588
2026-06-01 14:16:56.728,2206956184,48728,2,1.03174,-0.02441,-0.14575,-37.71,7.038,3.122
2026-06-01 14:16:56.226,2206955682,49225,1,0.71899,0.12476,0.85742,-12.809,0.115,-12.733
2026-06-01 14:16:56.226,2206955682,49225,2,1.00635,-0.0625,-0.15308,-4.702,5.634,0.221
2026-06-01 14:16:57.672,2206957128,49672,1,0.74756,0.05957,0.8562,4.084,2.168,-1.382
2026-06-01 14:16:57.672,2206957128,49672,2,1.07129,-0.09375,-0.13452,19.031,10.168,-2.359
2026-06-01 14:16:57.872,2206957328,49872,1,0.64526,0.13647,0.8999,-13.504,2.695,-18.489
2026-06-01 14:16:57.872,2206957328,49872,2,1.01855,-0.03833,-0.16138,-4.061,-7.954,1.145
2026-06-01 14:16:57.072,2206956528,50072,1,0.68774,0.10498,0.88599,-0.443,-1.267,5.382
2026-06-01 14:16:57.072,2206956528,50072,2,1.03711,-0.03589,-0.08496,-3.366,0.252,-3.901
2026-06-01 14:16:57.272,2206956728,50272,1,0.69092,0.1106,0.87036,4.672,-3.214,-0.145
2026-06-01 14:16:57.272,2206956728,50272,2,1.03442,-0.0293,-0.08081,-3.679,-4.489,0.305
2026-06-01 14:16:57.472,2206956928,50472,1,0.67603,0.13965,0.84741,-4.336,0.511,-5.924
2026-06-01 14:16:57.472,2206956928,50472,2,1.01416,-0.00366,-0.0769,-15.878,-3.962,-6.336
2026-06-01 14:16:58.672,2206958128,50672,1,0.62451,0.17334,0.88696,22.244,8.786,14.122
2026-06-01 14:16:58.672,2206958128,50672,2,1.01147,-0.01709,-0.14624,71.557,6.733,4.45
2026-06-01 14:16:58.929,2206958385,50928,1,0.72095,0.09961,0.84277,44.252,12.84,55.29
2026-06-01 14:16:58.929,2206958385,50928,2,1.00977,-0.05103,-0.10596,82.74,1.046,-7.679
2026-06-01 14:16:58.128,2206957584,51128,1,0.77222,0.14722,0.79565,67.672,17.656,80.42
2026-06-01 14:16:58.128,2206957584,51128,2,1.02686,0.03589,-0.1521,62.176,-16.115,-10.824
2026-06-01 14:16:58.328,2206957784,51328,1,0.74536,0.15967,0.79785,54.214,14.656,66.435
2026-06-01 14:16:58.328,2206957784,51328,2,1.02563,0.05688,-0.20093,82.817,2.702,-1.603
2026-06-01 14:16:58.528,2206957984,51528,1,0.77002,0.14795,0.7915,42.947,13.763,48.092
2026-06-01 14:16:58.528,2206957984,51528,2,1.02393,0.05835,-0.13892,53.046,7.733,-2.763
2026-06-01 14:16:59.728,2206959184,51728,1,0.75928,0.15137,0.82642,7.595,4.092,-0.458
2026-06-01 14:16:59.728,2206959184,51728,2,1.04468,0.06689,-0.07446,-7.26,1.13,-0.496
2026-06-01 14:16:59.928,2206959384,51928,1,0.71899,0.12524,0.82202,-15.87,-4.786,-22.885
2026-06-01 14:16:59.928,2206959384,51928,2,1.04419,-0.00806,-0.11255,-29.229,-0.489,-3.046
2026-06-01 14:16:59.128,2206958584,52128,1,0.81738,0.0813,0.79956,-5.779,0.115,-1.069
2026-06-01 14:16:59.128,2206958584,52128,2,1.02344,0.02173,-0.10767,22.473,7.183,3.58
2026-06-01 14:16:59.328,2206958784,52328,1,0.75781,0.09253,0.80811,-0.305,0.557,1.229
2026-06-01 14:16:59.328,2206958784,52328,2,1.03662,0.04053,-0.10815,-0.87,0.374,-0.626
2026-06-01 14:16:59.528,2206958984,52528,1,0.73853,0.11035,0.82568,3.42,3.679,-5.985
2026-06-01 14:16:59.528,2206958984,52528,2,1.0437,0.02759,-0.11841,-6.359,0.244,-0.55
2026-06-01 14:17:00.728,2206960184,52728,1,0.74487,0.10791,0.82202,-4.321,0.458,-10.298
2026-06-01 14:17:00.728,2206960184,52728,2,1.0332,0.02148,-0.12939,-4.527,2.954,-2.466
2026-06-01 14:17:00.928,2206960384,52928,1,0.74976,0.12573,0.8208,-5.855,1.298,-9.641
2026-06-01 14:17:00.928,2206960384,52928,2,1.03345,0.00073,-0.12256,-4.748,-0.031,2.924
2026-06-01 14:17:00.128,2206959584,53128,1,0.75171,0.1272,0.81616,-8.496,-1.145,-8.962
2026-06-01 14:17:00.128,2206959584,53128,2,1.03491,0.01807,-0.12354,-6.748,0.321,2.397
2026-06-01 14:17:00.328,2206959784,53328,1,0.74316,0.10986,0.8186,-5.145,0.603,-2.718
2026-06-01 14:17:00.328,2206959784,53328,2,1.03125,0.01904,-0.13135,-18.992,-7.344,0.282
2026-06-01 14:17:00.528,2206959984,53528,1,0.73071,0.11816,0.83447,-1.74,1.275,-3.046
2026-06-01 14:17:00.528,2206959984,53528,2,1.01099,0.0105,-0.1272,-2.664,-0.618,0.664
2026-06-01 14:17:01.728,2206961184,53728,1,0.75171,0.10986,0.82129,4.206,2.206,1.252
2026-06-01 14:17:01.728,2206961184,53728,2,1.03418,0.01221,-0.13867,6.977,0.45,0.092
2026-06-01 14:17:01.928,2206961384,53928,1,0.73755,0.12109,0.81104,0.58,3.74,-1.771
2026-06-01 14:17:01.928,2206961384,53928,2,1.02905,0.03101,-0.1333,1.756,2.046,2.511
2026-06-01 14:17:01.128,2206960584,54128,1,0.7251,0.13867,0.83765,4.061,-2.298,6.107
2026-06-01 14:17:01.128,2206960584,54128,2,1.0293,0.04077,-0.1582,11.992,0.733,4.954
2026-06-01 14:17:01.328,2206960784,54328,1,0.75562,0.15356,0.85498,8.664,5.649,21.321
2026-06-01 14:17:01.328,2206960784,54328,2,1.00659,0.09277,-0.07153,19.992,3.618,15.649
2026-06-01 14:17:01.528,2206960984,54528,1,0.69751,0.07324,0.80591,-6.985,-2.168,-9.473
2026-06-01 14:17:01.528,2206960984,54528,2,1.03833,0.00903,-0.17358,-12.359,3.275,-2.802
2026-06-01 14:17:02.728,2206962184,54728,1,0.73535,0.1106,0.83252,0.023,1.885,-10.046
2026-06-01 14:17:02.728,2206962184,54728,2,1.00049,-0.00269,-0.12817,-13.183,-6.863,0.664
2026-06-01 14:17:02.928,2206962384,54928,1,0.76025,0.10547,0.83862,1.145,3.794,3.13
2026-06-01 14:17:02.928,2206962384,54928,2,1.02661,0.00537,-0.13867,0.878,-1.305,2.977
2026-06-01 14:17:02.128,2206961584,55128,1,0.75708,0.09741,0.81934,5.641,-0.214,1.733
2026-06-01 14:17:02.128,2206961584,55128,2,1.02466,-0.00195,-0.12866,3.901,1.534,-0.573
2026-06-01 14:17:02.328,2206961784,55328,1,0.74927,0.10742,0.80005,-0.031,2.725,2.176
2026-06-01 14:17:02.328,2206961784,55328,2,1.04834,0.05884,-0.16138,-5.481,-3.763,2.977
2026-06-01 14:17:02.528,2206961984,55528,1,0.7627,0.08154,0.79126,-9.321,-3.847,-13.702
2026-06-01 14:17:02.528,2206961984,55528,2,1.0542,0.06958,-0.16406,-12.74,-4.389,4.519
2026-06-01 14:17:03.728,2206963184,55728,1,0.76855,0.11938,0.79053,-10.901,3.252,-7.679
2026-06-01 14:17:03.728,2206963184,55728,2,1.03467,0.02612,-0.1665,-15.137,0.588,1.031
2026-06-01 14:17:03.928,2206963384,55928,1,0.74463,0.11719,0.80762,-0.366,4.519,4.947
2026-06-01 14:17:03.928,2206963384,55928,2,1.03467,0.03003,-0.18921,2.046,0.687,2.679
2026-06-01 14:17:03.128,2206962584,56128,1,0.75781,0.11938,0.79468,1.695,3.924,1.382
2026-06-01 14:17:03.128,2206962584,56128,2,1.03271,0.00708,-0.15308,-4.947,0.71,-1.328
2026-06-01 14:17:03.328,2206962784,56328,1,0.74292,0.11475,0.82056,4.321,4.519,5.031
2026-06-01 14:17:03.328,2206962784,56328,2,1.01685,0.01025,-0.13672,-1.237,0.504,2.122
2026-06-01 14:17:03.528,2206962984,56528,1,0.73267,0.1001,0.82764,1.557,5.412,1.817
2026-06-01 14:17:03.528,2206962984,56528,2,1.0332,0.01855,-0.14063,4.924,2.649,1.206
2026-06-01 14:17:04.728,2206964184,56728,1,0.79028,0.10278,0.81616,-1.809,-2.992,-3.573
2026-06-01 14:17:04.728,2206964184,56728,2,1.03003,0.00684,-0.14551,0.282,0.634,0.969
2026-06-01 14:17:04.928,2206964384,56928,1,0.74194,0.10767,0.8418,-1.626,1.794,-1.237
2026-06-01 14:17:04.928,2206964384,56928,2,1.0376,0.02002,-0.15942,-14.527,-3.672,-0.725
2026-06-01 14:17:04.128,2206963584,57128,1,0.79614,0.10156,0.82202,12.389,3.527,-1.145
2026-06-01 14:17:04.128,2206963584,57128,2,1.00879,-0.03467,-0.14038,13.458,5.557,-3.069
2026-06-01 14:17:04.328,2206963784,57328,1,0.73267,0.13257,0.82593,13.015,5.458,14.947
2026-06-01 14:17:04.328,2206963784,57328,2,1.03247,0.00488,-0.11841,14.466,4.863,-0.702
2026-06-01 14:17:05.762,2206965218,57762,1,0.73047,0.15356,0.83057,6.137,2.58,-4.977
2026-06-01 14:17:05.762,2206965218,57762,2,1.02051,0.0376,-0.13477,-6.679,-3.55,-3.206
2026-06-01 14:17:05.962,2206965418,57962,1,0.73975,0.15161,0.82324,-4.756,0.992,-7.443
2026-06-01 14:17:05.962,2206965418,57962,2,1.03979,0.03418,-0.13843,-11.122,2.832,-0.214
2026-06-01 14:17:05.162,2206964618,58162,1,0.74707,0.15747,0.81934,5.328,7.26,2.282
2026-06-01 14:17:05.162,2206964618,58162,2,1.03418,0.05078,-0.12207,8.504,6.901,0.832
2026-06-01 14:17:05.362,2206964818,58362,1,0.70483,0.16919,0.83936,-1.008,11.817,3.336
2026-06-01 14:17:05.362,2206964818,58362,2,1.02173,0.052,-0.08667,19.344,13.947,3.809
2026-06-01 14:17:06.562,2206966018,58562,1,0.67017,0.17188,0.85327,1.115,13.29,1.313
2026-06-01 14:17:06.562,2206966018,58562,2,1.06421,0.00903,-0.05859,19.931,12.702,1.107
2026-06-01 14:17:06.762,2206966218,58762,1,0.63574,0.18091,0.87964,23.122,15.855,37.87
2026-06-01 14:17:06.762,2206966218,58762,2,1.03442,0.00684,-0.05981,-2.489,-14.397,11.466
2026-06-01 14:17:06.962,2206966418,58962,1,0.64331,0.14575,0.92383,-12.046,24.878,-6.023
2026-06-01 14:17:06.962,2206966418,58962,2,0.9834,0.11719,0.00708,-135.351,7.214,-17.176
2026-06-01 14:17:06.195,2206965651,59194,1,0.51318,0.1521,0.98999,-55.969,-15.595,-78.664
2026-06-01 14:17:06.195,2206965651,59194,2,1.03101,0.02905,-0.02197,-92.069,-12.962,4.771
2026-06-01 14:17:06.394,2206965850,59394,1,0.67261,0.10327,0.93408,-49.595,-15.496,-77.786
2026-06-01 14:17:06.394,2206965850,59394,2,1.04248,-0.02441,-0.14429,-117.389,7.679,-14.832
2026-06-01 14:17:07.594,2206967050,59594,1,0.63647,-0.04443,0.90259,-56.71,-19.893,-92.557
2026-06-01 14:17:07.594,2206967050,59594,2,1.03271,-0.11914,-0.24609,-73.87,-20.931,2.435
2026-06-01 14:17:07.794,2206967250,59794,1,0.80054,0.04932,0.90674,6.42,-10.565,-3.771
2026-06-01 14:17:07.794,2206967250,59794,2,0.98608,-0.08594,-0.08081,4.084,-5.573,1.313
2026-06-01 14:17:07.994,2206967450,59994,1,0.75806,0.06323,0.84375,39.573,8.038,37.84
2026-06-01 14:17:07.994,2206967450,59994,2,1.01367,-0.07715,-0.17432,61.916,-3.229,7.122
2026-06-01 14:17:07.194,2206966650,60194,1,0.66626,0.05835,0.83105,11.244,14.183,26.298
2026-06-01 14:17:07.194,2206966650,60194,2,1.02271,-0.08105,-0.22852,46.107,7.763,-3.389
2026-06-01 14:17:07.394,2206966850,60394,1,0.75342,0.06567,0.79712,49.336,6.221,46.099
2026-06-01 14:17:07.394,2206966850,60394,2,1.00488,-0.09814,-0.28296,73.55,-6.198,-8.641
2026-06-01 14:17:08.594,2206968050,60594,1,0.99976,0.29443,1.11279,72.855,-34.664,63.023
2026-06-01 14:17:08.594,2206968050,60594,2,1.09619,0.05737,,151.824,5.359,9.588
2026-06-01 14:17:08.794,2206968250,60794,1,0.69482,0.20313,0.91309,18.405,25.58,28.069
2026-06-01 14:17:08.794,2206968250,60794,2,1.08887,0.07666,-0.07959,20.206,9.435,7.221
2026-06-01 14:17:08.994,2206968450,60994,1,0.50122,0.12964,0.93408,19.924,27.71,5.45
2026-06-01 14:17:08.994,2206968450,60994,2,1.00635,0.08301,0.02075,4.031,26.076,-20.626
2026-06-01 14:17:08.194,2206967650,61194,1,0.49658,0.29028,0.93726,26.237,12.595,27.046
2026-06-01 14:17:08.194,2206967650,61194,2,1.01025,0.01733,-0.01074,-37.534,0.588,3.412
2026-06-01 14:17:08.394,2206967850,61394,1,0.59155,0.28052,0.89258,-8.344,3.58,3.137
2026-06-01 14:17:08.394,2206967850,61394,2,1.03296,0.07568,-0.14551,8.649,-11.275,20.534
2026-06-01 14:17:09.594,2206969050,61594,1,0.63354,0.19897,0.89087,4.45,-11.863,11.076
2026-06-01 14:17:09.594,2206969050,61594,2,1.02222,0.06641,0.04199,6.809,-4.634,-6.435
2026-06-01 14:17:09.794,2206969250,61794,1,0.56665,0.17383,0.94849,27.137,5.939,23.435
2026-06-01 14:17:09.794,2206969250,61794,2,0.96533,0.07104,0.10181,-3.076,-7.023,-22.649
2026-06-01 14:17:09.994,2206969450,61994,1,0.64893,0.08325,0.97656,-22.893,12.824,-17.626
2026-06-01 14:17:09.994,2206969450,61994,2,1.02856,-0.06079,-0.15039,-25.374,5.992,25.42
2026-06-01 14:17:09.194,2206968650,62194,1,0.64136,-0.00391,0.92627,-9.115,11.328,20.802
2026-06-01 14:17:09.194,2206968650,62194,2,0.96777,-0.08179,-0.04907,40.046,10.74,-12.969
2026-06-01 14:17:09.394,2206968850,62394,1,0.71777,0.23999,0.88184,22.664,-29.718,11.198
2026-06-01 14:17:09.394,2206968850,62394,2,1.02515,-0.00854,0.08081,-16.473,-33.267,5.87
2026-06-01 14:17:10.594,2206970050,62594,1,0.65796,0.13403,0.93677,-26.069,-11.206,-22.771
2026-06-01 14:17:10.594,2206970050,62594,2,1.03833,0.0564,0.07007,-31.962,33.733,-15.557
2026-06-01 14:17:10.794,2206970250,62794,1,0.55566,0.27148,0.89551,-58.198,-8.473,-84.13
2026-06-01 14:17:10.794,2206970250,62794,2,0.97583,0.10938,-0.0979,-121.382,-7.656,-1.084
2026-06-01 14:17:10.994,2206970450,62994,1,0.61938,0.12451,0.91235,-49.756,-17.893,-65.611
2026-06-01 14:17:10.994,2206970450,62994,2,1.02051,0.09229,-0.07373,-59.855,6.221,-24.046
2026-06-01 14:17:10.194,2206969650,63194,1,0.75854,0.15894,0.87402,-13.42,-27.244,-39.244
2026-06-01 14:17:10.194,2206969650,63194,2,1.04712,-0.07886,-0.00635,5.756,3.29,8.237
2026-06-01 14:17:10.394,2206969850,63394,1,0.68823,0.17407,0.90625,-9.275,-0.855,-10.405
2026-06-01 14:17:10.394,2206969850,63394,2,1.02881,-0.05469,-0.04443,23.84,9.42,10.122
2026-06-01 14:17:11.594,2206971050,63594,1,0.64844,0.18799,0.89233,2.939,4.733,0.634
2026-06-01 14:17:11.594,2206971050,63594,2,1.04102,-0.00684,-0.03857,9.832,5.069,9.359
2026-06-01 14:17:11.794,2206971250,63794,1,0.63013,0.14209,0.9165,-2.504,5.817,4.046
2026-06-01 14:17:11.794,2206971250,63794,2,1.03296,-0.01245,-0.05957,-3.901,1.878,4.74
2026-06-01 14:17:11.994,2206971450,63994,1,0.6438,0.10791,0.91284,-5.084,-2.863,1.282
2026-06-01 14:17:11.994,2206971450,63994,2,1.03149,-0.02148,-0.05664,-7.115,-1.427,1.977
2026-06-01 14:17:11.194,2206970650,64194,1,0.66772,0.15649,0.90137,-2.725,-13.649,-7.015
2026-06-01 14:17:11.194,2206970650,64194,2,1.09326,0.04907,-0.06519,-2.611,-9.595,1.412
2026-06-01 14:17:11.394,2206970850,64394,1,0.65796,0.20068,0.87476,-5.221,-5.885,-4.084
2026-06-01 14:17:11.394,2206970850,64394,2,1.06519,-0.00684,-0.08594,14.603,7.542,8.985
2026-06-01 14:17:12.594,2206972050,64594,1,0.7002,0.2168,0.87964,6.076,-1.969,4.786
2026-06-01 14:17:12.594,2206972050,64594,2,1.06396,-0.01294,-0.04004,11.824,3.344,3.809
2026-06-01 14:17:12.794,2206972250,64794,1,0.65503,0.18311,0.87061,2.0,4.534,-1.053
2026-06-01 14:17:12.794,2206972250,64794,2,1.03296,0.01514,-0.11035,-0.71,1.282,-0.573
2026-06-01 14:17:12.994,2206972450,64994,1,0.63672,0.23828,0.89697,-1.45,2.718,-9.634
2026-06-01 14:17:12.994,2206972450,64994,2,1.03711,0.09595,-0.03223,1.779,2.542,5.176
2026-06-01 14:17:12.194,2206971650,65194,1,0.59106,0.29614,0.88892,-46.321,-0.382,-56.382
2026-06-01 14:17:12.194,2206971650,65194,2,1.01318,0.02734,-0.00171,-69.656,12.298,16.0
2026-06-01 14:17:12.394,2206971850,65394,1,0.59814,0.08423,0.88086,-114.214,10.198,-102.87
2026-06-01 14:17:12.394,2206971850,65394,2,1.00903,-0.24585,-0.18091,-154.573,3.015,13.115
2026-06-01 14:17:13.594,2206973050,65594,1,0.58398,-0.10938,0.91895,-24.214,-25.519,-53.939
2026-06-01 14:17:13.594,2206973050,65594,2,0.99414,-0.29614,-0.18091,-58.366,-18.87,-22.366
2026-06-01 14:17:13.794,2206973250,65794,1,0.65991,0.01758,0.89136,1.695,-14.16,-18.771
2026-06-01 14:17:13.794,2206973250,65794,2,1.10034,-0.22388,-0.10059,-23.214,-10.214,-8.145
2026-06-01 14:17:13.994,2206973450,65994,1,0.60742,0.08374,0.81323,-12.687,8.481,-11.435
2026-06-01 14:17:13.994,2206973450,65994,2,1.18579,0.06885,0.08667,29.015,26.206,22.87
2026-06-01 14:17:13.194,2206972650,66194,1,0.62891,0.17407,0.9231,17.229,16.115,11.458
2026-06-01 14:17:13.194,2206972650,66194,2,1.02612,-0.1355,-0.14551,33.015,23.679,-14.634
2026-06-01 14:17:13.394,2206972850,66394,1,0.60864,0.20313,0.86377,46.519,10.573,43.458
2026-06-01 14:17:13.394,2206972850,66394,2,0.99902,0.04663,-0.0293,62.893,6.458,-14.481
2026-06-01 14:17:14.594,2206974050,66594,1,0.64917,0.23877,0.87378,28.695,4.863,43.908
2026-06-01 14:17:14.594,2206974050,66594,2,1.0415,0.03735,-0.0459,43.443,-5.115,-5.366
2026-06-01 14:17:14.794,2206974250,66794,1,0.66113,0.1853,0.86084,17.466,2.267,29.87
2026-06-01 14:17:14.794,2206974250,66794,2,1.06177,0.05884,-0.08545,39.603,0.733,-9.122
2026-06-01 14:17:14.994,2206974450,66994,1,0.71191,0.14844,0.87549,19.0,13.84,21.252
2026-06-01 14:17:14.994,2206974450,66994,2,1.05835,-0.04321,-0.01318,47.908,17.42,2.405
2026-06-01 14:17:14.194,2206973650,67194,1,0.56958,0.31519,0.91602,18.947,28.153,25.969
2026-06-01 14:17:14.194,2206973650,67194,2,0.96826,0.25562,-0.04248,8.679,2.847,5.183
2026-06-01 14:17:14.394,2206973850,67394,1,0.88892,0.24316,0.84619,-40.053,-50.366,-55.878
2026-06-01 14:17:14.394,2206973850,67394,2,0.9624,-0.08081,0.0686,-100.267,-39.397,0.282
2026-06-01 14:17:15.594,2206975050,67594,1,0.65381,0.17773,0.87646,-38.191,-16.534,-58.992
2026-06-01 14:17:15.594,2206975050,67594,2,1.05151,0.09253,-0.10034,-141.679,-34.344,-10.107
2026-06-01 14:17:15.794,2206975250,67794,1,0.71289,0.12573,0.86914,-30.26,-3.275,-34.74
2026-06-01 14:17:15.794,2206975250,67794,2,1.04663,-0.02588,-0.13647,-48.145,-11.779,8.695
2026-06-01 14:17:15.994,2206975450,67994,1,0.72925,0.1228,0.8374,-29.053,-12.13,-36.504
2026-06-01 14:17:15.994,2206975450,67994,2,1.03467,-0.08081,-0.14722,-54.13,-9.931,5.221
2026-06-01 14:17:15.194,2206974650,68194,1,0.7356,0.06128,0.84912,-2.641,0.779,1.198
2026-06-01 14:17:15.194,2206974650,68194,2,1.02563,-0.04468,-0.15674,15.45,1.931,2.534
2026-06-01 14:17:15.394,2206974850,68394,1,0.72241,0.11206,0.85645,21.038,5.618,31.702
2026-06-01 14:17:15.394,2206974850,68394,2,1.03638,0.00684,-0.11084,43.924,7.42,-2.26
2026-06-01 14:17:16.594,2206976050,68594,1,0.70386,0.18237,0.85449,30.435,11.489,36.351
2026-06-01 14:17:16.594,2206976050,68594,2,1.04443,0.08521,-0.04614,42.351,10.382,-3.748
2026-06-01 14:17:16.794,2206976250,68794,1,0.64771,0.18115,0.85767,44.809,19.504,35.664
2026-06-01 14:17:16.794,2206976250,68794,2,1.03125,0.07129,-0.03979,50.008,12.458,-4.237
2026-06-01 14:17:16.994,2206976450,68994,1,0.65625,0.26782,0.84277,23.16,12.42,21.244
2026-06-01 14:17:16.994,2206976450,68994,2,1.03223,0.10205,-0.05566,13.832,0.916,-2.282
2026-06-01 14:17:16.194,2206975650,69194,1,0.67676,0.23657,0.854,1.756,5.458,1.534
2026-06-01 14:17:16.194,2206975650,69194,2,1.02051,0.0979,-0.05347,-3.412,2.504,0.008
2026-06-01 14:17:16.394,2206975850,69394,1,0.6709,0.21777,0.86157,-7.527,-0.069,-10.771
2026-06-01 14:17:16.394,2206975850,69394,2,1.03735,0.0564,-0.05493,-18.183,-2.939,0.817
2026-06-01 14:17:17.594,2206977050,69594,1,0.64917,0.19067,0.86719,-5.321,0.084,-6.908
2026-06-01 14:17:17.594,2206977050,69594,2,1.0271,0.04736,-0.04541,-7.916,-0.878,-1.885
2026-06-01 14:17:17.794,2206977250,69794,1,0.66455,0.19897,0.87305,-4.031,2.443,-5.481
2026-06-01 14:17:17.794,2206977250,69794,2,1.03101,0.04712,-0.07056,-9.069,-0.267,-0.809
2026-06-01 14:17:17.994,2206977450,69994,1,0.66235,0.19189,0.85815,-2.153,0.634,-5.443
2026-06-01 14:17:17.994,2206977450,69994,2,1.01343,0.04517,-0.05933,5.527,0.008,1.504
2026-06-01 14:17:17.194,2206976650,70194,1,0.66357,0.20605,0.87622,0.985,2.26,0.115
2026-06-01 14:17:17.194,2206976650,70194,2,1.02417,0.0647,-0.05737,2.374,0.275,0.71
2026-06-01 14:17:17.394,2206976850,70394,1,0.66553,0.21313,0.8623,-0.191,1.183,0.443
2026-06-01 14:17:17.394,2206976850,70394,2,1.02759,0.05957,-0.05859,-2.679,-0.817,0.641
2026-06-01 14:17:18.638,2206978094,70637,1,0.67529,0.19824,0.87183,-1.511,0.351,-2.168
2026-06-01 14:17:18.638,2206978094,70637,2,1.02588,0.06323,-0.0481,-3.725,-0.359,0.168
2026-06-01 14:17:18.837,2206978293,70837,1,0.68091,0.20654,0.86743,1.13,1.031,-0.725
2026-06-01 14:17:18.837,2206978293,70837,2,1.02759,0.06079,-0.06396,-2.954,0.611,-0.595
2026-06-01 14:17:18.037,2206977493,71037,1,0.67163,0.21606,0.86768,1.137,1.374,-1.618
2026-06-01 14:17:18.037,2206977493,71037,2,1.03076,0.06128,-0.06372,-3.435,0.405,1.595
2026-06-01 14:17:18.237,2206977693,71237,1,0.68384,0.21704,0.85132,-4.168,5.893,-5.13
2026-06-01 14:17:18.237,2206977693,71237,2,1.04004,0.09351,-0.07007,-1.725,3.031,3.809
2026-06-01 14:17:18.437,2206977893,71437,1,0.68286,0.17822,0.86548,-0.389,3.725,-3.206
2026-06-01 14:17:18.437,2206977893,71437,2,1.02173,0.0127,-0.06274,10.962,6.55,0.244
2026-06-01 14:17:19.637,2206979093,71637,1,0.66626,0.19775,0.87036,6.015,11.641,12.313
2026-06-01 14:17:19.637,2206979093,71637,2,1.03198,0.03125,-0.052,21.397,11.466,1.679
2026-06-01 14:17:19.837,2206979293,71837,1,0.61938,0.18774,0.90405,3.405,11.794,8.107
2026-06-01 14:17:19.837,2206979293,71837,2,1.03223,0.06885,-0.01221,-3.374,1.489,3.55
2026-06-01 14:17:19.037,2206978493,72037,1,0.62646,0.17651,0.90234,-5.168,0.351,-5.718
2026-06-01 14:17:19.037,2206978493,72037,2,1.03931,0.07617,-0.02295,-20.893,-2.435,
2026-06-01 14:17:19.237,2206978693,72237,1,0.62964,0.15137,0.91406,-2.885,-2.855,-9.214
2026-06-01 14:17:19.237,2206978693,72237,2,1.12085,-0.05444,0.29272,21.374,35.298,-1.702
2026-06-01 14:17:19.437,2206978893,72437,1,0.64771,0.18311,0.90405,3.588,-1.878,0.191
2026-06-01 14:17:19.437,2206978893,72437,2,1.05811,0.05298,0.07861,-63.252,2.435,-10.527
2026-06-01 14:17:20.637,2206980093,72637,1,0.62915,0.17773,0.89624,-3.634,5.412,-1.214
2026-06-01 14:17:20.637,2206980093,72637,2,0.94336,0.05029,0.0603,19.061,4.748,3.992
2026-06-01 14:17:20.837,2206980293,72837,1,0.61719,0.1748,0.90869,-4.107,4.878,-0.191
2026-06-01 14:17:20.837,2206980293,72837,2,1.00024,0.03467,-0.09399,10.969,-23.099,-1.435
2026-06-01 14:17:20.037,2206979493,73037,1,0.62866,0.14502,0.90771,0.588,0.137,2.328
2026-06-01 14:17:20.037,2206979493,73037,2,1.04272,-0.00122,0.05957,17.473,-4.87,6.191
2026-06-01 14:17:20.241,2206979697,73241,1,0.66772,0.17456,0.88574,-5.511,-2.13,-5.122
2026-06-01 14:17:20.241,2206979697,73241,2,0.97583,-0.0105,0.04102,0.198,6.901,0.908
2026-06-01 14:17:20.441,2206979897,73441,1,0.6709,0.16284,0.87451,-2.481,-3.198,-2.969
2026-06-01 14:17:20.441,2206979897,73441,2,0.99829,-0.0542,0.07153,14.443,13.229,9.191
2026-06-01 14:17:21.641,2206981097,73641,1,0.69678,0.15649,0.87451,3.221,0.397,1.336
2026-06-01 14:17:21.641,2206981097,73641,2,1.03369,-0.00342,0.10498,-3.427,0.664,-1.794
2026-06-01 14:17:21.841,2206981297,73841,1,0.68359,0.14063,0.87549,3.405,4.344,5.481
2026-06-01 14:17:21.841,2206981297,73841,2,1.15088,0.08643,0.09229,-91.359,-15.107,0.649
2026-06-01 14:17:21.041,2206980497,74041,1,0.66016,0.16284,0.86865,9.466,-4.511,9.229
2026-06-01 14:17:21.041,2206980497,74041,2,0.99072,0.00146,0.14063,-82.702,11.382,-14.901
2026-06-01 14:17:21.241,2206980697,74241,1,0.65552,0.18311,0.87671,9.969,4.191,5.237
2026-06-01 14:17:21.241,2206980697,74241,2,0.99658,0.00317,0.16309,5.198,4.267,-0.534
2026-06-01 14:17:21.441,2206980897,74441,1,0.68433,0.17578,0.86255,1.885,1.282,-1.641
2026-06-01 14:17:21.441,2206980897,74441,2,1.01392,0.05151,0.13403,5.985,7.145,-3.336
2026-06-01 14:17:22.641,2206982097,74641,1,0.70239,0.20239,0.86108,3.466,0.557,0.916
2026-06-01 14:17:22.641,2206982097,74641,2,1.0083,0.04858,0.10229,20.435,1.328,2.137
2026-06-01 14:17:22.841,2206982297,74841,1,0.67749,0.20435,0.84326,2.145,-9.366,-1.595
2026-06-01 14:17:22.841,2206982297,74841,2,1.05884,0.06738,0.06372,-6.695,-12.748,1.489
2026-06-01 14:17:22.041,2206981497,75041,1,0.68091,0.21069,0.84839,-3.427,-2.244,-2.863
2026-06-01 14:17:22.041,2206981497,75041,2,1.0,0.02295,0.10474,-20.924,12.588,6.504
2026-06-01 14:17:22.241,2206981697,75241,1,0.73755,0.19678,0.84448,-7.74,-1.031,-5.985
2026-06-01 14:17:22.241,2206981697,75241,2,1.02344,0.01001,0.06738,-37.878,-14.183,-4.397
2026-06-01 14:17:22.441,2206981897,75441,1,0.69531,0.20117,0.84546,-4.817,7.634,-6.344
2026-06-01 14:17:22.441,2206981897,75441,2,1.04004,0.03613,-0.00269,-16.565,-2.321,-0.099
2026-06-01 14:17:23.641,2206983097,75641,1,0.70068,0.19019,0.85254,3.191,4.42,3.382
2026-06-01 14:17:23.641,2206983097,75641,2,1.02979,-0.01001,0.08691,16.84,7.962,0.336
2026-06-01 14:17:23.841,2206983297,75841,1,0.70898,0.18579,0.85181,-5.641,1.13,-2.0
2026-06-01 14:17:23.841,2206983297,75841,2,1.00513,0.00366,0.07715,-0.45,-1.282,5.053
2026-06-01 14:17:23.041,2206982497,76041,1,0.69873,0.2002,0.83765,3.473,3.947,3.405
2026-06-01 14:17:23.041,2206982497,76041,2,1.02661,0.03442,0.01074,-10.244,-2.481,-1.374
2026-06-01 14:17:23.241,2206982697,76241,1,0.70923,0.1875,0.83838,-1.901,2.359,0.779
2026-06-01 14:17:23.241,2206982697,76241,2,1.02832,0.01196,0.03931,-13.855,-4.29,-1.618
2026-06-01 14:17:23.441,2206982897,76441,1,0.68994,0.18286,0.86548,0.534,2.168,0.656
2026-06-01 14:17:23.441,2206982897,76441,2,1.00049,0.01465,0.05566,18.626,4.855,2.328
2026-06-01 14:17:24.641,2206984097,76641,1,0.74585,0.15601,0.83276,-1.542,-0.046,-4.053
2026-06-01 14:17:24.641,2206984097,76641,2,1.01538,0.00659,0.08008,0.87,2.099,1.435
2026-06-01 14:17:24.846,2206984302,76845,1,0.69678,0.18213,0.8645,-1.916,2.733,-5.817
2026-06-01 14:17:24.846,2206984302,76845,2,1.04004,0.03296,-0.00146,13.405,3.405,4.496
2026-06-01T14:17:25.046162,,,,,,,,,
2026-06-01 14:17:24.045,2206983501,77045,1,0.69604,0.15308,0.84351,0.176,2.221,3.176
2026-06-01 14:17:24.045,2206983501,77045,2,1.04199,-0.02661,0.02808,-7.603,-10.076,-3.153
2026-06-01 14:17:24.310,2206983766,77310,1,0.71411,0.15771,0.84253,11.389,-3.008,10.489
2026-06-01 14:17:24.310,2206983766,77310,2,1.0293,0.01489,0.02295,1.702,-13.824,-2.145
2026-06-01 14:17:24.510,2206983966,77510,1,0.76563,0.17529,0.81665,9.893,-1.229,8.221
2026-06-01 14:17:24.510,2206983966,77510,2,1.0376,0.06201,-0.03809,-16.153,-5.817,-2.336
2026-06-01 14:17:25.710,2206985166,77710,1,0.73462,0.17383,0.8269,-1.015,3.916,-3.817
2026-06-01 14:17:25.710,2206985166,77710,2,1.02734,0.04443,-0.00781,2.534,1.679,3.183
2026-06-01 14:17:25.946,2206985402,77946,1,0.73242,0.18823,0.82202,-1.435,2.519,-5.053
2026-06-01 14:17:25.946,2206985402,77946,2,1.02124,0.03613,0.01758,-3.481,2.137,1.061
2026-06-01 14:17:25.146,2206984602,78146,1,0.70679,0.18237,0.83057,-2.87,2.038,-3.641
2026-06-01 14:17:25.146,2206984602,78146,2,1.02539,0.03345,-0.00854,-1.817,-0.015,-0.405
2026-06-01 14:17:25.346,2206984802,78346,1,0.7146,0.19653,0.83472,0.687,0.87,-1.107
2026-06-01 14:17:25.346,2206984802,78346,2,1.02954,0.02661,0.00342,-1.969,-2.473,1.191
2026-06-01 14:17:26.546,2206986002,78546,1,0.71875,0.19482,0.83789,1.359,1.244,-0.55
2026-06-01 14:17:26.546,2206986002,78546,2,1.03027,0.03491,-0.00122,-2.557,-0.29,-1.649
2026-06-01 14:17:26.746,2206986202,78746,1,0.72119,0.20166,0.81323,-0.45,0.779,-2.389
2026-06-01 14:17:26.746,2206986202,78746,2,1.02881,0.03369,-0.00562,-0.443,1.542,1.275
2026-06-01 14:17:26.946,2206986402,78946,1,0.72095,0.20337,0.82837,-0.542,2.458,-2.221
2026-06-01 14:17:26.946,2206986402,78946,2,1.02271,0.02441,-0.01709,-1.137,0.45,1.496
2026-06-01 14:17:26.146,2206985602,79146,1,0.72705,0.19238,0.82349,0.779,1.977,-0.344
2026-06-01 14:17:26.146,2206985602,79146,2,1.03125,0.03442,-0.0105,0.183,1.298,-0.504
2026-06-01 14:17:26.346,2206985802,79346,1,0.71802,0.19849,0.83179,0.656,2.29,-0.779
2026-06-01 14:17:26.346,2206985802,79346,2,1.02686,0.03394,-0.01343,0.473,0.695,1.443
2026-06-01 14:17:27.546,2206987002,79546,1,0.7124,0.19824,0.83008,1.328,1.962,-0.924
2026-06-01 14:17:27.546,2206987002,79546,2,1.03027,0.03784,-0.01074,-1.344,0.71,
2026-06-01 14:17:27.746,2206987202,79746,1,0.71631,0.20459,0.8313,-0.527,0.885,-1.069
2026-06-01 14:17:27.746,2206987202,79746,2,1.02734,0.02783,-0.01416,-0.344,1.053,0.145
2026-06-01 14:17:27.946,2206987402,79946,1,0.72583,0.19775,0.82813,0.58,2.084,-0.198
2026-06-01 14:17:27.946,2206987402,79946,2,1.03125,0.02637,-0.00122,2.16,2.489,1.336
2026-06-01 14:17:27.298,2206986754,80298,1,0.71069,0.19702,0.83447,0.13,2.87,-0.664
2026-06-01 14:17:27.298,2206986754,80298,2,1.03662,0.02417,-0.00146,-0.023,1.298,0.573
2026-06-01 14:17:27.510,2206986966,80510,1,0.70972,0.1958,0.83423,0.87,2.885,0.336
2026-06-01 14:17:27.510,2206986966,80510,2,1.02173,0.03076,0.0061,0.321,1.527,0.718
2026-06-01 14:17:28.710,2206988166,80710,1,0.71216,0.20508,0.8374,0.863,2.069,-0.733
2026-06-01 14:17:28.710,2206988166,80710,2,1.02808,0.03345,0.00928,-0.817,0.359,0.893
2026-06-01 14:17:28.910,2206988366,80910,1,0.71631,0.20898,0.82373,1.191,2.107,0.893
2026-06-01 14:17:28.910,2206988366,80910,2,1.0459,0.00317,0.01709,3.58,4.595,-1.641
2026-06-01 14:17:28.110,2206987566,81110,1,0.66089,0.22583,0.85352,15.954,11.092,11.412
2026-06-01 14:17:28.110,2206987566,81110,2,1.02881,0.04297,0.0144,-2.786,1.863,-8.733
2026-06-01 14:17:28.360,2206987816,81359,1,0.66211,0.20044,0.83813,2.84,-4.084,-14.176
2026-06-01 14:17:28.360,2206987816,81359,2,1.05322,-0.01343,0.00586,-19.397,-11.435,-6.618
2026-06-01 14:17:29.559,2206989015,81559,1,0.71826,0.2002,0.83398,-5.0,-3.305,-12.595
2026-06-01 14:17:29.559,2206989015,81559,2,1.02441,0.00684,-0.02026,-4.527,-5.099,-1.275
2026-06-01 14:17:29.759,2206989215,81759,1,0.74512,0.25244,0.81567,0.313,1.809,0.321
2026-06-01 14:17:29.759,2206989215,81759,2,1.0332,0.03613,-0.01904,8.527,3.336,1.42
2026-06-01 14:17:29.959,2206989415,81959,1,0.70435,0.25977,0.81934,-7.092,2.137,-3.26
2026-06-01 14:17:29.959,2206989415,81959,2,1.03003,0.04053,-0.03931,-3.985,1.336,4.649
2026-06-01 14:17:29.159,2206988615,82159,1,0.69141,0.20972,0.823,-2.656,-2.275,0.786
2026-06-01 14:17:29.159,2206988615,82159,2,1.02856,0.05225,-0.04907,-2.053,-5.893,0.931
2026-06-01 14:17:29.390,2206988846,82390,1,0.7439,0.21777,0.81787,3.466,0.87,0.679
2026-06-01 14:17:29.390,2206988846,82390,2,1.03223,0.03369,-0.04102,-8.023,-0.359,-0.603
2026-06-01 14:17:30.590,2206990046,82590,1,0.73608,0.2146,0.80298,-1.45,2.198,-3.427
2026-06-01 14:17:30.590,2206990046,82590,2,1.03149,0.03223,-0.04492,2.0,3.122,1.519
2026-06-01 14:17:30.813,2206990269,82812,1,0.729,0.21851,0.79907,0.878,4.687,0.397
2026-06-01 14:17:30.813,2206990269,82812,2,1.03467,0.03418,-0.03589,-0.313,1.198,0.847
2026-06-01 14:17:30.012,2206989468,83012,1,0.71533,0.21313,0.81738,1.305,2.374,0.916
2026-06-01 14:17:30.012,2206989468,83012,2,1.02612,0.0376,-0.04175,-0.45,0.389,0.16
2026-06-01 14:17:30.212,2206989668,83212,1,0.72949,0.21948,0.82446,-2.664,2.374,-3.466
2026-06-01 14:17:30.212,2206989668,83212,2,1.01685,0.03931,-0.0354,-5.275,-0.397,3.229
2026-06-01 14:17:30.412,2206989868,83412,1,0.70068,0.22363,0.84033,-34.229,-4.74,-24.779
2026-06-01 14:17:30.412,2206989868,83412,2,1.02979,0.0061,-0.07764,-23.87,-3.313,1.344
2026-06-01 14:17:31.612,2206991068,83612,1,0.75659,0.18604,0.80786,-15.45,-10.977,-22.321
2026-06-01 14:17:31.612,2206991068,83612,2,1.02563,-0.01123,-0.06226,-16.229,-0.237,6.855
2026-06-01 14:17:31.812,2206991268,83812,1,0.73853,0.16675,0.84277,-4.511,0.321,-3.313
2026-06-01 14:17:31.812,2206991268,83812,2,1.02686,-0.09277,-0.07715,-5.359,11.733,2.748
2026-06-01 14:17:31.012,2206990468,84012,1,0.73755,0.12573,0.83325,2.084,11.183,8.13
2026-06-01 14:17:31.012,2206990468,84012,2,1.03638,-0.04517,-0.0293,18.244,10.817,5.191
2026-06-01 14:17:31.212,2206990668,84212,1,0.71777,0.1416,0.84302,-4.26,13.756,12.718
2026-06-01 14:17:31.212,2206990668,84212,2,1.03491,-0.09082,-0.00195,6.916,10.26,2.382
2026-06-01 14:17:31.412,2206990868,84412,1,0.64111,0.14185,0.88452,8.008,46.344,32.84
2026-06-01 14:17:31.412,2206990868,84412,2,1.04053,0.23315,0.02881,56.916,27.947,-7.718
2026-06-01 14:17:32.612,2206992068,84612,1,0.61377,0.29224,0.86572,11.13,2.641,16.74
2026-06-01 14:17:32.612,2206992068,84612,2,1.01855,0.17188,0.00342,4.511,-7.573,2.962
2026-06-01 14:17:32.812,2206992268,84812,1,0.98291,0.21655,1.104,-0.137,-40.321,-10.45
2026-06-01 14:17:32.812,2206992268,84812,2,1.07715,0.21899,0.27881,81.718,2.595,14.16
2026-06-01 14:17:32.022,2206991478,85022,1,0.5564,-0.03857,0.90259,-15.893,2.626,-20.626
2026-06-01 14:17:32.022,2206991478,85022,2,0.97144,-0.17188,-0.04834,18.336,5.389,29.107
2026-06-01 14:17:32.222,2206991678,85222,1,0.68286,0.01074,0.88574,16.458,-8.183,17.756
2026-06-01 14:17:32.222,2206991678,85222,2,0.9856,-0.16992,0.01685,59.168,-1.939,16.328
2026-06-01 14:17:32.422,2206991878,85422,1,0.75342,0.0708,0.78955,35.099,14.985,48.565
2026-06-01 14:17:32.422,2206991878,85422,2,0.99561,-0.15259,-0.09375,31.908,-1.137,0.069
2026-06-01 14:17:33.622,2206993078,85622,1,0.77686,-0.01221,0.7854,-5.763,-4.565,13.359
2026-06-01 14:17:33.622,2206993078,85622,2,0.99512,-0.12183,-0.16211,-7.618,5.504,-9.351
2026-06-01 14:17:33.822,2206993278,85822,1,0.66919,-0.01855,0.89429,10.16,-0.023,12.038
2026-06-01 14:17:33.822,2206993278,85822,2,1.05493,-0.05518,0.17993,122.595,15.321,26.481
2026-06-01 14:17:33.022,2206992478,86022,1,0.63403,0.24023,0.89014,41.939,-0.885,49.618
2026-06-01 14:17:33.022,2206992478,86022,2,0.99048,0.03613,0.06274,44.015,13.412,-11.626
2026-06-01 14:17:33.222,2206992678,86222,1,0.73193,0.14478,0.83447,43.153,-3.695,24.916
2026-06-01 14:17:33.222,2206992678,86222,2,1.00049,0.12915,0.02734,34.351,-2.496,-10.985
2026-06-01 14:17:33.422,2206992878,86422,1,0.70923,0.30469,0.82251,-9.305,2.71,-24.282
2026-06-01 14:17:33.422,2206992878,86422,2,0.9751,0.18506,-0.06494,-6.053,-5.122,25.771
2026-06-01 14:17:34.622,2206994078,86622,1,0.69458,0.28394,0.77246,1.084,7.0,13.046
2026-06-01 14:17:34.622,2206994078,86622,2,1.24121,0.32129,-0.12866,53.489,35.969,-16.504
2026-06-01 14:17:34.822,2206994278,86822,1,0.65234,0.09253,0.82031,8.527,24.252,23.527
2026-06-01 14:17:34.822,2206994278,86822,2,1.1123,-0.10547,0.08569,-11.183,49.557,1.885
2026-06-01 14:17:34.022,2206993478,87022,1,0.54639,-0.04395,0.86035,3.0,41.534,22.0
2026-06-01 14:17:34.022,2206993478,87022,2,0.88794,-0.1084,-0.1543,-22.198,7.725,15.847
2026-06-01 14:17:34.222,2206993678,87222,1,0.52588,-0.00732,0.94702,16.16,24.435,13.977
2026-06-01 14:17:34.222,2206993678,87222,2,0.95337,-0.01489,-0.17944,64.397,9.29,-1.847
2026-06-01 14:17:34.422,2206993878,87422,1,0.62451,0.18335,0.97559,19.45,-36.061,-10.374
2026-06-01 14:17:34.422,2206993878,87422,2,1.1311,-0.27173,-0.04468,32.84,-3.183,29.389
2026-06-01 14:17:35.622,2206995078,87622,1,0.54028,0.26685,1.00903,9.183,24.58,24.519
2026-06-01 14:17:35.622,2206995078,87622,2,1.03809,0.09082,-0.11914,-51.534,0.351,-13.725
2026-06-01 14:17:35.822,2206995278,87822,1,0.47583,0.20508,0.93921,-33.687,-16.405,-55.359
2026-06-01 14:17:35.822,2206995278,87822,2,1.03589,0.02832,0.0188,-67.374,-6.656,-6.328
2026-06-01 14:17:35.025,2206994481,88024,1,0.66748,0.14038,0.92358,-34.107,-20.74,-65.718
2026-06-01 14:17:35.025,2206994481,88024,2,0.98047,-0.1665,0.02637,-53.298,-2.504,-0.702
2026-06-01 14:17:35.224,2206994680,88224,1,0.67188,-0.0271,0.96484,-25.107,4.634,-35.496
2026-06-01 14:17:35.224,2206994680,88224,2,0.98828,-0.10132,0.10156,90.229,28.374,33.534
2026-06-01 14:17:35.424,2206994880,88424,1,0.58813,0.09937,0.95654,-18.046,-9.076,-11.893
2026-06-01 14:17:35.424,2206994880,88424,2,0.98071,-0.04785,-0.04761,11.275,4.641,19.458
2026-06-01 14:17:36.624,2206996080,88624,1,0.65601,-0.00781,0.91089,-7.954,-20.107,-21.962
2026-06-01 14:17:36.624,2206996080,88624,2,1.05127,-0.12646,-0.08667,0.16,-6.527,-8.305
2026-06-01 14:17:36.824,2206996280,88824,1,0.70972,0.08521,0.85303,26.656,7.244,18.679
2026-06-01 14:17:36.824,2206996280,88824,2,1.03638,-0.0835,-0.09082,56.641,6.527,-4.076
2026-06-01 14:17:36.024,2206995480,89024,1,0.68945,0.14795,0.73462,33.588,21.748,36.221
2026-06-01 14:17:36.024,2206995480,89024,2,1.22388,0.22437,0.0791,115.099,31.924,31.282
2026-06-01 14:17:36.224,2206995680,89224,1,0.69751,0.26172,0.81372,-19.916,21.076,9.45
2026-06-01 14:17:36.224,2206995680,89224,2,0.8479,0.19604,-0.05249,-41.084,-4.275,-11.267
2026-06-01 14:17:36.424,2206995880,89424,1,0.69214,0.2749,0.91724,-19.328,-12.267,-38.611
2026-06-01 14:17:36.424,2206995880,89424,2,0.96118,0.16504,0.04077,11.534,1.611,-2.763
2026-06-01 14:17:37.624,2206997080,89624,1,0.73242,0.08594,1.18945,5.206,-17.969,3.473
2026-06-01 14:17:37.624,2206997080,89624,2,1.13062,-0.05029,0.08545,-58.313,-1.893,-25.748
2026-06-01 14:17:37.824,2206997280,89824,1,0.42773,0.13867,0.79883,-83.565,-11.153,-107.046
2026-06-01 14:17:37.824,2206997280,89824,2,0.7373,-0.19727,-0.33032,-161.58,-15.855,22.824
2026-06-01 14:17:37.024,2206996480,90024,1,0.77393,0.02173,1.00391,-26.389,-10.069,-70.901
2026-06-01 14:17:37.024,2206996480,90024,2,0.96484,-0.14087,-0.06299,50.16,11.405,24.374
2026-06-01 14:17:37.224,2206996680,90224,1,0.63354,0.35132,0.80371,-48.298,-10.183,-72.87
2026-06-01 14:17:37.224,2206996680,90224,2,0.9563,0.15698,-0.06909,-250.137,-20.611,-4.466
2026-06-01 14:17:37.424,2206996880,90424,1,0.55273,0.26758,0.7373,-59.496,5.718,-105.924
2026-06-01 14:17:37.424,2206996880,90424,2,1.99994,-0.65479,-0.19556,-250.137,40.504,-44.595
2026-06-01 14:17:38.624,2206998080,90624,1,0.64575,0.11865,0.81934,-17.992,-3.817,-65.382
2026-06-01 14:17:38.624,2206998080,90624,2,0.98682,-0.04419,-0.27832,-195.901,-19.832,-9.573
2026-06-01 14:17:38.824,2206998280,90824,1,0.85913,0.11768,1.40918,-30.015,-60.382,-61.076
2026-06-01 14:17:38.824,2206998280,90824,2,0.94287,-0.17041,0.04272,-137.053,-31.122,-11.969
2026-06-01 14:17:38.024,2206997480,91024,1,0.60669,0.0249,1.00513,0.588,2.565,20.366
2026-06-01 14:17:38.024,2206997480,91024,2,0.98608,-0.1001,0.17773,107.366,16.519,13.366
2026-06-01 14:17:38.224,2206997680,91224,1,0.68628,-0.08813,0.88989,-19.115,-36.015,-0.298
2026-06-01 14:17:38.224,2206997680,91224,2,1.16626,-0.11621,-0.18286,128.893,2.878,7.756
2026-06-01 14:17:38.424,2206997880,91424,1,0.74365,0.00928,0.76245,60.359,15.466,72.389
2026-06-01 14:17:38.424,2206997880,91424,2,0.97876,-0.09204,-0.18311,99.534,-4.191,-1.191
2026-06-01 14:17:39.624,2206999080,91624,1,0.67017,0.0022,0.7771,47.176,-0.947,75.695
2026-06-01 14:17:39.624,2206999080,91624,2,1.14185,-0.20068,-0.15845,35.58,-39.038,12.084
2026-06-01 14:17:39.910,2206999366,91910,1,0.51123,0.13428,0.80273,45.672,40.405,106.771
2026-06-01 14:17:39.910,2206999366,91910,2,0.91602,0.23389,-0.06738,59.015,7.588,-44.237
2026-06-01 14:17:39.110,2206998566,92110,1,0.65405,0.21509,0.86084,27.26,0.473,12.885
2026-06-01 14:17:39.110,2206998566,92110,2,1.09009,-0.0542,-0.11938,154.023,-13.519,41.305
2026-06-01 14:17:39.310,2206998766,92310,1,0.64502,0.04199,0.7373,48.634,32.42,69.679
2026-06-01 14:17:39.310,2206998766,92310,2,1.1875,0.08765,-0.24463,78.084,1.412,-15.725
2026-06-01 14:17:39.510,2206998966,92510,1,0.68433,0.13184,0.69141,29.656,-3.221,-3.641
2026-06-01 14:17:39.510,2206998966,92510,2,1.10034,-0.09619,-0.0415,-16.611,-4.74,-0.679
2026-06-01 14:17:40.710,2207000166,92710,1,0.76904,0.19116,0.78589,-39.725,-5.183,-77.901
2026-06-01 14:17:40.710,2207000166,92710,2,0.93921,0.14771,-0.08667,-126.977,0.725,-20.107
2026-06-01 14:17:40.910,2207000366,92910,1,0.63647,0.37134,0.87476,-71.435,-28.198,-117.634
2026-06-01 14:17:40.910,2207000366,92910,2,1.06079,0.26294,0.01563,-108.168,9.206,-18.359
2026-06-01 14:17:40.110,2206999566,93110,1,0.56836,0.07642,0.99731,-126.176,-6.344,-160.58
2026-06-01 14:17:40.110,2206999566,93110,2,1.01538,-0.07568,0.01025,-138.786,55.191,-22.183
2026-06-01 14:17:40.310,2206999766,93310,1,0.56226,-0.02026,0.83643,-68.206,-39.031,-125.855
2026-06-01 14:17:40.310,2206999766,93310,2,1.02441,-0.12817,-0.1897,-170.145,-26.183,-32.359
2026-06-01 14:17:40.510,2206999966,93510,1,0.76758,0.06445,0.83276,-34.435,-35.183,-65.435
2026-06-01 14:17:40.510,2206999966,93510,2,1.03052,-0.23828,0.06152,-19.092,18.053,-3.931
2026-06-01 14:17:41.710,2207001166,93710,1,0.61914,0.21118,0.83325,-10.924,15.809,11.084
2026-06-01 14:17:41.710,2207001166,93710,2,1.11157,0.19653,-0.01929,104.519,28.061,40.267
2026-06-01 14:17:41.910,2207001366,93910,1,0.59131,0.22729,0.83569,-4.786,-8.511,-17.282
2026-06-01 14:17:41.910,2207001366,93910,2,0.8916,0.15576,-0.03662,-33.847,-7.763,-12.42
2026-06-01 14:17:41.110,2207000566,94110,1,0.7229,0.1377,0.84277,16.42,-23.397,9.008
2026-06-01 14:17:41.110,2207000566,94110,2,1.04224,-0.08521,0.04834,-56.084,2.397,-9.42
2026-06-01 14:17:41.310,2207000766,94310,1,0.59033,0.19604,0.81787,16.183,12.954,19.489
2026-06-01 14:17:41.310,2207000766,94310,2,1.12256,-0.12402,-0.09863,-94.198,-27.321,-27.779
2026-06-01 14:17:41.510,2207000966,94510,1,0.62793,0.17188,0.8855,12.718,-0.397,9.221
2026-06-01 14:17:41.510,2207000966,94510,2,0.90991,0.10059,-0.03394,-25.863,-10.656,-32.87
2026-06-01 14:17:42.710,2207002166,94710,1,0.70166,0.40601,0.86963,-17.695,22.023,-23.023
2026-06-01 14:17:42.710,2207002166,94710,2,1.01196,-0.00586,-0.08862,-28.969,-0.931,16.466
2026-06-01 14:17:42.919,2207002375,94919,1,0.61865,0.12231,0.90332,-32.756,-0.145,-23.809
2026-06-01 14:17:42.919,2207002375,94919,2,1.05225,-0.07471,-0.03027,-69.412,8.26,-2.519
2026-06-01 14:17:42.119,2207001575,95119,1,0.63232,0.03296,0.83301,-12.214,-5.58,-3.824
2026-06-01 14:17:42.119,2207001575,95119,2,1.29126,-0.11963,-0.18726,1.748,-22.221,1.053
2026-06-01 14:17:42.319,2207001775,95319,1,0.65552,0.09912,0.85034,19.122,0.992,10.176
2026-06-01 14:17:42.319,2207001775,95319,2,1.09644,-0.02197,-0.06323,-2.397,31.725,-18.351
2026-06-01 14:17:42.529,2207001985,95529,1,0.75977,0.04932,0.86743,-13.145,12.107,-3.275
2026-06-01 14:17:42.529,2207001985,95529,2,0.98218,-0.08105,0.03271,70.298,27.435,41.137
2026-06-01 14:17:43.729,2207003185,95729,1,0.61987,-0.09302,0.75562,-38.511,-5.0,-18.733
2026-06-01 14:17:43.729,2207003185,95729,2,1.22241,-0.09253,-0.09448,-14.458,-14.282,22.603
2026-06-01 14:17:43.929,2207003385,95929,1,0.58545,0.09839,1.00586,9.847,22.771,12.031
2026-06-01 14:17:43.929,2207003385,95929,2,0.85889,0.04712,-0.09497,-2.893,37.374,-67.939
2026-06-01 14:17:43.130,2207002586,96129,1,0.59033,0.21631,0.93286,34.634,8.863,45.42
2026-06-01 14:17:43.130,2207002586,96129,2,0.98364,0.13135,-0.00488,97.679,29.466,1.55
2026-06-01 14:17:43.329,2207002785,96329,1,0.63428,0.28662,0.88354,14.664,-39.511,8.679
2026-06-01 14:17:43.329,2207002785,96329,2,1.76025,-0.05322,0.19189,-18.817,-50.427,-11.992
2026-06-01 14:17:43.529,2207002985,96529,1,0.49072,-0.00708,0.87964,75.153,18.145,80.466
2026-06-01 14:17:43.529,2207002985,96529,2,1.06299,-0.12598,-0.16064,99.313,-19.168,19.298
2026-06-01 14:17:44.729,2207004185,96729,1,0.73828,0.11743,0.74927,111.687,29.817,165.74
2026-06-01 14:17:44.729,2207004185,96729,2,0.95557,-0.03052,-0.25122,211.42,-9.206,15.153
2026-06-01 14:17:44.929,2207004385,96929,1,0.65259,0.13501,0.69214,73.511,22.092,130.489
2026-06-01 14:17:44.929,2207004385,96929,2,1.58789,0.15039,-0.02417,165.901,29.527,28.931
2026-06-01 14:17:44.129,2207003585,97129,1,0.54395,0.11353,0.92114,27.267,20.16,64.779
2026-06-01 14:17:44.129,2207003585,97129,2,1.00562,0.13208,-0.17578,175.405,-1.359,-5.099
2026-06-01 14:17:44.329,2207003785,97329,1,0.53516,0.26709,1.13208,86.023,-19.985,65.916
2026-06-01 14:17:44.329,2207003785,97329,2,0.81567,-0.18726,-0.03662,83.16,-42.947,8.603
2026-06-01 14:17:44.529,2207003985,97529,1,0.66016,0.14282,0.95361,29.168,7.817,15.931
2026-06-01 14:17:44.529,2207003985,97529,2,1.02173,0.07642,0.03589,146.153,13.718,45.191
2026-06-01 14:17:45.729,2207005185,97729,1,0.58813,-0.02734,0.83301,37.305,-8.74,53.015
2026-06-01 14:17:45.729,2207005185,97729,2,1.18311,0.12305,0.2251,96.008,3.282,-8.817
2026-06-01 14:17:45.929,2207005385,97929,1,0.60913,0.19678,0.9104,14.603,5.412,32.885
2026-06-01 14:17:45.929,2207005385,97929,2,1.06201,0.26904,0.1416,26.931,-12.252,-14.282
2026-06-01 14:17:45.129,2207004585,98129,1,0.52026,0.13428,0.98975,-0.863,3.122,3.748
2026-06-01 14:17:45.129,2207004585,98129,2,1.04443,0.0979,-0.00537,6.282,-16.992,-1.969
2026-06-01 14:17:45.329,2207004785,98329,1,0.54419,0.12305,0.97119,7.672,-1.748,-4.145
2026-06-01 14:17:45.329,2207004785,98329,2,1.05127,-0.00024,-0.05542,-46.527,-15.29,-17.0
2026-06-01 14:17:45.529,2207004985,98529,1,0.58374,0.17651,0.94922,6.145,-1.924,-7.084
2026-06-01 14:17:45.529,2207004985,98529,2,1.03955,0.01807,-0.05444,-4.878,-4.878,-5.786
2026-06-01 14:17:46.729,2207006185,98729,1,0.59399,0.16699,0.92432,5.29,-3.557,1.298
2026-06-01 14:17:46.729,2207006185,98729,2,1.02808,-0.00513,-0.02441,-8.504,-3.855,-8.969
2026-06-01 14:17:46.929,2207006385,98929,1,0.57642,0.19946,0.90942,8.87,-20.076,8.893
2026-06-01 14:17:46.929,2207006385,98929,2,1.0127,0.03882,-0.05957,-11.504,-10.496,-6.504
2026-06-01 14:17:46.129,2207005585,99129,1,0.73169,0.19946,0.84912,-10.763,-27.084,-18.099
2026-06-01 14:17:46.129,2207005585,99129,2,1.04077,0.04028,-0.08716,-44.969,-24.275,-6.87
2026-06-01 14:17:46.369,2207005825,99369,1,0.74976,0.15381,0.83862,-13.588,-2.756,-23.298
2026-06-01 14:17:46.369,2207005825,99369,2,1.03442,-0.00098,-0.18848,-12.649,-1.809,2.008
2026-06-01 14:17:47.569,2207007025,99569,1,0.72803,0.21558,0.83984,-0.008,5.802,-11.832
2026-06-01 14:17:47.569,2207007025,99569,2,1.02832,0.01514,-0.17432,-3.565,9.931,3.542
2026-06-01 14:17:47.769,2207007225,99769,1,0.7229,0.19922,0.83813,-3.473,2.321,-11.053
2026-06-01 14:17:47.769,2207007225,99769,2,1.01367,0.00244,-0.14282,-18.336,4.893,-3.954
2026-06-01 14:17:47.969,2207007425,99969,1,0.67603,0.21094,0.8562,-8.702,2.26,-1.565
2026-06-01 14:17:47.969,2207007425,99969,2,1.02295,0.02539,-0.12256,-13.298,-0.954,-0.122
2026-06-01 14:17:47.169,2207006625,100169,1,0.72388,0.18433,0.82251,-6.931,-1.275,-4.779
2026-06-01 14:17:47.169,2207006625,100169,2,1.03198,-0.00879,-0.12622,-8.542,3.389,-0.511
2026-06-01 14:17:47.369,2207006825,100369,1,0.70703,0.1748,0.83618,-0.794,2.802,1.626
2026-06-01 14:17:47.369,2207006825,100369,2,1.02222,-0.00171,-0.19629,11.237,-1.611,9.748
2026-06-01 14:17:48.569,2207008025,100569,1,0.75269,0.14819,0.81836,13.412,6.282,16.947
2026-06-01 14:17:48.569,2207008025,100569,2,0.92798,-0.06836,-0.14014,30.954,3.321,0.198
2026-06-01 14:17:48.769,2207008225,100769,1,0.71851,0.21826,0.86963,21.405,54.962,51.359
2026-06-01 14:17:48.769,2207008225,100769,2,1.12744,0.16846,-0.05176,94.115,52.977,14.511
2026-06-01 14:17:48.969,2207008425,100969,1,0.49829,0.25928,0.85522,4.458,17.145,-1.466
2026-06-01 14:17:48.969,2207008425,100969,2,1.16284,0.04639,0.05493,-38.756,-10.069,-4.45
2026-06-01 14:17:48.169,2207007625,101169,1,0.46143,0.1311,0.98975,15.557,7.176,8.611
2026-06-01 14:17:48.169,2207007625,101169,2,1.04126,-0.00513,0.09204,-19.504,9.145,-16.985
2026-06-01 14:17:48.369,2207007825,101369,1,0.53369,0.08496,0.93604,-9.412,-1.298,-25.878
2026-06-01 14:17:48.369,2207007825,101369,2,1.00732,-0.11768,0.07227,-3.702,1.145,0.565
2026-06-01 14:17:49.569,2207009025,101569,1,0.49219,0.03003,1.02588,-8.992,4.466,-12.305
2026-06-01 14:17:49.569,2207009025,101569,2,0.99365,-0.1311,0.04395,-22.313,-5.496,-1.855
2026-06-01 14:17:49.769,2207009225,101769,1,0.57544,0.06982,0.96362,-10.145,-26.557,-9.748
2026-06-01 14:17:49.769,2207009225,101769,2,1.06616,-0.12085,0.0188,-47.008,-29.092,5.519
2026-06-01 14:17:49.969,2207009425,101969,1,0.65649,0.09204,0.89185,8.366,-1.878,20.115
2026-06-01 14:17:49.969,2207009425,101969,2,1.03052,-0.02856,0.01099,32.092,6.695,16.053
2026-06-01 14:17:49.169,2207008625,102169,1,0.58569,0.19873,0.92822,8.389,3.847,21.779
2026-06-01 14:17:49.169,2207008625,102169,2,1.01343,0.03271,-0.02734,-20.137,-14.405,-0.977
2026-06-01 14:17:49.369,2207008825,102369,1,0.63696,0.18872,0.91528,-19.015,-14.832,-29.122
2026-06-01 14:17:49.369,2207008825,102369,2,1.03564,0.00415,-0.06519,-39.603,-10.015,0.122
2026-06-01 14:17:50.569,2207010025,102569,1,0.69629,0.12524,0.87671,-15.489,-8.87,-36.962
2026-06-01 14:17:50.569,2207010025,102569,2,1.05225,-0.03345,-0.10474,-16.763,1.45,0.252
2026-06-01 14:17:50.793,2207010249,102793,1,0.67725,0.16821,0.88208,-0.069,3.321,-6.802
2026-06-01 14:17:50.793,2207010249,102793,2,0.98218,0.06152,-0.0647,7.26,4.466,0.779
2026-06-01 14:17:50.993,2207010449,102993,1,0.65039,0.2063,0.91333,0.412,-4.977,-12.802
2026-06-01 14:17:50.993,2207010449,102993,2,1.04175,-0.0625,-0.05786,-8.656,-8.313,-10.962
2026-06-01 14:17:50.193,2207009649,103193,1,0.74854,0.06543,0.8811,9.435,0.649,0.206
2026-06-01 14:17:50.193,2207009649,103193,2,1.0874,-0.15015,-0.06494,-5.863,26.893,-0.397
2026-06-01 14:17:50.393,2207009849,103393,1,0.68799,0.07593,0.84863,0.626,12.557,8.931
2026-06-01 14:17:50.393,2207009849,103393,2,0.94531,-0.13892,-0.08838,-42.542,-1.359,-3.229
2026-06-01 14:17:51.593,2207011049,103593,1,0.60254,0.13599,0.90015,22.771,21.992,34.313
2026-06-01 14:17:51.593,2207011049,103593,2,1.00024,-0.06763,-0.08032,7.664,9.092,3.008
2026-06-01 14:17:51.793,2207011249,103793,1,0.59155,0.11328,0.92676,20.489,13.87,22.947
2026-06-01 14:17:51.793,2207011249,103793,2,1.02588,0.00513,-0.03369,29.443,2.534,2.115
2026-06-01 14:17:51.993,2207011449,103993,1,0.62695,0.17407,0.91577,11.328,7.076,6.901
2026-06-01 14:17:51.993,2207011449,103993,2,1.052,0.00781,-0.01538,4.573,6.008,-0.405
2026-06-01 14:17:51.193,2207010649,104193,1,0.65918,0.15942,0.91089,-3.336,25.626,0.824
2026-06-01 14:17:51.193,2207010649,104193,2,1.04956,-0.02441,0.06445,2.687,35.672,9.511
2026-06-01 14:17:51.393,2207010849,104393,1,0.53296,0.12915,0.91333,-16.038,61.198,-5.992
2026-06-01 14:17:51.393,2207010849,104393,2,1.01782,-0.13818,0.23608,45.191,84.969,19.771
2026-06-01 14:17:52.593,2207012049,104593,1,0.23657,0.06128,0.83325,-14.87,112.924,6.656
2026-06-01 14:17:52.593,2207012049,104593,2,0.86084,-0.03442,0.46997,30.626,133.16,14.985
2026-06-01 14:17:52.793,2207012249,104793,1,-0.45996,0.07422,1.07861,-6.496,125.023,-9.046
2026-06-01 14:17:52.793,2207012249,104793,2,0.4978,0.03906,0.65771,-38.679,96.137,-0.679
2026-06-01 14:17:52.993,2207012449,104993,1,-0.69995,-0.07593,0.89258,-15.847,86.359,-29.565
2026-06-01 14:17:52.993,2207012449,104993,2,0.11841,-0.00342,1.17822,32.756,91.962,10.145
2026-06-01 14:17:52.193,2207011649,105193,1,-0.91504,-0.19238,0.74536,-12.74,38.664,-9.802
2026-06-01 14:17:52.193,2207011649,105193,2,-0.05127,0.05737,0.98071,-5.817,12.267,-0.977
2026-06-01 14:17:52.393,2207011849,105393,1,-0.81177,-0.21191,0.61768,-3.71,15.061,4.496
2026-06-01 14:17:52.393,2207011849,105393,2,-0.02808,0.08398,0.97144,-3.298,5.015,1.084
2026-06-01 14:17:53.593,2207013049,105593,1,-0.78296,-0.1582,0.61548,5.244,9.656,8.176
2026-06-01 14:17:53.593,2207013049,105593,2,0.00171,0.09448,0.95215,-0.176,1.214,0.595
2026-06-01 14:17:53.793,2207013249,105793,1,-0.8335,-0.16724,0.63818,1.595,5.191,2.626
2026-06-01 14:17:53.793,2207013249,105793,2,0.01294,0.08276,0.94751,-1.076,-2.153,2.649
2026-06-01 14:17:53.993,2207013449,105993,1,-0.82764,-0.1543,0.64575,1.046,-3.099,0.214
2026-06-01 14:17:53.993,2207013449,105993,2,0.03491,0.10083,0.9563,-1.214,-11.779,5.145
2026-06-01 14:17:53.193,2207012649,106193,1,-0.82715,-0.16113,0.69458,2.481,-18.542,2.229
2026-06-01 14:17:53.193,2207012649,106193,2,0.1189,0.08716,0.94946,-6.298,-29.443,2.183
2026-06-01 14:17:53.393,2207012849,106393,1,-0.7688,-0.1709,0.71387,0.695,-29.84,4.916
2026-06-01 14:17:53.393,2207012849,106393,2,0.19849,0.03589,0.92822,-5.901,-36.489,4.924
2026-06-01 14:17:54.593,2207014049,106593,1,-0.69116,-0.12476,0.82056,4.366,-36.611,11.603
2026-06-01 14:17:54.593,2207014049,106593,2,0.35986,0.04858,0.87622,-9.29,-48.824,6.763
2026-06-01 14:17:54.793,2207014249,106793,1,-0.59131,-0.11377,0.93677,1.42,-56.763,6.244
2026-06-01 14:17:54.793,2207014249,106793,2,0.56763,0.06641,0.74365,-10.298,-66.038,8.985
2026-06-01 14:17:54.993,2207014449,106993,1,-0.34253,-0.03784,1.0022,15.023,-73.191,7.26
2026-06-01 14:17:54.993,2207014449,106993,2,0.73999,-0.01147,0.60107,-24.534,-76.481,-6.84
2026-06-01 14:17:54.193,2207013649,107193,1,-0.03101,0.02417,1.05737,23.13,-70.847,-0.351
2026-06-01 14:17:54.193,2207013649,107193,2,0.91528,0.00732,0.39429,-29.282,-57.282,-10.313
2026-06-01 14:17:54.393,2207013849,107393,1,0.20239,0.10449,1.03223,12.992,-62.901,-9.504
2026-06-01 14:17:54.393,2207013849,107393,2,0.95044,-0.07446,0.25269,-59.443,-65.611,-19.092
2026-06-01 14:17:55.593,2207015049,107593,1,0.33154,0.10498,1.03564,3.74,-37.969,-15.053
2026-06-01 14:17:55.593,2207015049,107593,2,0.99854,-0.02661,0.18384,-31.748,-25.344,-8.153
2026-06-01 14:17:55.793,2207015249,107793,1,0.37744,0.13354,1.03931,-2.878,-20.595,-8.809
2026-06-01 14:17:55.793,2207015249,107793,2,1.0332,-0.06738,0.08228,-30.321,-20.687,-9.321
2026-06-01 14:17:55.993,2207015449,107993,1,0.58618,0.16309,0.94922,-2.87,-13.718,-6.038
2026-06-01 14:17:55.993,2207015449,107993,2,1.03467,-0.02002,0.07275,-1.954,2.672,1.084
2026-06-01 14:17:55.193,2207014649,108193,1,0.47998,0.12915,1.0061,9.565,7.282,-5.26
2026-06-01 14:17:55.193,2207014649,108193,2,1.05908,-0.02246,0.03345,0.328,2.55,1.137
2026-06-01 14:17:55.393,2207014849,108393,1,0.49902,0.12231,1.00513,5.992,7.42,5.527
2026-06-01 14:17:55.393,2207014849,108393,2,1.02612,-0.02466,0.04419,6.748,3.962,3.099
2026-06-01 14:17:56.593,2207016049,108593,1,0.48022,0.08984,1.00781,13.504,12.099,7.527
2026-06-01 14:17:56.593,2207016049,108593,2,1.06372,-0.03784,0.02075,4.565,11.26,0.198
2026-06-01 14:17:56.793,2207016249,108793,1,0.30957,0.00122,1.07153,-12.817,7.992,-1.924
2026-06-01 14:17:56.793,2207016249,108793,2,0.97583,-0.06006,0.08887,17.359,8.427,3.26
2026-06-01 14:17:56.993,2207016449,108993,1,0.38403,0.12524,1.04565,1.359,23.206,19.542
2026-06-01 14:17:56.993,2207016449,108993,2,0.99316,-0.01392,0.14282,3.45,14.824,5.84
2026-06-01 14:17:56.193,2207015649,109193,1,0.37158,0.07373,1.02759,-3.55,29.863,0.221
2026-06-01 14:17:56.193,2207015649,109193,2,0.96704,-0.08325,0.24951,-5.214,30.359,4.519
2026-06-01 14:17:56.393,2207015849,109393,1,0.26978,0.04053,0.97876,-12.595,61.824,0.046
2026-06-01 14:17:56.393,2207015849,109393,2,0.9707,-0.08447,0.44238,33.405,63.267,14.313
2026-06-01 14:17:57.593,2207017049,109593,1,-0.17505,-0.00122,0.92896,-10.214,103.748,9.069
2026-06-01 14:17:57.593,2207017049,109593,2,0.74268,-0.07422,0.64746,33.076,105.519,12.954
2026-06-01 14:17:57.793,2207017249,109793,1,-0.35522,-0.08887,0.95996,-20.046,82.939,3.26
2026-06-01 14:17:57.793,2207017249,109793,2,0.51489,0.06055,0.76611,19.565,88.29,7.779
2026-06-01 14:17:57.993,2207017449,109993,1,-0.51978,-0.09814,0.85791,-7.786,64.023,-4.969
2026-06-01 14:17:57.993,2207017449,109993,2,0.23804,0.11206,0.8645,4.885,57.435,5.153
2026-06-01 14:17:57.193,2207016649,110193,1,-0.73047,-0.14136,0.73779,3.817,42.962,-0.405
2026-06-01 14:17:57.193,2207016649,110193,2,0.20386,0.15747,0.96191,-0.985,30.038,-5.282
2026-06-01 14:17:57.393,2207016849,110393,1,-0.85889,-0.11938,0.67261,7.298,31.374,1.87
2026-06-01 14:17:57.393,2207016849,110393,2,-0.07178,0.18652,1.06494,-0.45,13.405,-0.794
2026-06-01 14:17:58.593,2207018049,110593,1,-0.85425,-0.11963,0.64771,6.74,7.924,1.237
2026-06-01 14:17:58.593,2207018049,110593,2,0.13599,0.13672,0.92651,0.382,2.504,-1.679
2026-06-01 14:17:58.793,2207018249,110793,1,-0.80127,-0.14136,0.59888,6.733,-4.908,4.435
2026-06-01 14:17:58.793,2207018249,110793,2,0.05518,0.10352,0.94165,-8.214,-15.733,-4.969
2026-06-01 14:17:58.993,2207018449,110993,1,-0.88037,-0.16772,0.6748,9.954,-20.336,7.695
2026-06-01 14:17:58.993,2207018449,110993,2,0.14087,0.13525,0.98047,-10.015,-33.55,0.824
2026-06-01 14:17:58.193,2207017649,111193,1,-1.02661,-0.19604,0.95142,1.489,-76.901,-5.153
2026-06-01 14:17:58.193,2207017649,111193,2,0.45532,0.02637,0.93164,-23.221,-139.359,3.069
2026-06-01 14:17:58.393,2207017849,111393,1,-0.51758,-0.12231,0.67017,36.412,-179.252,25.084
2026-06-01 14:17:58.393,2207017849,111393,2,0.69214,0.08691,0.2915,-1.756,-159.023,-3.099
2026-06-01 14:17:59.593,2207019049,111593,1,0.57617,0.15161,0.81177,18.374,-119.237,8.176
2026-06-01 14:17:59.593,2207019049,111593,2,1.03516,-0.00806,0.18555,-30.015,-76.847,-2.267
2026-06-01 14:17:59.793,2207019249,111793,1,0.71167,0.13257,0.85132,1.183,-46.878,-13.634
2026-06-01 14:17:59.793,2207019249,111793,2,1.06128,-0.01196,-0.08765,7.076,-11.924,13.359
2026-06-01 14:17:59.993,2207019449,111993,1,0.69629,0.17529,0.78125,6.176,-32.214,-17.863
2026-06-01 14:17:59.993,2207019449,111993,2,1.04248,0.03442,-0.14136,-6.916,-9.588,23.71
2026-06-01 14:17:59.193,2207018649,112193,1,0.76831,0.17822,0.80835,-8.351,-6.397,-16.42
2026-06-01 14:17:59.193,2207018649,112193,2,1.01514,-0.06079,-0.17725,-13.26,4.435,5.985
2026-06-01 14:17:59.393,2207018849,112393,1,0.72461,0.09595,0.8479,-13.992,-3.481,-16.275
2026-06-01 14:17:59.393,2207018849,112393,2,1.01685,-0.07593,-0.19385,-13.573,-3.885,5.55
2026-06-01 14:18:00.593,2207020049,112593,1,0.72119,0.12866,0.84229,-7.481,-3.221,-7.931
2026-06-01 14:18:00.593,2207020049,112593,2,1.00684,-0.08276,-0.21973,-19.969,-6.336,0.725
2026-06-01 14:18:00.793,2207020249,112793,1,0.7522,0.1167,0.83618,1.092,1.603,-0.153
2026-06-01 14:18:00.793,2207020249,112793,2,1.0376,-0.07568,-0.22461,16.275,5.42,2.947
2026-06-01 14:18:00.993,2207020449,112993,1,0.7207,0.10229,0.83398,3.153,4.191,7.0
2026-06-01 14:18:00.993,2207020449,112993,2,1.02661,-0.08911,-0.22266,1.153,-4.122,-2.221
2026-06-01 14:18:00.257,2207019713,113257,1,0.81494,0.1123,0.81641,23.725,39.107,33.107
2026-06-01 14:18:00.257,2207019713,113257,2,0.9353,-0.27441,-0.34033,193.053,30.885,23.771
2026-06-01 14:18:00.457,2207019913,113457,1,0.68311,0.14209,0.90894,12.107,33.992,31.679
2026-06-01 14:18:00.457,2207019913,113457,2,1.00049,0.03027,-0.08496,18.305,20.565,-6.534
2026-06-01 14:18:01.657,2207021113,113657,1,0.50562,0.17627,0.96655,-4.954,34.794,3.061
2026-06-01 14:18:01.657,2207021113,113657,2,1.05933,-0.03491,0.10449,17.076,31.763,10.359
2026-06-01 14:18:01.857,2207021313,113857,1,0.32397,0.13892,0.83105,-9.832,82.687,3.511
2026-06-01 14:18:01.857,2207021313,113857,2,1.02612,-0.05786,0.05713,41.473,73.664,13.145
2026-06-01 14:18:01.057,2207020513,114057,1,0.04614,-0.0144,0.73145,-26.496,143.145,-4.038
2026-06-01 14:18:01.057,2207020513,114057,2,0.65063,0.07739,0.57349,114.756,108.16,30.725
2026-06-01 14:18:01.257,2207020713,114257,1,-0.46118,-0.06323,1.05664,-3.802,37.13,19.076
2026-06-01 14:18:01.257,2207020713,114257,2,0.51074,0.07788,0.9104,92.855,-4.985,15.802
2026-06-01 14:18:01.457,2207020913,114457,1,-0.39307,-0.04736,1.0498,-8.321,-68.725,21.168
2026-06-01 14:18:01.457,2207020913,114457,2,0.823,0.06787,0.62891,-49.496,-75.527,-13.977
2026-06-01 14:18:02.657,2207022113,114657,1,-0.20557,0.14697,1.34229,-4.901,-48.038,-21.0
2026-06-01 14:18:02.657,2207022113,114657,2,1.12256,0.07324,0.8374,25.061,-30.26,17.947
2026-06-01 14:18:02.857,2207022313,114857,1,0.21143,0.05591,1.24146,8.168,-31.435,-9.076
2026-06-01 14:18:02.857,2207022313,114857,2,1.00342,-0.0791,0.28149,0.809,-22.687,2.802
2026-06-01 14:18:02.057,2207021513,115057,1,0.27832,0.07373,1.41187,-7.351,-25.099,1.656
2026-06-01 14:18:02.057,2207021513,115057,2,1.44849,-0.01123,0.59253,-13.366,-10.809,-5.832
2026-06-01 14:18:02.257,2207021713,115257,1,0.32886,0.01367,1.08936,12.649,48.443,25.351
2026-06-01 14:18:02.257,2207021713,115257,2,0.94287,0.01196,0.26709,40.565,48.099,1.198
2026-06-01 14:18:02.457,2207021913,115457,1,0.01196,0.0437,1.08545,-0.305,46.817,4.534
2026-06-01 14:18:02.457,2207021913,115457,2,0.87915,0.05859,0.55225,2.626,34.153,-9.779
2026-06-01 14:18:03.657,2207023113,115657,1,-0.17627,-0.01953,1.13745,-17.847,33.313,-9.412
2026-06-01 14:18:03.657,2207023113,115657,2,0.71411,0.01929,0.60571,-3.87,32.618,1.496
2026-06-01 14:18:03.857,2207023313,115857,1,-0.31177,-0.10107,1.05054,-10.252,-0.84,-6.42
2026-06-01 14:18:03.857,2207023313,115857,2,0.68164,-0.0437,0.61987,2.534,-11.603,2.779
2026-06-01 14:18:03.057,2207022513,116057,1,-0.20581,-0.03833,1.00903,9.206,-33.908,3.267
2026-06-01 14:18:03.057,2207022513,116057,2,0.76807,-0.01001,0.44458,-27.519,-52.573,0.038
2026-06-01 14:18:03.257,2207022713,116257,1,-0.06494,0.03491,0.96899,18.916,-72.305,0.679
2026-06-01 14:18:03.257,2207022713,116257,2,0.875,0.03125,0.2373,-38.145,-74.893,-0.412
2026-06-01 14:18:03.457,2207022913,116457,1,0.48633,0.08569,0.8479,29.931,-79.87,1.916
2026-06-01 14:18:03.457,2207022913,116457,2,1.06665,-0.0625,0.09985,-0.786,-38.557,-5.313
2026-06-01 14:18:04.657,2207024113,116657,1,0.63354,0.15674,0.92139,-1.916,7.191,2.153
2026-06-01 14:18:04.657,2207024113,116657,2,1.03052,-0.00708,0.13867,13.29,29.412,6.397
2026-06-01 14:18:04.857,2207024313,116857,1,0.26123,-0.00903,0.96143,-27.183,65.603,-15.664
2026-06-01 14:18:04.857,2207024313,116857,2,0.9563,-0.22217,0.16675,-29.87,46.802,-3.603
2026-06-01 14:18:04.057,2207023513,117057,1,0.00293,0.20142,1.15161,-0.214,44.137,12.496
2026-06-01 14:18:04.057,2207023513,117057,2,0.58789,-0.0625,0.38525,35.656,48.046,6.656
2026-06-01 14:18:04.257,2207023713,117257,1,0.00708,0.05493,1.11255,-3.122,27.611,0.473
2026-06-01 14:18:04.257,2207023713,117257,2,0.94287,0.05249,0.41089,0.191,8.702,4.221
2026-06-01 14:18:04.457,2207023913,117457,1,-0.00537,0.02295,1.11621,5.153,0.046,1.412
2026-06-01 14:18:04.457,2207023913,117457,2,0.90942,-0.03906,0.53076,-9.756,2.832,-0.695
2026-06-01 14:18:05.657,2207025113,117657,1,0.05884,0.03418,1.1626,6.122,-19.305,-0.489
2026-06-01 14:18:05.657,2207025113,117657,2,1.0022,-0.06226,0.4314,-26.42,-21.885,-2.267
2026-06-01 14:18:05.857,2207025313,117857,1,0.04639,0.21362,1.2688,8.481,-10.115,-1.893
2026-06-01 14:18:05.857,2207025313,117857,2,1.06421,-0.07666,0.31055,-32.26,-33.939,-5.229
2026-06-01 14:18:05.057,2207024513,118057,1,0.073,0.13135,1.17432,9.344,2.534,-10.405
2026-06-01 14:18:05.057,2207024513,118057,2,1.00488,0.0835,0.42944,-7.534,-2.832,-17.374
2026-06-01 14:18:05.257,2207024713,118257,1,0.21948,0.1499,1.18774,-15.634,5.802,-25.794
2026-06-01 14:18:05.257,2207024713,118257,2,0.86499,0.04834,0.40503,-7.145,20.061,-2.74
2026-06-01 14:18:05.457,2207024913,118457,1,0.11255,0.13428,1.1958,3.885,-23.092,2.771
2026-06-01 14:18:05.457,2207024913,118457,2,1.26294,0.01416,0.29419,31.824,-43.878,15.145
2026-06-01 14:18:06.657,2207026113,118657,1,0.40161,0.08203,0.90088,2.153,-17.16,18.557
2026-06-01 14:18:06.657,2207026113,118657,2,0.85156,0.00049,0.08643,1.863,-10.321,5.527
2026-06-01 14:18:06.857,2207026313,118857,1,0.57739,0.22754,1.29492,-0.534,-3.206,5.084
2026-06-01 14:18:06.857,2207026313,118857,2,1.58423,-0.01343,0.31201,-19.718,18.267,7.229
2026-06-01 14:18:06.057,2207025513,119057,1,0.08936,0.03369,1.25,-17.733,57.16,-1.084
2026-06-01 14:18:06.057,2207025513,119057,2,0.95361,-0.05322,0.31885,3.298,34.321,3.824
2026-06-01 14:18:06.257,2207025713,119257,1,0.00244,0.03247,1.21948,10.382,-16.939,-0.802
2026-06-01 14:18:06.257,2207025713,119257,2,0.97974,-0.00098,0.26245,-6.519,-22.595,-10.725
2026-06-01 14:18:06.457,2207025913,119457,1,0.15796,0.0481,1.15137,6.13,-64.687,-5.45
2026-06-01 14:18:06.457,2207025913,119457,2,0.9314,0.05298,0.27173,-39.649,-52.748,-10.244
2026-06-01 14:18:07.657,2207027113,119657,1,0.46851,0.15625,0.69946,13.084,-20.275,13.275
2026-06-01 14:18:07.657,2207027113,119657,2,0.36353,0.1145,0.15601,3.992,-41.183,5.954
2026-06-01 14:18:07.857,2207027313,119857,1,0.49438,0.14282,1.15283,-8.504,-28.504,-28.595
2026-06-01 14:18:07.857,2207027313,119857,2,1.04443,-0.05811,0.07471,86.45,27.611,15.679
2026-06-01 14:18:07.104,2207026560,120104,1,0.6665,0.19214,0.87891,-4.74,-19.0,-16.336
2026-06-01 14:18:07.104,2207026560,120104,2,1.01147,-0.00586,-0.13599,-12.695,-9.802,-6.954
2026-06-01 14:18:07.304,2207026760,120304,1,0.79785,0.18652,0.83203,-4.901,-8.55,-6.817
2026-06-01 14:18:07.304,2207026760,120304,2,1.08984,-0.03613,-0.13013,-9.626,4.832,-0.779
2026-06-01 14:18:07.504,2207026960,120504,1,0.5835,0.09985,0.86328,-12.702,-21.137,-33.847
2026-06-01 14:18:07.504,2207026960,120504,2,1.02856,-0.04321,-0.07959,-20.137,7.527,-1.641
2026-06-01 14:18:08.704,2207028160,120704,1,0.62744,0.20947,0.92236,-33.786,-9.237,-20.977
2026-06-01 14:18:08.704,2207028160,120704,2,1.01636,-0.00903,-0.1167,-30.519,-3.908,19.26
2026-06-01 14:18:08.904,2207028360,120904,1,0.67554,0.06543,0.91528,-37.298,-10.924,-49.824
2026-06-01 14:18:08.904,2207028360,120904,2,0.99268,-0.07446,-0.15796,-75.908,-8.198,2.542
2026-06-01 14:18:08.104,2207027560,121104,1,0.73267,0.10449,0.84619,-32.779,-8.145,-49.282
2026-06-01 14:18:08.104,2207027560,121104,2,0.9917,-0.08936,-0.14111,-54.183,9.45,3.435
2026-06-01 14:18:08.304,2207027760,121304,1,0.68823,0.12939,0.87866,-17.321,-6.725,-19.71
2026-06-01 14:18:08.304,2207027760,121304,2,0.99341,-0.13428,-0.13599,-0.511,-3.863,14.962
2026-06-01 14:18:08.504,2207027960,121504,1,0.68921,0.11035,0.87061,2.107,-7.229,8.939
2026-06-01 14:18:08.504,2207027960,121504,2,1.01147,-0.08276,-0.19604,9.55,-8.901,0.115
2026-06-01 14:18:09.704,2207029160,121704,1,0.71875,0.13477,0.86182,-3.26,-2.626,2.855
2026-06-01 14:18:09.704,2207029160,121704,2,1.0459,-0.10938,-0.15405,2.13,5.45,0.901
2026-06-01 14:18:09.904,2207029360,121904,1,0.70874,0.0127,0.88525,2.13,7.473,7.176
2026-06-01 14:18:09.904,2207029360,121904,2,0.99316,-0.18408,-0.13672,47.634,1.672,-0.282
2026-06-01 14:18:09.104,2207028560,122104,1,0.84644,0.11157,0.8147,107.519,25.611,106.427
2026-06-01 14:18:09.104,2207028560,122104,2,0.9646,-0.03223,-0.20532,98.504,3.252,-43.435
2026-06-01 14:18:09.304,2207028760,122304,1,0.80347,0.31348,0.85059,36.229,-0.107,25.618
2026-06-01 14:18:09.304,2207028760,122304,2,0.99438,0.03394,-0.21899,-20.725,-7.275,-7.985
2026-06-01 14:18:09.504,2207028960,122504,1,0.75244,0.16797,0.86255,-7.275,-14.122,-29.916
2026-06-01 14:18:09.504,2207028960,122504,2,1.00049,-0.0437,-0.12451,6.649,-0.069,6.519
2026-06-01 14:18:10.704,2207030160,122704,1,0.71704,0.25757,0.81079,-18.061,1.023,-10.779
2026-06-01 14:18:10.704,2207030160,122704,2,1.04932,0.02905,-0.24146,-28.397,0.71,5.282
2026-06-01 14:18:10.904,2207030360,122904,1,0.57959,-0.0354,0.90283,-31.527,22.74,-18.122
2026-06-01 14:18:10.904,2207030360,122904,2,1.16284,-0.06445,-0.02393,-9.397,-0.58,-38.084
2026-06-01 14:18:10.104,2207029560,123104,1,0.71484,0.15259,0.82373,15.16,62.031,34.656
2026-06-01 14:18:10.104,2207029560,123104,2,1.04761,-0.02295,-0.09497,57.641,58.008,-5.427
2026-06-01 14:18:10.304,2207029760,123304,1,0.44678,0.18213,0.89185,-7.0,85.595,22.565
2026-06-01 14:18:10.304,2207029760,123304,2,1.03882,-0.02759,0.17627,29.244,66.359,9.405
2026-06-01 14:18:10.504,2207029960,123504,1,0.12891,0.0105,0.85449,-31.023,130.076,8.527
2026-06-01 14:18:10.504,2207029960,123504,2,0.85376,-0.07373,0.34888,34.84,164.076,-9.58
2026-06-01 14:18:11.713,2207031169,123713,1,-0.55396,-0.0625,0.83984,-3.26,136.534,18.611
2026-06-01 14:18:11.713,2207031169,123713,2,0.47803,0.2395,0.99976,12.748,72.359,-0.511
2026-06-01 14:18:11.913,2207031369,123913,1,-0.85986,-0.08398,0.83838,-7.183,68.397,-16.275
2026-06-01 14:18:11.913,2207031369,123913,2,0.20508,0.22192,1.0144,-38.405,39.069,-9.71
2026-06-01 14:18:11.113,2207030569,124113,1,-0.85913,-0.14941,0.68115,-11.221,16.832,-11.969
2026-06-01 14:18:11.113,2207030569,124113,2,0.11206,0.21094,0.90698,1.511,20.473,-1.13
2026-06-01 14:18:11.313,2207030769,124313,1,-0.7959,-0.198,0.5957,-0.786,11.679,1.092
2026-06-01 14:18:11.313,2207030769,124313,2,0.08203,0.18921,0.92871,-1.16,11.0,-2.267
2026-06-01 14:18:11.513,2207030969,124513,1,-0.8291,-0.23413,0.65308,-5.527,5.557,-8.679
2026-06-01 14:18:11.513,2207030969,124513,2,0.07031,0.073,0.98389,1.725,-1.901,-7.664
2026-06-01 14:18:12.713,2207032169,124713,1,-0.82178,-0.15405,0.61694,3.244,1.618,4.992
2026-06-01 14:18:12.713,2207032169,124713,2,0.10352,0.17529,0.95361,-3.557,-9.542,4.168
2026-06-01 14:18:12.913,2207032369,124913,1,-0.90039,-0.18433,0.68042,2.87,-18.511,0.664
2026-06-01 14:18:12.913,2207032369,124913,2,0.15527,0.10986,0.9729,-4.977,-27.779,4.45
2026-06-01 14:18:12.113,2207031569,125113,1,-0.90308,-0.15356,0.76245,8.053,-51.382,9.145
2026-06-01 14:18:12.113,2207031569,125113,2,0.2749,0.10303,0.9375,-6.282,-70.321,9.084
2026-06-01 14:18:12.313,2207031769,125313,1,-0.70337,-0.1106,0.90308,13.565,-102.962,14.16
2026-06-01 14:18:12.313,2207031769,125313,2,0.68311,0.11011,0.59009,-47.107,-137.084,6.282
2026-06-01 14:18:12.513,2207031969,125513,1,-0.01416,-0.02905,0.91089,4.084,-126.153,-10.916
2026-06-01 14:18:12.513,2207031969,125513,2,0.92993,0.02222,0.26611,-20.786,-89.824,0.817
2026-06-01 14:18:13.713,2207033169,125713,1,0.40601,0.11279,0.87231,36.977,-94.023,-0.824
2026-06-01 14:18:13.713,2207033169,125713,2,1.06787,-0.05054,0.07715,-66.374,-73.71,-9.71
2026-06-01 14:18:13.913,2207033369,125913,1,0.63037,0.06519,0.92993,2.0,-34.702,-18.427
2026-06-01 14:18:13.913,2207033369,125913,2,1.12354,-0.03833,-0.09497,0.832,1.45,-3.237
2026-06-01 14:18:13.113,2207032569,126113,1,0.64526,0.14673,0.86011,-3.168,26.321,0.809
2026-06-01 14:18:13.113,2207032569,126113,2,1.06812,-0.05615,0.04175,16.443,40.031,3.092
2026-06-01 14:18:13.313,2207032769,126313,1,0.38745,0.00073,0.93799,-13.412,74.885,-0.481
2026-06-01 14:18:13.313,2207032769,126313,2,0.91553,-0.11011,0.24512,17.015,78.962,0.809
2026-06-01 14:18:13.513,2207032969,126513,1,0.0647,0.08789,0.90039,-12.069,109.137,13.168
2026-06-01 14:18:13.513,2207032969,126513,2,0.76074,0.02393,0.41724,54.328,148.481,6.916
2026-06-01 14:18:14.713,2207034169,126713,1,-0.3291,-0.1062,0.9104,-17.206,117.901,-12.893
2026-06-01 14:18:14.713,2207034169,126713,2,0.65381,0.07935,0.93677,4.855,97.115,2.527
2026-06-01 14:18:14.913,2207034369,126913,1,-0.74658,-0.20215,0.88452,-18.779,59.153,-15.45
2026-06-01 14:18:14.913,2207034369,126913,2,0.20264,0.09302,0.90454,-4.229,51.832,-7.809
2026-06-01 14:18:14.113,2207033569,127113,1,-0.83203,-0.2041,0.79468,-15.359,32.298,-9.061
2026-06-01 14:18:14.113,2207033569,127113,2,0.07446,0.09839,0.94531,-5.137,22.771,-6.275
2026-06-01 14:18:14.313,2207033769,127313,1,-0.89648,-0.23364,0.61328,14.527,11.061,-4.611
2026-06-01 14:18:14.313,2207033769,127313,2,0.08862,0.10767,0.92212,-4.802,-9.153,-13.244
2026-06-01 14:18:14.513,2207033969,127513,1,-0.88159,-0.19873,0.65259,1.786,-6.481,-2.313
2026-06-01 14:18:14.513,2207033969,127513,2,0.01611,0.10083,1.00732,3.718,-24.42,-3.076
2026-06-01 14:18:15.713,2207035169,127713,1,-0.94043,-0.18677,0.78125,16.626,-60.885,17.099
2026-06-01 14:18:15.713,2207035169,127713,2,0.37939,0.12695,0.88135,-25.992,-115.733,22.122
2026-06-01 14:18:15.913,2207035369,127913,1,-0.5249,-0.08423,0.89282,14.435,-129.351,4.756
2026-06-01 14:18:15.913,2207035369,127913,2,0.71948,0.00562,0.61426,-43.145,-154.573,10.481
2026-06-01 14:18:15.113,2207034569,128113,1,-0.02588,-0.0498,0.80542,25.183,-154.702,1.924
2026-06-01 14:18:15.113,2207034569,128113,2,0.93262,0.02759,0.25195,-25.008,-127.809,-9.229
2026-06-01 14:18:15.313,2207034769,128313,1,0.56689,0.08667,0.88965,3.893,-86.397,-22.847
2026-06-01 14:18:15.313,2207034769,128313,2,1.1228,-0.08447,-0.03906,-37.427,-55.733,-8.527
2026-06-01 14:18:15.513,2207034969,128513,1,0.72021,0.11499,0.84302,12.26,-18.183,-9.588
2026-06-01 14:18:15.513,2207034969,128513,2,1.12085,-0.0918,-0.14722,-1.275,1.824,-3.908
2026-06-01 14:18:16.713,2207036169,128713,1,0.75171,0.13696,0.87695,-0.779,31.519,-1.496
2026-06-01 14:18:16.713,2207036169,128713,2,1.06372,-0.06689,0.04004,48.58,63.053,4.626
2026-06-01 14:18:16.913,2207036369,128913,1,0.36133,0.06763,1.02905,-39.87,114.336,-8.939
2026-06-01 14:18:16.913,2207036369,128913,2,0.94727,-0.01636,0.48584,-17.237,70.107,-15.534
2026-06-01 14:18:16.113,2207035569,129113,1,-0.06641,-0.02368,0.85034,-12.756,162.58,1.237
2026-06-01 14:18:16.113,2207035569,129113,2,0.802,0.15796,0.59106,65.664,163.191,-25.954
2026-06-01 14:18:16.313,2207035769,129313,1,-0.68872,-0.10107,1.00513,-12.855,98.206,-5.939
2026-06-01 14:18:16.313,2207035769,129313,2,0.36011,0.36035,0.92993,8.061,82.42,-19.328
2026-06-01 14:18:16.513,2207035969,129513,1,-0.87085,-0.14673,0.77124,-18.557,55.832,-15.046
2026-06-01 14:18:16.513,2207035969,129513,2,0.11792,0.21777,0.95947,8.16,28.489,-5.405
2026-06-01 14:18:17.713,2207037169,129713,1,-0.86255,-0.14502,0.68628,-4.099,5.344,-3.473
2026-06-01 14:18:17.713,2207037169,129713,2,0.1377,0.19531,0.89771,-3.427,12.809,7.924
2026-06-01 14:18:17.913,2207037369,129913,1,-0.78833,-0.23926,0.67456,-9.038,7.649,1.718
2026-06-01 14:18:17.913,2207037369,129913,2,0.13867,0.22021,0.91138,3.809,-3.061,-0.908
2026-06-01 14:18:17.113,2207036569,130113,1,-0.74365,-0.21021,0.66309,7.565,-3.885,1.55
2026-06-01 14:18:17.113,2207036569,130113,2,0.16479,0.22168,0.93359,-1.145,-19.29,5.099
2026-06-01 14:18:17.313,2207036769,130313,1,-0.83374,-0.19482,0.74414,6.229,-27.756,-0.664
2026-06-01 14:18:17.313,2207036769,130313,2,0.20728,0.19678,0.92407,-6.74,-45.023,10.046
2026-06-01 14:18:17.513,2207036969,130513,1,-0.83398,-0.21167,0.84546,17.756,-67.359,9.466
2026-06-01 14:18:17.513,2207036969,130513,2,0.43701,0.12695,0.82593,-14.427,-98.527,16.046
2026-06-01 14:18:18.713,2207038169,130713,1,-0.35693,-0.09424,0.96118,18.588,-111.855,6.351
2026-06-01 14:18:18.713,2207038169,130713,2,0.81055,0.07153,0.4585,-27.534,-100.817,11.046
2026-06-01 14:18:18.913,2207038369,130913,1,0.05469,0.0686,0.99634,26.977,-108.634,0.733
2026-06-01 14:18:18.913,2207038369,130913,2,0.94824,-0.08325,0.25879,-49.397,-71.282,-6.107
2026-06-01 14:18:18.138,2207037594,131138,1,0.4978,0.11328,0.8772,34.229,-79.389,9.901
2026-06-01 14:18:18.138,2207037594,131138,2,1.0686,0.00879,-0.00244,-9.458,-37.702,-1.618
2026-06-01 14:18:18.338,2207037794,131338,1,0.68579,0.15039,0.84692,7.405,-12.038,3.786
2026-06-01 14:18:18.338,2207037794,131338,2,1.07324,-0.03247,-0.08057,22.107,8.985,3.611
2026-06-01 14:18:18.538,2207037994,131538,1,0.58081,0.15186,0.87061,-19.084,50.153,-1.565
2026-06-01 14:18:18.538,2207037994,131538,2,1.08545,-0.05786,0.0874,7.939,67.275,4.427
2026-06-01 14:18:19.738,2207039194,131738,1,0.18481,0.11743,0.86353,-11.198,116.916,6.733
2026-06-01 14:18:19.738,2207039194,131738,2,0.86938,0.05615,0.24683,53.321,111.756,6.221
2026-06-01 14:18:19.938,2207039394,131938,1,-0.20435,-0.0061,0.94653,-18.145,133.069,2.305
2026-06-01 14:18:19.938,2207039394,131938,2,0.73242,0.19727,0.69849,3.191,96.809,-12.115
2026-06-01 14:18:19.138,2207038594,132138,1,-0.62891,-0.15137,0.87915,-13.824,86.634,-13.031
2026-06-01 14:18:19.138,2207038594,132138,2,0.38257,0.16724,0.69775,3.031,70.611,-15.542
2026-06-01 14:18:19.338,2207038794,132338,1,-0.87354,-0.18506,0.82397,-10.061,48.595,-17.985
2026-06-01 14:18:19.338,2207038794,132338,2,0.22974,0.17578,0.9939,-13.397,36.359,-9.893
2026-06-01 14:18:19.538,2207038994,132538,1,-1.08032,-0.28857,0.73584,-7.435,34.794,11.786
2026-06-01 14:18:19.538,2207038994,132538,2,0.14355,0.1521,0.90723,-4.74,-6.962,-8.664
2026-06-01 14:18:20.738,2207040194,132738,1,-0.84985,-0.18262,0.65601,0.618,2.893,-1.244
2026-06-01 14:18:20.738,2207040194,132738,2,0.09912,0.22583,0.97461,-5.122,-6.481,-1.16
2026-06-01 14:18:20.938,2207040394,132938,1,-0.98779,-0.26221,0.77441,8.786,-35.611,13.099
2026-06-01 14:18:20.938,2207040394,132938,2,0.14258,0.24048,0.95801,-6.344,-56.252,8.237
2026-06-01 14:18:20.138,2207039594,133138,1,-0.80737,-0.14575,0.90479,19.244,-109.099,4.771
2026-06-01 14:18:20.138,2207039594,133138,2,0.55933,0.1001,0.68335,-26.634,-133.603,22.641
2026-06-01 14:18:20.338,2207039794,133338,1,-0.21826,-0.0332,0.9082,27.13,-142.321,11.489
2026-06-01 14:18:20.338,2207039794,133338,2,0.80811,-0.01147,0.29663,-10.198,-101.092,2.969
2026-06-01 14:18:20.538,2207039994,133538,1,0.39478,0.07983,0.65503,41.55,-143.489,3.656
2026-06-01 14:18:20.538,2207039994,133538,2,1.00757,-0.03882,0.0647,-19.931,-105.71,-2.458
2026-06-01 14:18:21.738,2207041194,133738,1,0.79639,0.15771,0.83618,14.076,-54.366,9.092
2026-06-01 14:18:21.738,2207041194,133738,2,1.05103,-0.05591,-0.14526,-10.038,-45.565,5.794
2026-06-01 14:18:21.938,2207041394,133938,1,0.77808,0.13037,0.86108,-1.137,9.183,-3.298
2026-06-01 14:18:21.938,2207041394,133938,2,1.02026,-0.01709,-0.33154,-7.977,-0.252,-2.924
2026-06-01 14:18:21.138,2207040594,134138,1,0.75464,0.1394,0.82349,-8.237,7.13,-6.008
2026-06-01 14:18:21.138,2207040594,134138,2,1.09595,-0.08789,-0.21509,20.893,17.473,5.16
2026-06-01 14:18:21.338,2207040794,134338,1,0.80566,0.14551,0.80029,-23.496,63.901,-6.542
2026-06-01 14:18:21.338,2207040794,134338,2,1.03345,-0.11011,0.04346,12.702,97.603,-4.634
2026-06-01 14:18:22.657,2207042113,134657,1,0.10571,-0.01147,0.73389,-40.939,164.092,-10.908
2026-06-01 14:18:22.657,2207042113,134657,2,0.75391,0.07861,0.46143,52.42,133.641,-9.618
2026-06-01 14:18:22.857,2207042313,134857,1,-0.48145,-0.02466,0.94922,-13.0,128.641,-8.489
2026-06-01 14:18:22.857,2207042313,134857,2,0.60669,0.15137,0.71143,14.389,105.511,-25.863
2026-06-01 14:18:22.057,2207041513,135057,1,-0.78662,-0.14087,0.85474,-13.267,69.397,-7.183
2026-06-01 14:18:22.057,2207041513,135057,2,0.25146,0.24463,0.95386,-10.29,44.779,-12.611
2026-06-01 14:18:22.257,2207041713,135257,1,-0.82373,-0.19458,0.73828,-7.221,19.641,-2.084
2026-06-01 14:18:22.257,2207041713,135257,2,0.20386,0.24316,0.92896,-1.145,11.412,-2.634
2026-06-01 14:18:22.457,2207041913,135457,1,-0.73364,-0.22754,0.72583,-4.023,7.473,-2.237
2026-06-01 14:18:22.457,2207041913,135457,2,0.14673,0.24487,0.90186,7.565,4.023,1.069
2026-06-01 14:18:23.657,2207043113,135657,1,-0.75391,-0.18921,0.69995,3.656,-3.748,-0.42
2026-06-01 14:18:23.657,2207043113,135657,2,0.14893,0.18628,0.93701,-4.504,-9.58,3.779
2026-06-01 14:18:23.857,2207043313,135857,1,-0.79858,-0.22754,0.7644,6.489,-24.137,3.344
2026-06-01 14:18:23.857,2207043313,135857,2,0.22681,0.20239,0.9397,-7.366,-47.374,13.0
2026-06-01 14:18:23.057,2207042513,136057,1,-0.78979,-0.1355,0.88208,22.557,-67.595,15.573
2026-06-01 14:18:23.057,2207042513,136057,2,0.45728,0.13135,0.81152,-22.664,-95.74,13.901
2026-06-01 14:18:23.257,2207042713,136257,1,-0.40869,-0.06812,0.87549,18.237,-114.687,6.412
2026-06-01 14:18:23.257,2207042713,136257,2,0.76709,0.04688,0.51147,-30.374,-110.947,11.992
2026-06-01 14:18:23.457,2207042913,136457,1,0.10571,0.06494,0.93579,36.29,-104.321,3.168
2026-06-01 14:18:23.457,2207042913,136457,2,1.03296,-0.05566,0.16309,-11.206,-60.015,6.336
2026-06-01 14:18:24.657,2207044113,136657,1,0.48291,0.15625,0.87866,21.771,-94.557,5.84
2026-06-01 14:18:24.657,2207044113,136657,2,1.08911,-0.05835,-0.02783,-5.634,-67.939,4.779
2026-06-01 14:18:24.857,2207044313,136857,1,0.78418,0.14771,0.81128,-3.267,-12.298,0.756
2026-06-01 14:18:24.857,2207044313,136857,2,1.09717,-0.10034,-0.19043,-7.45,3.0,-1.328
2026-06-01 14:18:24.057,2207043513,137057,1,0.64087,0.15039,0.84497,-11.321,48.229,1.435
2026-06-01 14:18:24.057,2207043513,137057,2,0.99609,-0.07153,-0.01343,11.084,71.137,-0.916
2026-06-01 14:18:24.257,2207043713,137257,1,0.4021,0.1106,0.87549,-25.313,80.542,-3.634
2026-06-01 14:18:24.257,2207043713,137257,2,0.80103,-0.13062,0.03955,15.176,92.702,4.557
2026-06-01 14:18:24.457,2207043913,137457,1,0.01465,0.02026,0.94995,-16.038,115.595,
2026-06-01 14:18:24.457,2207043913,137457,2,0.87842,0.01709,0.6814,42.275,96.939,-5.076
2026-06-01 14:18:25.657,2207045113,137657,1,-0.35376,-0.14526,0.93311,-29.733,100.55,-23.954
2026-06-01 14:18:25.657,2207045113,137657,2,0.61914,0.08179,0.79346,40.74,83.58,-11.679
2026-06-01 14:18:25.857,2207045313,137857,1,-0.74365,-0.13989,0.88452,-13.382,64.58,-10.725
2026-06-01 14:18:25.857,2207045313,137857,2,0.35693,0.22778,0.87988,-13.214,41.626,-11.527
2026-06-01 14:18:25.057,2207044513,138057,1,-0.82886,-0.19165,0.83423,-11.542,32.588,-7.336
2026-06-01 14:18:25.057,2207044513,138057,2,0.2002,0.22095,0.91309,-5.191,20.977,-5.977
2026-06-01 14:18:25.257,2207044713,138257,1,-0.72119,-0.21704,0.62939,-9.603,26.618,-0.908
2026-06-01 14:18:25.257,2207044713,138257,2,0.15308,0.2666,0.96313,7.267,20.176,-1.588
2026-06-01 14:18:25.457,2207044913,138457,1,-0.88037,-0.26709,0.61011,-2.427,0.321,6.359
2026-06-01 14:18:25.457,2207044913,138457,2,0.15356,0.20605,0.87378,-3.16,-0.275,1.061
2026-06-01 14:18:26.657,2207046113,138657,1,-0.92529,-0.23315,0.62158,-2.359,-7.489,3.908
2026-06-01 14:18:26.657,2207046113,138657,2,0.05688,0.22681,1.0127,-9.229,-13.053,5.382
2026-06-01 14:18:26.857,2207046313,138857,1,-1.06055,-0.25,0.78491,14.015,-72.687,7.275
2026-06-01 14:18:26.857,2207046313,138857,2,0.271,0.18604,0.92383,-31.565,-101.885,22.626
2026-06-01 14:18:26.057,2207045513,139057,1,-0.5376,-0.09937,0.84058,27.221,-159.16,7.649
2026-06-01 14:18:26.057,2207045513,139057,2,0.78809,-0.01294,0.46338,-40.389,-152.527,10.031
2026-06-01 14:18:26.257,2207045713,139257,1,0.20996,0.03662,0.71118,40.603,-160.412,0.046
2026-06-01 14:18:26.257,2207045713,139257,2,1.04663,-0.04834,0.13452,-39.084,-122.817,-3.282
2026-06-01 14:18:26.457,2207045913,139457,1,0.68335,0.13574,0.83569,17.206,-69.763,-12.382
2026-06-01 14:18:26.457,2207045913,139457,2,1.0752,-0.03125,-0.1001,-34.809,-53.618,-12.969
2026-06-01 14:18:27.657,2207047113,139657,1,0.77808,0.25317,0.80469,-22.702,-38.214,-22.153
2026-06-01 14:18:27.657,2207047113,139657,2,1.05713,-0.04517,-0.14697,-32.046,-9.496,23.496
2026-06-01 14:18:27.857,2207047313,139857,1,0.76099,0.07593,0.82422,-30.389,-21.282,-59.618
2026-06-01 14:18:27.857,2207047313,139857,2,1.03149,-0.14282,-0.23999,-70.947,0.206,19.756
2026-06-01 14:18:27.057,2207046513,140057,1,0.76001,0.07861,0.85425,-34.718,7.214,-29.267
2026-06-01 14:18:27.057,2207046513,140057,2,0.97705,-0.21655,-0.24219,-36.649,22.183,-1.718
2026-06-01 14:18:27.257,2207046713,140257,1,0.78271,0.11206,0.83252,32.733,8.725,27.573
2026-06-01 14:18:27.257,2207046713,140257,2,1.04224,-0.11597,-0.23779,53.282,1.832,-5.771
2026-06-01 14:18:27.457,2207046913,140457,1,0.67456,0.13477,0.82056,26.74,8.13,11.153
2026-06-01 14:18:27.457,2207046913,140457,2,0.98853,-0.09717,-0.21729,6.42,-4.84,-13.885
2026-06-01 14:18:28.657,2207048113,140657,1,0.74951,0.28516,0.83813,43.519,23.053,53.832
2026-06-01 14:18:28.657,2207048113,140657,2,1.01636,-0.05688,-0.21313,46.336,2.87,2.122
2026-06-01 14:18:28.857,2207048313,140857,1,0.70605,0.16577,0.85474,26.695,29.252,49.611
2026-06-01 14:18:28.857,2207048313,140857,2,1.02686,-0.06738,-0.13965,21.42,6.389,-2.557
2026-06-01 14:18:28.057,2207047513,141057,1,0.55298,0.12915,0.92773,12.817,14.504,19.802
2026-06-01 14:18:28.057,2207047513,141057,2,0.99731,0.01221,-0.15796,1.931,-9.885,-10.611
2026-06-01 14:18:28.257,2207047713,141257,1,0.65967,0.25488,0.85913,-3.275,-3.641,-6.466
2026-06-01 14:18:28.257,2207047713,141257,2,1.08423,0.01611,-0.18848,-15.649,-11.664,4.466
2026-06-01 14:18:28.457,2207047913,141457,1,0.65845,0.24097,0.90308,-30.321,-16.031,-34.137
2026-06-01 14:18:28.457,2207047913,141457,2,1.11328,-0.05005,-0.17139,3.427,4.802,16.534
2026-06-01 14:18:29.657,2207049113,141657,1,0.68359,0.15942,0.78638,-16.786,14.412,-15.344
2026-06-01 14:18:29.657,2207049113,141657,2,0.97681,-0.01392,-0.38159,-11.588,-0.427,15.969
2026-06-01 14:18:29.857,2207049313,141857,1,0.6123,-0.20459,0.93457,-58.519,-0.695,-79.092
2026-06-01 14:18:29.857,2207049313,141857,2,1.1394,-0.09351,-0.12134,62.542,27.344,-43.176
2026-06-01 14:18:29.057,2207048513,142057,1,0.57007,0.10278,0.92603,12.901,11.366,18.237
2026-06-01 14:18:29.057,2207048513,142057,2,0.98291,-0.20825,-0.11353,36.176,0.389,4.397
2026-06-01 14:18:29.257,2207048713,142257,1,0.64209,0.13916,0.92871,23.702,17.802,31.595
2026-06-01 14:18:29.257,2207048713,142257,2,1.02466,-0.17456,-0.1001,7.763,3.191,-1.817
2026-06-01 14:18:29.457,2207048913,142457,1,0.48999,0.36035,1.02051,47.282,13.916,58.458
2026-06-01 14:18:29.457,2207048913,142457,2,1.03906,0.15967,-0.06909,72.824,14.137,22.924
2026-06-01 14:18:30.657,2207050113,142657,1,0.42114,0.29639,0.93896,3.275,-2.038,9.511
2026-06-01 14:18:30.657,2207050113,142657,2,1.00049,0.1106,-0.05298,-24.748,-3.557,3.954
2026-06-01 14:18:30.857,2207050313,142857,1,0.62109,0.21045,1.02783,-16.84,-12.687,-36.053
2026-06-01 14:18:30.857,2207050313,142857,2,1.01807,-0.04907,0.05884,-23.229,3.954,5.069
2026-06-01 14:18:30.057,2207049513,143057,1,0.62305,-0.13062,0.99072,-18.939,40.893,-39.176
2026-06-01 14:18:30.057,2207049513,143057,2,0.99268,-0.39355,0.02539,56.107,61.588,6.855
2026-06-01 14:18:30.257,2207049713,143257,1,0.20825,0.13965,0.91772,4.939,105.115,41.649
2026-06-01 14:18:30.257,2207049713,143257,2,0.7644,0.23364,0.22876,122.359,147.115,-12.672
2026-06-01 14:18:30.457,2207049913,143457,1,-0.19458,-0.03784,1.0686,0.221,58.84,21.412
2026-06-01 14:18:30.457,2207049913,143457,2,0.7085,0.12427,0.40479,30.702,24.55,1.565
2026-06-01 14:18:31.657,2207051113,143657,1,-0.16455,-0.01147,1.05933,-0.145,-12.42,-3.824
2026-06-01 14:18:31.657,2207051113,143657,2,0.75684,0.15088,0.37573,9.084,-13.427,14.794
2026-06-01 14:18:31.857,2207051313,143857,1,-0.00537,-0.06592,1.13086,9.557,-23.55,-11.534
2026-06-01 14:18:31.857,2207051313,143857,2,1.0498,0.12354,0.52832,-40.046,-31.183,-9.656
2026-06-01 14:18:31.057,2207050513,144057,1,0.09741,0.12964,1.34326,-7.458,-36.695,-22.481
2026-06-01 14:18:31.057,2207050513,144057,2,1.1521,-0.16187,0.5376,-55.588,-23.924,-4.282
2026-06-01 14:18:31.257,2207050713,144257,1,0.31494,0.06616,1.38257,-4.779,10.443,-6.198
