datetime,epoch_ms,ts_millis,mpu_id,ax,ay,az,gx,gy,gz
2026-05-22 16:55:46.765,1352486221,83765,2,0.7251,0.67651,0.37158,-2.626,0.221,-0.733
2026-05-22 16:55:47.965,1352487421,83965,1,0.97607,0.06274,0.23242,-12.519,0.031,-7.565
2026-05-22 16:55:47.965,1352487421,83965,2,0.73682,0.66333,0.38062,-15.221,-6.519,-3.313
2026-05-22 16:55:47.165,1352486621,84165,1,0.99341,0.04517,0.24438,-18.122,2.053,-12.351
2026-05-22 16:55:47.165,1352486621,84165,2,0.76318,0.62842,0.37378,-23.916,-6.595,3.198
2026-05-22 16:55:47.365,1352486821,84365,1,1.00073,-0.06812,0.24463,-22.901,-1.267,-4.214
2026-05-22 16:55:47.365,1352486821,84365,2,0.78833,0.58691,0.35376,-22.351,-6.725,5.603
2026-05-22 16:55:47.565,1352487021,84565,1,0.98926,-0.10693,0.23071,-6.519,-2.389,3.885
2026-05-22 16:55:47.565,1352487021,84565,2,0.8064,0.5647,0.3396,-4.786,4.107,5.779
2026-05-22 16:55:47.765,1352487221,84765,1,1.03027,-0.13574,0.21216,-31.84,8.275,-6.13
2026-05-22 16:55:47.765,1352487221,84765,2,0.80493,0.55273,0.38599,-47.565,-10.305,12.275
2026-05-22 16:55:48.965,1352488421,84965,1,0.97021,-0.13965,0.31226,1.321,3.168,1.412
2026-05-22 16:55:48.965,1352488421,84965,2,0.81616,0.54688,0.40576,3.847,2.168,0.374
2026-05-22 16:55:48.165,1352487621,85165,1,0.96094,-0.05615,0.28271,-1.084,2.756,-8.046
2026-05-22 16:55:48.165,1352487621,85165,2,0.79956,0.56934,0.46411,5.679,0.985,9.542
2026-05-22 16:55:48.365,1352487821,85365,1,0.98315,0.01001,0.27612,6.328,2.702,-7.702
2026-05-22 16:55:48.365,1352487821,85365,2,0.79272,0.60449,0.46729,4.145,6.267,4.282
2026-05-22 16:55:48.565,1352488021,85565,1,0.95117,0.09131,0.28735,12.145,6.191,-3.046
2026-05-22 16:55:48.565,1352488021,85565,2,0.77051,0.60767,0.5144,15.87,22.229,-0.817
2026-05-22 16:55:48.765,1352488221,85765,1,0.91553,0.17725,0.34375,-3.084,9.534,-4.344
2026-05-22 16:55:48.765,1352488221,85765,2,0.802,0.57251,0.62451,-18.802,-2.389,8.664
2026-05-22 16:55:49.965,1352489421,85965,1,0.91162,0.12817,0.37476,2.885,-4.504,-0.084
2026-05-22 16:55:49.965,1352489421,85965,2,0.77002,0.56177,0.62378,18.42,-7.458,-8.809
2026-05-22 16:55:49.165,1352488621,86165,1,0.94385,0.10669,0.31543,-11.656,-4.069,-1.992
2026-05-22 16:55:49.165,1352488621,86165,2,0.74829,0.59155,0.50317,-19.656,-6.985,-7.947
2026-05-22 16:55:49.365,1352488821,86365,1,0.94092,0.01685,0.28027,-17.13,-0.328,-3.771
2026-05-22 16:55:49.365,1352488821,86365,2,0.83276,0.55029,0.46777,-22.573,-5.214,-7.313
2026-05-22 16:55:49.565,1352489021,86565,1,1.00073,0.00244,0.30078,-14.74,4.527,-4.099
2026-05-22 16:55:49.565,1352489021,86565,2,0.84058,0.56055,0.45679,2.679,-6.168,20.092
2026-05-22 16:55:49.765,1352489221,86765,1,0.93091,-0.05566,0.3291,-14.74,7.336,15.389
2026-05-22 16:55:49.765,1352489221,86765,2,0.82495,0.49194,0.45654,-3.748,-0.008,11.863
2026-05-22 16:55:50.965,1352490421,86965,1,0.92969,-0.0957,0.35303,-3.863,2.328,19.16
2026-05-22 16:55:50.965,1352490421,86965,2,0.84009,0.50928,0.46851,7.053,0.481,5.412
2026-05-22 16:55:50.165,1352489621,87165,1,0.92822,-0.15576,0.35718,3.122,-2.718,12.122
2026-05-22 16:55:50.165,1352489621,87165,2,0.86353,0.50244,0.46265,15.74,4.244,2.328
2026-05-22 16:55:50.365,1352489821,87365,1,0.93457,-0.16895,0.32593,13.924,-10.122,2.107
2026-05-22 16:55:50.365,1352489821,87365,2,0.85132,0.56104,0.44165,21.336,5.267,-7.87
2026-05-22 16:55:50.565,1352490021,87565,1,0.95532,-0.06519,0.30322,8.664,-4.122,-2.214
2026-05-22 16:55:50.565,1352490021,87565,2,0.81445,0.52075,0.45654,5.015,0.038,0.351
2026-05-22 16:55:50.765,1352490221,87765,1,0.95337,-0.04736,0.29712,5.779,-5.672,-4.069
2026-05-22 16:55:50.765,1352490221,87765,2,0.79932,0.56836,0.41577,2.321,-1.427,-4.351
2026-05-22 16:55:51.965,1352491421,87965,1,0.97803,-0.01758,0.2605,1.046,-4.328,-7.023
2026-05-22 16:55:51.965,1352491421,87965,2,0.7998,0.58765,0.42969,3.84,0.916,-2.069
2026-05-22 16:55:51.165,1352490621,88165,1,0.97998,-0.00293,0.26807,7.0,0.55,-2.542
2026-05-22 16:55:51.165,1352490621,88165,2,0.79272,0.57959,0.43311,8.573,8.832,0.122
2026-05-22 16:55:51.365,1352490821,88365,1,0.97412,0.01855,0.26172,15.305,2.954,4.336
2026-05-22 16:55:51.365,1352490821,88365,2,0.7937,0.59741,0.44775,11.565,12.481,0.55
2026-05-22 16:55:51.565,1352491021,88565,1,0.96973,0.03467,0.26978,13.137,2.756,7.679
2026-05-22 16:55:51.565,1352491021,88565,2,0.78589,0.59692,0.46069,5.359,11.496,0.519
2026-05-22 16:55:51.765,1352491221,88765,1,0.96997,0.03101,0.28345,10.427,3.656,6.107
2026-05-22 16:55:51.765,1352491221,88765,2,0.78589,0.58765,0.46484,7.641,8.542,1.832
2026-05-22 16:55:52.965,1352492421,88965,1,0.96167,0.01758,0.30591,7.122,1.473,4.328
2026-05-22 16:55:52.965,1352492421,88965,2,0.79272,0.58911,0.47217,2.069,4.069,0.901
2026-05-22 16:55:52.165,1352491621,89165,1,0.97339,0.02051,0.29419,2.229,-1.473,1.565
2026-05-22 16:55:52.165,1352491621,89165,2,0.78174,0.59399,0.46826,3.649,2.244,-0.023
2026-05-22 16:55:52.365,1352491821,89365,1,0.97314,0.02173,0.28223,-2.389,-0.466,0.321
2026-05-22 16:55:52.365,1352491821,89365,2,0.79175,0.58594,0.45679,-0.275,0.435,0.336
2026-05-22 16:55:52.565,1352492021,89565,1,0.96045,0.01758,0.28882,-1.183,0.55,0.183
2026-05-22 16:55:52.565,1352492021,89565,2,0.78271,0.59375,0.45459,-1.481,0.122,0.298
2026-05-22 16:55:52.765,1352492221,89765,1,0.96167,0.01294,0.27417,-3.695,-0.84,-0.878
2026-05-22 16:55:52.765,1352492221,89765,2,0.78882,0.59473,0.44751,-2.427,-1.305,1.221
2026-05-22 16:55:53.965,1352493421,89965,1,0.96777,0.00195,0.27344,-5.496,-0.405,-1.038
2026-05-22 16:55:53.965,1352493421,89965,2,0.78882,0.5957,0.44092,-5.565,-2.13,1.351
2026-05-22 16:55:53.165,1352492621,90165,1,0.97729,0.00757,0.27734,-3.603,-0.763,-1.031
2026-05-22 16:55:53.165,1352492621,90165,2,0.78882,0.59961,0.44189,-0.305,1.221,0.695
2026-05-22 16:55:53.365,1352492821,90365,1,0.97021,0.01978,0.28418,-1.779,-0.137,-0.519
2026-05-22 16:55:53.365,1352492821,90365,2,0.78125,0.59888,0.44434,-1.344,0.832,1.076
2026-05-22 16:55:53.667,1352493123,90667,1,0.97119,0.01294,0.27856,-1.206,0.817,-0.305
2026-05-22 16:55:53.667,1352493123,90667,2,0.78857,0.5979,0.4314,-2.458,0.893,1.344
2026-05-22 16:55:53.867,1352493323,90867,1,0.97046,0.01001,0.26709,-1.878,0.489,-0.206
2026-05-22 16:55:53.867,1352493323,90867,2,0.79053,0.59839,0.43921,-3.145,0.725,1.107
2026-05-22 16:55:54.067,1352493523,91067,1,0.96875,0.01123,0.27856,-1.519,0.084,0.359
2026-05-22 16:55:54.067,1352493523,91067,2,0.78491,0.60327,0.44727,-1.115,0.794,1.427
2026-05-22 16:55:54.267,1352493723,91267,1,0.96826,0.01123,0.27246,-0.023,-0.046,1.26
2026-05-22 16:55:54.267,1352493723,91267,2,0.78613,0.60083,0.448,-3.145,1.847,0.389
2026-05-22 16:55:54.467,1352493923,91467,1,0.96948,0.01416,0.28345,-0.771,-0.145,0.656
2026-05-22 16:55:54.467,1352493923,91467,2,0.78198,0.59937,0.45532,2.313,1.053,0.893
2026-05-22 16:55:54.667,1352494123,91667,1,0.96948,0.01147,0.28198,-2.42,-0.145,0.458
2026-05-22 16:55:54.667,1352494123,91667,2,0.7793,0.60571,0.45264,1.168,1.382,1.267
2026-05-22 16:55:54.867,1352494323,91867,1,0.97485,0.01074,0.27759,-3.153,-0.489,-0.588
2026-05-22 16:55:54.867,1352494323,91867,2,0.78198,0.60254,0.43237,-0.939,-0.015,1.191
2026-05-22 16:55:55.067,1352494523,92067,1,0.9751,0.00439,0.28418,-2.634,0.817,-1.298
2026-05-22 16:55:55.067,1352494523,92067,2,0.78174,0.59961,0.43652,-1.87,0.504,1.366
2026-05-22 16:55:55.267,1352494723,92267,1,0.96729,0.01563,0.28418,-2.748,1.122,-0.672
2026-05-22 16:55:55.267,1352494723,92267,2,0.78003,0.60352,0.43921,-0.595,1.321,1.695
2026-05-22 16:55:55.467,1352494923,92467,1,0.96826,0.01709,0.27441,-3.008,0.985,-0.084
2026-05-22 16:55:55.467,1352494923,92467,2,0.78027,0.60059,0.43604,-4.244,0.992,1.847
2026-05-22 16:55:55.667,1352495123,92667,1,0.96558,0.01147,0.27856,-2.229,1.015,0.695
2026-05-22 16:55:55.667,1352495123,92667,2,0.77954,0.59204,0.43823,-2.412,-0.099,1.382
2026-05-22 16:55:55.867,1352495323,92867,1,0.97046,0.00488,0.27637,0.427,-0.206,-0.496
2026-05-22 16:55:55.867,1352495323,92867,2,0.79077,0.59033,0.44775,0.198,0.267,-0.824
2026-05-22 16:55:56.067,1352495523,93067,1,0.96655,0.02637,0.28076,4.137,2.977,2.366
2026-05-22 16:55:56.067,1352495523,93067,2,0.77832,0.59912,0.44824,3.695,5.183,1.435
2026-05-22 16:55:56.267,1352495723,93267,1,0.9624,0.02466,0.30713,2.519,4.267,4.504
2026-05-22 16:55:56.267,1352495723,93267,2,0.77661,0.59619,0.45239,-1.71,2.969,2.603
2026-05-22 16:55:56.467,1352495923,93467,1,0.96021,-0.00098,0.31152,1.473,1.405,2.733
2026-05-22 16:55:56.467,1352495923,93467,2,0.78735,0.59912,0.46484,0.397,3.473,1.992
2026-05-22 16:55:56.667,1352496123,93667,1,0.95703,0.00049,0.31421,2.084,2.565,0.847
2026-05-22 16:55:56.667,1352496123,93667,2,0.78442,0.59302,0.4563,4.557,5.473,1.511
2026-05-22 16:55:56.867,1352496323,93867,1,0.98096,0.03687,0.28809,5.58,2.611,7.618
2026-05-22 16:55:56.867,1352496323,93867,2,0.63867,0.67432,0.47681,1.13,5.664,-6.573
2026-05-22 16:55:57.067,1352496523,94067,1,0.98706,0.06909,0.32983,-4.473,4.443,-4.489
2026-05-22 16:55:57.067,1352496523,94067,2,0.72852,0.63696,0.47925,5.435,9.107,7.13
2026-05-22 16:55:57.267,1352496723,94267,1,0.94604,-0.02783,0.34937,6.153,13.382,3.0
2026-05-22 16:55:57.267,1352496723,94267,2,0.77661,0.57886,0.48022,-10.626,12.527,13.397
2026-05-22 16:55:57.467,1352496923,94467,1,0.91528,-0.07373,0.38916,-11.84,6.206,-0.176
2026-05-22 16:55:57.467,1352496923,94467,2,0.8313,0.51489,0.479,-9.908,-2.046,16.42
2026-05-22 16:55:57.667,1352497123,94667,1,0.89673,-0.14038,0.36792,-4.344,-0.405,2.687
2026-05-22 16:55:57.667,1352497123,94667,2,0.84595,0.50024,0.47705,-2.198,5.473,-3.405
2026-05-22 16:55:57.867,1352497323,94867,1,0.9043,-0.01587,0.35938,6.695,5.534,-6.519
2026-05-22 16:55:57.867,1352497323,94867,2,0.81982,0.48364,0.52808,2.84,9.0,4.214
2026-05-22 16:55:58.067,1352497523,95067,1,0.90015,0.07397,0.37988,18.939,13.45,3.26
2026-05-22 16:55:58.067,1352497523,95067,2,0.76758,0.59668,0.56689,17.336,30.42,10.45
2026-05-22 16:55:58.267,1352497723,95267,1,0.85034,0.16797,0.43726,2.863,3.985,4.733
2026-05-22 16:55:58.267,1352497723,95267,2,0.76978,0.60596,0.63379,-9.679,-8.664,-2.26
2026-05-22 16:55:58.467,1352497923,95467,1,0.84033,0.10205,0.43701,-2.374,3.244,-1.878
2026-05-22 16:55:58.467,1352497923,95467,2,0.78882,0.58789,0.59375,-10.099,-3.786,3.221
2026-05-22 16:55:58.667,1352498123,95667,1,0.85376,0.0542,0.42578,-6.542,-7.443,4.443
2026-05-22 16:55:58.667,1352498123,95667,2,0.80103,0.54346,0.56787,-6.366,-14.244,-4.427
2026-05-22 16:55:58.867,1352498323,95867,1,0.91089,-0.06323,0.42163,-22.023,-4.359,-5.206
2026-05-22 16:55:58.867,1352498323,95867,2,0.85107,0.50415,0.4873,-29.031,-18.053,-6.779
2026-05-22 16:55:59.067,1352498523,96067,1,0.90381,-0.11523,0.37866,-19.634,-25.458,-9.069
2026-05-22 16:55:59.067,1352498523,96067,2,0.83618,0.61792,0.51318,9.305,-13.115,-5.084
2026-05-22 16:55:59.267,1352498723,96267,1,0.98071,-0.01489,0.31348,-27.038,-5.084,-22.832
2026-05-22 16:55:59.267,1352498723,96267,2,0.83301,0.58105,0.49536,-32.473,-19.0,2.244
2026-05-22 16:55:59.467,1352498923,96467,1,0.95044,0.00317,0.33423,-25.901,2.443,-16.931
2026-05-22 16:55:59.467,1352498923,96467,2,0.78198,0.56641,0.49414,-14.824,-13.405,-2.527
2026-05-22 16:55:59.667,1352499123,96667,1,0.9436,0.04736,0.33398,-12.366,-0.901,-7.298
2026-05-22 16:55:59.667,1352499123,96667,2,0.79224,0.56665,0.47827,-10.023,-10.702,-0.16
2026-05-22 16:55:59.867,1352499323,96867,1,0.95801,0.02319,0.3147,-15.412,-1.733,-7.779
2026-05-22 16:55:59.867,1352499323,96867,2,0.8064,0.5769,0.47095,-11.496,-8.023,0.504
2026-05-22 16:56:00.067,1352499523,97067,1,0.95386,0.00122,0.32544,-6.496,2.679,-2.389
2026-05-22 16:56:00.067,1352499523,97067,2,0.81177,0.56689,0.46265,-5.649,4.71,2.84
2026-05-22 16:56:00.267,1352499723,97267,1,0.93774,0.01074,0.35059,3.511,3.763,1.107
2026-05-22 16:56:00.267,1352499723,97267,2,0.79932,0.56616,0.47437,0.221,5.183,1.481
2026-05-22 16:56:00.467,1352499923,97467,1,0.94214,0.0188,0.34009,2.168,0.069,1.351
2026-05-22 16:56:00.467,1352499923,97467,2,0.79004,0.57861,0.48608,2.13,1.916,0.779
2026-05-22 16:56:00.667,1352500123,97667,1,0.94019,0.02417,0.33984,-0.443,-1.0,0.779
2026-05-22 16:56:00.667,1352500123,97667,2,0.80493,0.57764,0.47388,2.382,1.817,1.405
2026-05-22 16:56:00.867,1352500323,97867,1,0.9458,0.01953,0.33203,-1.588,1.931,0.954
2026-05-22 16:56:00.867,1352500323,97867,2,0.80493,0.5752,0.48242,-0.702,2.115,2.412
2026-05-22 16:56:01.067,1352500523,98067,1,0.93604,0.0127,0.34399,-0.931,2.511,1.504
2026-05-22 16:56:01.067,1352500523,98067,2,0.80273,0.56226,0.47705,0.336,2.641,2.595
2026-05-22 16:56:01.267,1352500723,98267,1,0.94019,0.01245,0.35181,0.382,2.565,2.832
2026-05-22 16:56:01.267,1352500723,98267,2,0.79688,0.5647,0.4751,0.328,3.229,3.023
2026-05-22 16:56:01.467,1352500923,98467,1,0.93286,0.00439,0.35742,1.092,1.42,2.16
2026-05-22 16:56:01.467,1352500923,98467,2,0.8186,0.55908,0.49097,0.794,3.656,2.74
2026-05-22 16:56:01.667,1352501123,98667,1,0.93091,0.00366,0.34766,2.687,2.634,2.45
2026-05-22 16:56:01.667,1352501123,98667,2,0.80786,0.55811,0.49683,-0.557,5.397,2.595
2026-05-22 16:56:01.867,1352501323,98867,1,0.91577,0.01733,0.35962,2.573,4.435,1.748
2026-05-22 16:56:01.867,1352501323,98867,2,0.82104,0.55225,0.50928,0.366,6.542,3.718
2026-05-22 16:56:02.067,1352501523,99067,1,0.88379,-0.00464,0.40503,3.87,10.16,4.176
2026-05-22 16:56:02.067,1352501523,99067,2,0.82886,0.52075,0.54956,7.756,10.641,5.824
2026-05-22 16:56:02.267,1352501723,99267,1,0.89429,0.02393,0.28906,18.076,39.344,10.977
2026-05-22 16:56:02.267,1352501723,99267,2,0.80591,0.43066,0.61255,-5.198,58.885,28.023
2026-05-22 16:56:02.467,1352501923,99467,1,0.48047,-0.01855,0.41772,15.534,64.763,17.992
2026-05-22 16:56:02.467,1352501923,99467,2,0.61816,0.33057,0.63281,6.893,67.282,37.908
2026-05-22 16:56:02.667,1352502123,99667,1,0.4812,-0.00439,0.64624,9.069,42.206,17.504
2026-05-22 16:56:02.667,1352502123,99667,2,0.72729,0.26685,0.78833,9.412,38.695,28.053
2026-05-22 16:56:02.867,1352502323,99867,1,0.42578,0.03174,0.81445,11.595,35.466,13.763
2026-05-22 16:56:02.867,1352502323,99867,2,0.79419,0.37622,1.09985,1.656,26.786,14.359
2026-05-22 16:56:03.067,1352502523,100067,1,0.42017,0.08374,0.92432,2.71,-11.664,8.092
2026-05-22 16:56:03.067,1352502523,100067,2,0.73535,0.41675,1.09766,21.695,6.641,-3.015
2026-05-22 16:56:03.267,1352502723,100267,1,0.50708,0.01196,0.85034,-24.0,-16.053,8.885
2026-05-22 16:56:03.267,1352502723,100267,2,0.68726,0.38745,0.97046,6.489,-12.092,7.015
2026-05-22 16:56:03.467,1352502923,100467,1,0.56567,-0.09033,0.8103,-8.565,-26.206,-0.153
2026-05-22 16:56:03.467,1352502923,100467,2,0.82129,0.41675,0.94336,15.305,-22.336,-4.595
2026-05-22 16:56:03.667,1352503123,100667,1,0.70239,-0.073,0.70581,-5.695,-21.885,-3.275
2026-05-22 16:56:03.667,1352503123,100667,2,0.84155,0.47876,0.90405,16.618,-18.931,-3.542
2026-05-22 16:56:03.867,1352503323,100867,1,0.66455,-0.0769,0.61792,2.359,-4.344,1.733
2026-05-22 16:56:03.867,1352503323,100867,2,0.80786,0.44702,0.81396,5.389,1.229,-0.656
2026-05-22 16:56:04.067,1352503523,101067,1,0.8667,-0.06299,0.7439,4.397,10.916,0.626
2026-05-22 16:56:04.067,1352503523,101067,2,1.04224,0.61304,0.84009,-6.191,17.74,0.26
2026-05-22 16:56:04.267,1352503723,101267,1,0.6499,-0.01001,0.72827,-10.855,42.595,3.595
2026-05-22 16:56:04.267,1352503723,101267,2,0.83325,0.42334,0.9668,-17.718,21.634,5.168
2026-05-22 16:56:04.467,1352503923,101467,1,0.46655,0.05151,0.9375,5.183,3.107,0.069
2026-05-22 16:56:04.467,1352503923,101467,2,0.75415,0.47998,0.99976,5.046,3.359,-2.466
2026-05-22 16:56:04.667,1352504123,101667,1,0.47754,0.02173,0.87231,2.244,-21.573,-0.237
2026-05-22 16:56:04.667,1352504123,101667,2,0.68506,0.45386,0.88013,18.053,-29.015,-1.489
2026-05-22 16:56:04.867,1352504323,101867,1,0.56274,0.01025,0.67554,-14.695,-53.382,-10.802
2026-05-22 16:56:04.867,1352504323,101867,2,0.70044,0.49927,0.68384,-5.565,-57.794,-7.344
2026-05-22 16:56:05.067,1352504523,102067,1,0.37158,-0.01074,0.21338,-0.435,-79.206,-8.908
2026-05-22 16:56:05.067,1352504523,102067,2,0.49414,0.33984,0.57642,47.023,-59.252,-25.557
2026-05-22 16:56:05.267,1352504723,102267,1,0.93018,-0.03955,0.25269,0.046,-20.702,-2.649
2026-05-22 16:56:05.267,1352504723,102267,2,0.73804,0.57837,0.34814,-8.947,-14.931,-3.901
2026-05-22 16:56:05.467,1352504923,102467,1,0.93579,0.03101,0.31226,-2.13,-4.603,2.802
2026-05-22 16:56:05.467,1352504923,102467,2,0.76318,0.64526,0.35107,-2.634,4.405,3.076
2026-05-22 16:56:05.667,1352505123,102667,1,0.97461,0.04102,0.31274,-3.71,1.176,1.031
2026-05-22 16:56:05.667,1352505123,102667,2,0.75903,0.62402,0.40283,-5.969,-2.718,1.42
2026-05-22 16:56:05.867,1352505323,102867,1,0.95703,0.00562,0.30054,-1.466,4.779,0.359
2026-05-22 16:56:05.867,1352505323,102867,2,0.78442,0.62207,0.42334,-3.122,7.099,4.115
2026-05-22 16:56:06.067,1352505523,103067,1,0.9248,0.00317,0.27197,-2.901,27.45,1.672
2026-05-22 16:56:06.067,1352505523,103067,2,0.75635,0.55029,0.40137,-27.267,27.328,8.679
2026-05-22 16:56:06.267,1352505723,103267,1,0.83008,0.0293,0.37036,-3.626,33.137,-2.282
2026-05-22 16:56:06.267,1352505723,103267,2,0.63647,0.46851,0.53442,-26.405,41.351,21.939
2026-05-22 16:56:06.467,1352505923,103467,1,0.60596,0.03833,0.42139,0.817,30.145,5.756
2026-05-22 16:56:06.467,1352505923,103467,2,0.67139,0.51733,0.59717,9.954,21.763,9.679
2026-05-22 16:56:06.667,1352506123,103667,1,0.71631,-0.06299,0.54321,-1.153,11.779,3.458
2026-05-22 16:56:06.667,1352506123,103667,2,0.74341,0.42651,0.67773,8.519,9.626,7.733
2026-05-22 16:56:06.867,1352506323,103867,1,0.72656,-0.02588,0.6521,-2.565,11.29,-0.55
2026-05-22 16:56:06.867,1352506323,103867,2,0.78955,0.49561,0.7395,-6.519,10.893,0.336
2026-05-22 16:56:07.067,1352506523,104067,1,0.79614,-0.0022,0.65039,-7.786,3.45,1.519
2026-05-22 16:56:07.067,1352506523,104067,2,0.74146,0.5498,0.79565,40.282,11.992,9.634
2026-05-22 16:56:07.267,1352506723,104267,1,0.75537,-0.01587,0.83569,-13.191,-7.053,4.969
2026-05-22 16:56:07.267,1352506723,104267,2,0.91846,0.57007,0.82544,30.702,-10.763,8.313
2026-05-22 16:56:07.467,1352506923,104467,1,0.8125,-0.01489,0.62476,3.626,-15.908,-2.832
2026-05-22 16:56:07.467,1352506923,104467,2,0.67285,0.43213,0.8418,-10.664,2.206,-4.855
2026-05-22 16:56:07.667,1352507123,104667,1,0.78052,-0.04443,0.57422,-14.756,-0.084,-3.824
2026-05-22 16:56:07.667,1352507123,104667,2,0.83716,0.54468,0.72412,-0.969,-3.519,2.466
2026-05-22 16:56:07.867,1352507323,104867,1,0.77344,-0.04517,0.61938,-2.786,8.275,3.176
2026-05-22 16:56:07.867,1352507323,104867,2,0.75928,0.48218,0.76318,-15.031,4.244,6.489
2026-05-22 16:56:08.067,1352507523,105067,1,0.67334,-0.09351,0.60767,0.221,4.015,-2.817
2026-05-22 16:56:08.067,1352507523,105067,2,0.77441,0.4707,0.75342,3.87,5.107,-0.519
2026-05-22 16:56:08.267,1352507723,105267,1,0.71851,-0.104,0.55542,-21.702,-1.557,2.092
2026-05-22 16:56:08.267,1352507723,105267,2,0.75928,0.5686,0.77271,0.328,4.206,1.641
2026-05-22 16:56:08.467,1352507923,105467,1,0.72632,-0.1416,0.61963,-9.359,-3.031,-7.176
2026-05-22 16:56:08.467,1352507923,105467,2,0.771,0.49365,0.76001,2.649,1.023,1.58
2026-05-22 16:56:08.667,1352508123,105667,1,0.74316,-0.11914,0.60352,-13.611,-3.13,-0.824
2026-05-22 16:56:08.667,1352508123,105667,2,0.78589,0.47998,0.74121,-1.0,-0.55,1.191
2026-05-22 16:56:08.867,1352508323,105867,1,0.76147,-0.12988,0.58252,-13.328,-0.687,-2.206
2026-05-22 16:56:08.867,1352508323,105867,2,0.79492,0.48901,0.75537,0.137,2.366,-0.26
2026-05-22 16:56:09.067,1352508523,106067,1,0.74146,-0.12744,0.57153,-4.183,-2.038,1.885
2026-05-22 16:56:09.067,1352508523,106067,2,0.75635,0.49634,0.76904,0.527,0.069,2.405
2026-05-22 16:56:09.267,1352508723,106267,1,0.74561,-0.13452,0.58521,-3.481,-1.198,-0.374
2026-05-22 16:56:09.267,1352508723,106267,2,0.75122,0.51099,0.74561,1.786,-2.87,-0.649
2026-05-22 16:56:09.467,1352508923,106467,1,0.7334,-0.14038,0.57715,2.252,-0.344,-1.137
2026-05-22 16:56:09.467,1352508923,106467,2,0.81909,0.47559,0.73999,-0.275,-1.656,1.985
2026-05-22 16:56:09.667,1352509123,106667,1,0.75439,-0.14478,0.56689,-0.252,0.084,0.618
2026-05-22 16:56:09.667,1352509123,106667,2,0.79077,0.50903,0.7439,-0.794,1.382,0.58
2026-05-22 16:56:09.867,1352509323,106867,1,0.72974,-0.12598,0.5813,-1.084,-0.443,1.702
2026-05-22 16:56:09.867,1352509323,106867,2,0.77686,0.50879,0.74707,-1.847,0.214,1.481
2026-05-22 16:56:10.067,1352509523,107067,1,0.74731,-0.12183,0.56934,-4.267,0.374,1.214
2026-05-22 16:56:10.067,1352509523,107067,2,0.78052,0.5061,0.73975,-0.42,2.015,1.244
2026-05-22 16:56:10.267,1352509723,107267,1,0.78027,-0.11255,0.64087,11.573,19.267,0.573
2026-05-22 16:56:10.267,1352509723,107267,2,0.86743,0.56885,0.80347,5.237,13.832,2.588
2026-05-22 16:56:10.467,1352509923,107467,1,0.85596,-0.05518,0.77979,28.756,50.725,12.885
2026-05-22 16:56:10.467,1352509923,107467,2,0.94067,0.61768,0.9248,-19.237,56.13,9.053
2026-05-22 16:56:10.667,1352510123,107667,1,0.50854,-0.01489,0.72583,28.496,73.267,4.779
2026-05-22 16:56:10.667,1352510123,107667,2,0.75342,0.47192,1.04395,-35.015,55.931,11.29
2026-05-22 16:56:10.867,1352510323,107867,1,0.22949,0.04883,0.77051,12.076,74.214,-4.824
2026-05-22 16:56:10.867,1352510323,107867,2,0.58618,0.4021,1.06396,-41.527,58.962,11.16
2026-05-22 16:56:11.067,1352510523,108067,1,-0.05005,0.02661,0.69189,-11.702,61.809,2.809
2026-05-22 16:56:11.067,1352510523,108067,2,0.28076,0.13159,1.17285,-31.695,64.305,5.947
2026-05-22 16:56:11.267,1352510723,108267,1,-0.3335,0.03979,0.69507,-5.473,38.298,1.855
2026-05-22 16:56:11.267,1352510723,108267,2,0.12451,0.01196,1.29224,-24.183,33.321,11.076
2026-05-22 16:56:11.467,1352510923,108467,1,-0.40088,-0.00732,0.70166,-5.779,14.977,-4.015
2026-05-22 16:56:11.467,1352510923,108467,2,0.06323,-0.13892,1.38843,-26.176,20.122,3.718
2026-05-22 16:56:11.667,1352511123,108667,1,-0.51514,0.01758,0.89575,12.939,8.45,-4.489
2026-05-22 16:56:11.667,1352511123,108667,2,0.06763,-0.16357,1.45386,-12.603,-11.878,-7.504
2026-05-22 16:56:11.867,1352511323,108867,1,-0.45215,0.07593,0.89233,-1.809,-18.145,-4.779
2026-05-22 16:56:11.867,1352511323,108867,2,0.05225,-0.05615,1.47534,18.939,-29.282,-8.252
2026-05-22 16:56:12.067,1352511523,109067,1,-0.22876,0.08521,0.95776,1.588,-48.855,-3.176
2026-05-22 16:56:12.067,1352511523,109067,2,0.28638,0.0979,1.38525,35.702,-61.588,-7.397
2026-05-22 16:56:12.267,1352511723,109267,1,-0.12231,0.07007,0.88208,-2.122,-80.427,-4.885
2026-05-22 16:56:12.267,1352511723,109267,2,0.45483,0.30005,1.10498,48.748,-103.252,-9.939
2026-05-22 16:56:12.467,1352511923,109467,1,0.23779,0.04321,0.66455,-10.015,-122.214,-7.695
2026-05-22 16:56:12.467,1352511923,109467,2,0.74292,0.45947,0.75781,39.16,-111.344,-21.443
2026-05-22 16:56:12.667,1352512123,109667,1,0.70093,-0.04248,0.34717,9.641,-114.847,-4.473
2026-05-22 16:56:12.667,1352512123,109667,2,0.84766,0.52441,0.521,43.076,-71.221,-27.656
2026-05-22 16:56:12.867,1352512323,109867,1,0.91992,0.00854,0.22217,1.16,-37.924,-2.076
2026-05-22 16:56:12.867,1352512323,109867,2,0.89331,0.70752,0.37695,-2.748,-12.275,-8.443
2026-05-22 16:56:13.067,1352512523,110067,1,0.96655,0.07739,0.29224,-4.634,-8.092,-0.725
2026-05-22 16:56:13.067,1352512523,110067,2,0.75806,0.64136,0.3584,0.198,-4.977,1.382
2026-05-22 16:56:13.267,1352512723,110267,1,0.96948,0.03662,0.27344,-2.336,0.786,-1.397
2026-05-22 16:56:13.267,1352512723,110267,2,0.78833,0.63428,0.37231,0.115,2.206,3.359
2026-05-22 16:56:13.467,1352512923,110467,1,0.97144,0.05347,0.29102,-1.061,13.71,0.504
2026-05-22 16:56:13.467,1352512923,110467,2,0.81104,0.62866,0.40283,-12.206,16.328,10.198
2026-05-22 16:56:13.667,1352513123,110667,1,0.95142,0.05493,0.23975,-2.763,53.046,2.305
2026-05-22 16:56:13.667,1352513123,110667,2,0.86987,0.59351,0.52539,-26.771,61.756,27.443
2026-05-22 16:56:13.867,1352513323,110867,1,0.62769,0.1062,0.44287,8.802,120.74,1.672
2026-05-22 16:56:13.867,1352513323,110867,2,0.66162,0.55664,0.75098,-53.794,107.45,21.351
2026-05-22 16:56:14.067,1352513523,111067,1,0.13965,0.08716,0.77588,6.214,115.099,-0.473
2026-05-22 16:56:14.067,1352513523,111067,2,0.56348,0.4126,1.13208,-54.435,85.618,10.351
2026-05-22 16:56:14.267,1352513723,111267,1,-0.04517,0.10913,0.85205,-1.992,75.031,2.695
2026-05-22 16:56:14.267,1352513723,111267,2,0.29736,0.08447,1.32153,-42.168,56.969,7.641
2026-05-22 16:56:14.467,1352513923,111467,1,-0.27856,0.09644,0.86792,-2.779,48.756,-2.168
2026-05-22 16:56:14.467,1352513923,111467,2,0.17017,0.06641,1.41968,-14.336,31.939,7.878
2026-05-22 16:56:14.667,1352514123,111667,1,-0.427,0.12451,0.81958,-4.58,25.435,-2.687
2026-05-22 16:56:14.667,1352514123,111667,2,0.10352,-0.02173,1.4314,-14.924,16.985,10.282
2026-05-22 16:56:14.867,1352514323,111867,1,-0.46216,0.06738,0.75293,2.824,8.992,1.649
2026-05-22 16:56:14.867,1352514323,111867,2,0.04199,-0.02563,1.4873,-4.389,1.496,2.489
2026-05-22 16:56:15.067,1352514523,112067,1,-0.43335,0.06982,0.76709,-3.885,-11.824,3.359
2026-05-22 16:56:15.067,1352514523,112067,2,0.12573,-0.03442,1.48364,7.924,-3.511,3.718
2026-05-22 16:56:15.267,1352514723,112267,1,-0.55835,0.14844,0.89063,-5.336,-50.496,4.015
2026-05-22 16:56:15.267,1352514723,112267,2,0.13135,0.04639,1.46924,35.527,-48.977,-0.794
2026-05-22 16:56:15.467,1352514923,112467,1,-0.20996,0.05103,0.85132,1.328,-74.45,5.511
2026-05-22 16:56:15.467,1352514923,112467,2,0.39648,0.27979,1.22119,63.977,-71.901,-8.252
2026-05-22 16:56:15.667,1352515123,112667,1,0.13257,0.12524,0.72192,0.893,-87.985,-2.947
2026-05-22 16:56:15.667,1352515123,112667,2,0.64331,0.44727,0.94727,38.664,-86.588,-6.802
2026-05-22 16:56:15.867,1352515323,112867,1,0.43701,0.08252,0.58838,-6.061,-90.542,-3.847
2026-05-22 16:56:15.867,1352515323,112867,2,0.74023,0.51416,0.63281,26.794,-78.489,-10.481
2026-05-22 16:56:16.067,1352515523,113067,1,0.81592,0.0752,0.3999,-6.321,-81.031,8.695
2026-05-22 16:56:16.067,1352515523,113067,2,0.83032,0.64087,0.54272,39.405,-50.244,-14.908
2026-05-22 16:56:16.267,1352515723,113267,1,0.91089,0.06177,0.37573,-4.656,-36.42,3.176
2026-05-22 16:56:16.267,1352515723,113267,2,0.802,0.61719,0.41772,12.679,-26.695,-4.817
2026-05-22 16:56:16.467,1352515923,113467,1,0.93213,0.02588,0.32153,-4.496,-16.908,1.992
2026-05-22 16:56:16.467,1352515923,113467,2,0.78833,0.61084,0.35034,4.298,-12.206,-4.053
2026-05-22 16:56:16.667,1352516123,113667,1,0.98486,0.05786,0.2876,2.099,-9.397,1.992
2026-05-22 16:56:16.667,1352516123,113667,2,0.77075,0.62109,0.29395,-0.397,-4.809,-0.183
2026-05-22 16:56:16.867,1352516323,113867,1,0.98071,0.052,0.2417,-2.511,-2.588,-0.206
2026-05-22 16:56:16.867,1352516323,113867,2,0.76489,0.6333,0.24341,-4.656,-1.924,2.412
2026-05-22 16:56:17.067,1352516523,114067,1,0.98169,0.04272,0.26196,2.427,4.817,1.313
2026-05-22 16:56:17.067,1352516523,114067,2,0.75781,0.61914,0.26709,-2.473,6.863,4.382
2026-05-22 16:56:17.267,1352516723,114267,1,0.96313,0.0459,0.29785,1.008,3.244,2.885
2026-05-22 16:56:17.267,1352516723,114267,2,0.76123,0.61304,0.29492,0.015,5.954,3.58
2026-05-22 16:56:17.467,1352516923,114467,1,0.9585,0.05347,0.28833,-1.908,3.099,0.489
2026-05-22 16:56:17.467,1352516923,114467,2,0.77124,0.60596,0.30493,-5.092,1.008,3.977
2026-05-22 16:56:17.667,1352517123,114667,1,0.96313,0.03613,0.29102,-8.328,1.947,-0.053
2026-05-22 16:56:17.667,1352517123,114667,2,0.77441,0.59326,0.28418,-3.992,0.115,3.878
2026-05-22 16:56:17.867,1352517323,114867,1,0.96118,0.02246,0.30566,-4.313,0.382,-0.176
2026-05-22 16:56:17.867,1352517323,114867,2,0.78101,0.59521,0.302,-1.519,0.336,1.695
2026-05-22 16:56:18.067,1352517523,115067,1,0.9585,0.02124,0.30103,-3.947,2.153,-1.183
2026-05-22 16:56:18.067,1352517523,115067,2,0.78662,0.58862,0.29419,-4.405,0.519,1.412
2026-05-22 16:56:18.267,1352517723,115267,1,0.94946,0.02954,0.30908,0.565,5.885,0.595
2026-05-22 16:56:18.267,1352517723,115267,2,0.7998,0.58911,0.31665,-5.74,5.573,3.802
2026-05-22 16:56:18.467,1352517923,115467,1,0.95044,0.03223,0.32495,0.496,10.405,0.916
2026-05-22 16:56:18.467,1352517923,115467,2,0.81177,0.58228,0.3584,-5.221,13.031,5.16
2026-05-22 16:56:18.667,1352518123,115667,1,0.91797,0.03101,0.35425,0.969,21.42,-1.198
2026-05-22 16:56:18.667,1352518123,115667,2,0.82007,0.57715,0.41406,-5.275,22.809,7.84
2026-05-22 16:56:18.867,1352518323,115867,1,0.87305,0.05713,0.3606,-3.023,43.702,-3.588
2026-05-22 16:56:18.867,1352518323,115867,2,0.86816,0.52856,0.55078,-28.87,57.954,20.863
2026-05-22 16:56:19.067,1352518523,116067,1,0.65894,0.01245,0.44531,-3.542,78.313,-2.817
2026-05-22 16:56:19.067,1352518523,116067,2,0.76196,0.48242,0.62061,-25.687,90.076,22.779
2026-05-22 16:56:19.267,1352518723,116267,1,0.33569,0.03516,0.57959,-2.511,109.58,-4.557
2026-05-22 16:56:19.267,1352518723,116267,2,0.63037,0.4126,0.87036,-49.099,107.435,16.191
2026-05-22 16:56:19.467,1352518923,116467,1,-0.125,0.10864,0.74438,2.626,112.427,-6.664
2026-05-22 16:56:19.467,1352518923,116467,2,0.25659,0.11255,1.19897,-48.008,93.115,16.366
2026-05-22 16:56:19.667,1352519123,116667,1,-0.55981,0.03687,0.95581,-6.603,58.206,2.588
2026-05-22 16:56:19.667,1352519123,116667,2,0.12573,0.02441,1.50171,-22.321,38.71,7.863
2026-05-22 16:56:19.867,1352519323,116867,1,-0.53906,0.06226,0.80908,-6.275,16.382,3.679
2026-05-22 16:56:19.867,1352519323,116867,2,0.08105,-0.03174,1.43384,-13.13,11.969,5.969
2026-05-22 16:56:20.067,1352519523,117067,1,-0.49585,0.03076,0.7063,-12.244,1.366,-2.855
2026-05-22 16:56:20.067,1352519523,117067,2,0.0918,-0.04688,1.41333,-6.58,2.267,0.695
2026-05-22 16:56:20.267,1352519723,117267,1,-0.59839,0.01294,0.81958,1.55,3.076,-0.046
2026-05-22 16:56:20.267,1352519723,117267,2,0.05054,-0.06836,1.44727,3.176,-2.076,-4.771
2026-05-22 16:56:20.467,1352519923,117467,1,-0.53979,0.09351,0.8335,-2.809,-10.702,1.427
2026-05-22 16:56:20.467,1352519923,117467,2,0.05249,0.00269,1.48071,20.344,-25.733,-1.282
2026-05-22 16:56:20.667,1352520123,117667,1,-0.42236,0.09937,0.88965,3.977,-58.015,4.435
2026-05-22 16:56:20.667,1352520123,117667,2,0.20752,0.17383,1.37231,48.092,-64.305,-5.26
2026-05-22 16:56:20.867,1352520323,117867,1,-0.19067,0.08057,0.82324,0.824,-96.214,2.298
2026-05-22 16:56:20.867,1352520323,117867,2,0.45508,0.30396,1.10522,51.985,-92.763,-6.893
2026-05-22 16:56:21.067,1352520523,118067,1,0.2373,0.04272,0.68457,-11.412,-100.992,-5.122
2026-05-22 16:56:21.067,1352520523,118067,2,0.68604,0.43701,0.86475,35.748,-90.168,-10.901
2026-05-22 16:56:21.267,1352520723,118267,1,0.61719,0.03369,0.47485,-15.26,-111.679,-8.458
2026-05-22 16:56:21.267,1352520723,118267,2,0.86475,0.52856,0.57959,10.412,-85.198,-17.0
2026-05-22 16:56:21.467,1352520923,118467,1,0.92871,-0.01001,0.34546,0.885,-42.954,-0.786
2026-05-22 16:56:21.467,1352520923,118467,2,0.90625,0.52295,0.41431,-6.618,-21.137,-2.282
2026-05-22 16:56:21.667,1352521123,118667,1,0.91577,0.00391,0.33423,-0.489,7.26,0.985
2026-05-22 16:56:21.667,1352521123,118667,2,0.80884,0.57642,0.40698,-8.824,15.763,6.817
2026-05-22 16:56:21.867,1352521323,118867,1,0.68164,0.01782,0.30225,-2.649,31.748,0.13
2026-05-22 16:56:21.867,1352521323,118867,2,0.58423,0.34741,0.51245,-27.191,31.687,9.916
2026-05-22 16:56:22.067,1352521523,119067,1,0.60815,-0.01416,0.40039,0.618,30.725,6.053
2026-05-22 16:56:22.067,1352521523,119067,2,0.66772,0.42798,0.51294,-8.779,36.023,7.611
2026-05-22 16:56:22.267,1352521723,119267,1,0.57349,-0.03003,0.73853,-3.42,20.817,6.466
2026-05-22 16:56:22.267,1352521723,119267,2,0.7666,0.49219,0.7373,-29.947,14.863,0.763
2026-05-22 16:56:22.467,1352521923,119467,1,0.76172,-0.052,0.67114,-2.214,3.168,6.191
2026-05-22 16:56:22.467,1352521923,119467,2,0.87598,0.57227,0.76733,0.008,15.336,-6.076
2026-05-22 16:56:22.667,1352522123,119667,1,0.69092,-0.04639,0.84717,-1.511,8.084,0.069
2026-05-22 16:56:22.667,1352522123,119667,2,0.92725,0.59399,0.80981,49.023,5.527,-0.229
2026-05-22 16:56:22.867,1352522323,119867,1,0.73804,-0.02588,0.77222,7.908,-10.954,0.489
2026-05-22 16:56:22.867,1352522323,119867,2,0.90503,0.6228,0.9436,11.527,-9.916,6.733
2026-05-22 16:56:23.067,1352522523,120067,1,0.62109,-0.07202,0.6853,-0.405,3.496,0.229
2026-05-22 16:56:23.067,1352522523,120067,2,0.73511,0.6106,0.729,9.405,9.954,-4.817
2026-05-22 16:56:23.267,1352522723,120267,1,0.67749,0.00366,0.64087,-1.565,2.55,-3.908
2026-05-22 16:56:23.267,1352522723,120267,2,0.79785,0.56104,0.7439,-9.87,-0.71,1.435
2026-05-22 16:56:23.467,1352522923,120467,1,0.72437,-0.01904,0.74365,5.015,13.275,-1.679
2026-05-22 16:56:23.467,1352522923,120467,2,1.00732,0.76807,0.95703,-20.366,34.664,0.313
2026-05-22 16:56:23.667,1352523123,120667,1,0.60498,0.00269,0.97852,9.687,35.702,-2.794
2026-05-22 16:56:23.667,1352523123,120667,2,0.75684,0.55664,0.96484,-8.389,21.718,-1.496
2026-05-22 16:56:23.867,1352523323,120867,1,0.47363,0.08276,0.89648,4.221,-4.565,-3.351
2026-05-22 16:56:23.867,1352523323,120867,2,0.62915,0.4812,0.89282,3.275,-20.359,-1.595
2026-05-22 16:56:24.067,1352523523,121067,1,0.50269,0.08325,0.67505,-5.733,-38.29,-1.084
2026-05-22 16:56:24.067,1352523523,121067,2,0.6499,0.49048,0.70386,16.893,-57.763,2.473
2026-05-22 16:56:24.346,1352523802,121346,1,0.66553,0.01245,0.44824,1.351,-50.603,3.954
2026-05-22 16:56:24.346,1352523802,121346,2,0.63794,0.44629,0.53687,25.13,-37.786,-6.496
2026-05-22 16:56:24.546,1352524002,121546,1,0.68896,0.01001,0.22437,2.55,-42.931,1.542
2026-05-22 16:56:24.546,1352524002,121546,2,0.75732,0.51099,0.45825,26.053,-28.893,-4.374
2026-05-22 16:56:24.746,1352524202,121746,1,0.93628,0.02075,0.31494,-5.397,-18.366,-1.031
2026-05-22 16:56:24.746,1352524202,121746,2,0.78125,0.58521,0.32568,11.695,-14.725,0.26
2026-05-22 16:56:25.946,1352525402,121946,1,0.97754,0.02344,0.28198,-3.061,-7.618,-1.16
2026-05-22 16:56:25.946,1352525402,121946,2,0.77368,0.60693,0.3335,-5.947,-5.527,1.557
2026-05-22 16:56:25.146,1352524602,122146,1,0.94922,0.02466,0.29639,-1.099,7.908,1.45
2026-05-22 16:56:25.146,1352524602,122146,2,0.77856,0.60767,0.30811,-4.053,3.977,2.435
2026-05-22 16:56:25.346,1352524802,122346,1,0.93335,0.01489,0.34766,-0.588,9.16,2.786
2026-05-22 16:56:25.346,1352524802,122346,2,0.78442,0.5835,0.35693,-4.611,5.58,1.282
2026-05-22 16:56:25.546,1352525002,122546,1,0.92554,0.01514,0.37695,7.244,4.115,2.26
2026-05-22 16:56:25.546,1352525002,122546,2,0.77368,0.5957,0.36963,-2.389,3.763,2.947
2026-05-22 16:56:25.746,1352525202,122746,1,0.93433,0.00439,0.34546,-2.305,2.366,0.405
2026-05-22 16:56:25.746,1352525202,122746,2,0.79785,0.59937,0.37549,-3.771,2.191,3.252
2026-05-22 16:56:26.946,1352526402,122946,1,0.93042,0.00513,0.35449,-6.58,10.336,-3.58
2026-05-22 16:56:26.946,1352526402,122946,2,0.80371,0.58765,0.37939,-10.71,5.71,5.282
2026-05-22 16:56:26.146,1352525602,123146,1,0.90747,0.00879,0.37817,5.55,26.336,-3.328
2026-05-22 16:56:26.146,1352525602,123146,2,0.82666,0.58008,0.45239,-9.267,26.969,7.481
2026-05-22 16:56:26.346,1352525802,123346,1,0.68652,-0.02344,0.30493,-0.947,78.557,-4.595
2026-05-22 16:56:26.346,1352525802,123346,2,0.68384,0.41284,0.57495,-42.947,80.344,22.359
2026-05-22 16:56:26.546,1352526002,123546,1,0.27368,0.10449,0.55981,2.832,78.702,-4.664
2026-05-22 16:56:26.546,1352526002,123546,2,0.54321,0.28735,0.7168,-22.656,64.985,17.015
2026-05-22 16:56:26.746,1352526202,123746,1,0.19019,0.10376,0.80444,8.16,38.45,-1.427
2026-05-22 16:56:26.746,1352526202,123746,2,0.60156,0.40576,1.04639,-1.389,38.084,-3.221
2026-05-22 16:56:27.946,1352527402,123946,1,0.33496,0.12573,1.03271,-7.069,-17.046,3.832
2026-05-22 16:56:27.946,1352527402,123946,2,0.76587,0.49854,1.18481,29.817,-15.969,-3.336
2026-05-22 16:56:27.146,1352526602,124146,1,0.53125,0.07446,1.0376,-16.901,-32.359,7.45
2026-05-22 16:56:27.146,1352526602,124146,2,0.82861,0.61719,1.05566,20.908,-15.351,10.061
2026-05-22 16:56:27.346,1352526802,124346,1,0.56934,-0.02271,0.823,-1.977,-20.046,6.672
2026-05-22 16:56:27.346,1352526802,124346,2,0.88159,0.63501,0.92236,11.634,-17.405,-2.145
2026-05-22 16:56:27.546,1352527002,124546,1,0.82031,-0.05249,0.8396,-2.321,17.832,-7.786
2026-05-22 16:56:27.546,1352527002,124546,2,0.97852,0.70605,0.85083,-37.481,3.626,-3.992
2026-05-22 16:56:27.746,1352527202,124746,1,0.37695,0.02173,0.97998,5.046,24.282,-11.756
2026-05-22 16:56:27.746,1352527202,124746,2,0.73755,0.48633,1.04272,-37.275,10.748,9.763
2026-05-22 16:56:28.946,1352528402,124946,1,0.4541,0.00317,0.94434,-3.382,-8.725,3.069
2026-05-22 16:56:28.946,1352528402,124946,2,0.69458,0.5415,0.95508,23.802,-17.771,2.427
2026-05-22 16:56:28.146,1352527602,125146,1,0.40039,-0.00317,0.63281,2.817,-33.58,-2.443
2026-05-22 16:56:28.146,1352527602,125146,2,0.66406,0.45264,0.76196,17.733,-40.519,1.557
2026-05-22 16:56:28.346,1352527802,125346,1,0.44336,-0.03369,0.45142,-12.389,-43.603,-0.87
2026-05-22 16:56:28.346,1352527802,125346,2,0.40894,0.32178,0.58008,31.221,-56.16,-3.084
2026-05-22 16:56:28.546,1352528002,125546,1,0.7583,-0.04175,0.32056,-6.038,-54.977,-7.985
2026-05-22 16:56:28.546,1352528002,125546,2,0.97559,0.58838,0.53076,-23.038,-27.824,6.137
2026-05-22 16:56:28.746,1352528202,125746,1,0.87866,-0.05688,0.4126,3.664,17.237,1.878
2026-05-22 16:56:28.746,1352528202,125746,2,0.83643,0.53857,0.49902,-9.412,11.901,6.405
2026-05-22 16:56:29.946,1352529402,125946,1,0.7522,-0.06665,0.45679,18.542,32.771,-5.962
2026-05-22 16:56:29.946,1352529402,125946,2,0.84082,0.51733,0.54688,-28.344,22.115,3.71
2026-05-22 16:56:29.146,1352528602,126146,1,0.66968,0.02466,0.35156,4.901,84.802,-2.573
2026-05-22 16:56:29.146,1352528602,126146,2,0.71973,0.40283,0.63452,-42.168,108.26,20.786
2026-05-22 16:56:29.346,1352528802,126346,1,0.22485,-0.01538,0.73267,-0.061,103.313,-2.756
2026-05-22 16:56:29.346,1352528802,126346,2,0.57422,0.29077,1.03833,-39.87,100.908,11.924
2026-05-22 16:56:29.546,1352529002,126546,1,-0.12451,0.00757,1.02417,0.023,70.427,0.855
2026-05-22 16:56:29.546,1352529002,126546,2,0.40625,0.19214,1.30444,-31.466,62.275,4.458
2026-05-22 16:56:29.746,1352529202,126746,1,-0.20093,0.02563,0.8667,-0.977,46.466,0.71
2026-05-22 16:56:29.746,1352529202,126746,2,0.17603,0.00439,1.34277,-26.931,34.221,4.29
2026-05-22 16:56:30.946,1352530402,126946,1,-0.34888,0.07397,0.8811,4.809,27.282,-2.534
2026-05-22 16:56:30.946,1352530402,126946,2,0.15015,-0.00708,1.38501,2.985,18.519,6.618
2026-05-22 16:56:30.146,1352529602,127146,1,-0.38965,0.0437,0.75586,-0.847,12.656,0.725
2026-05-22 16:56:30.146,1352529602,127146,2,0.14453,0.01904,1.41211,-8.015,13.061,3.87
2026-05-22 16:56:30.346,1352529802,127346,1,-0.57813,0.05322,0.75537,-12.557,14.992,-5.183
2026-05-22 16:56:30.346,1352529802,127346,2,0.01245,-0.03931,1.45117,1.183,3.053,0.328
2026-05-22 16:56:30.569,1352530025,127569,1,-0.53638,0.09229,0.93726,-0.305,-21.13,3.939
2026-05-22 16:56:30.569,1352530025,127569,2,0.09497,0.01318,1.44531,29.267,-42.107,-2.794
2026-05-22 16:56:30.769,1352530225,127769,1,-0.33691,0.03174,0.89453,-0.924,-58.718,0.16
2026-05-22 16:56:30.769,1352530225,127769,2,0.25903,0.16724,1.35938,51.305,-71.344,-3.084
2026-05-22 16:56:31.969,1352531425,127969,1,-0.09155,0.07446,0.80737,-4.267,-96.55,-5.542
2026-05-22 16:56:31.969,1352531425,127969,2,0.54175,0.34717,1.01416,54.389,-106.626,-5.992
2026-05-22 16:56:31.169,1352530625,128169,1,0.39673,0.02148,0.56812,-2.893,-110.74,-3.794
2026-05-22 16:56:31.169,1352530625,128169,2,0.69214,0.48779,0.65039,40.473,-100.855,-11.962
2026-05-22 16:56:31.369,1352530825,128369,1,0.77319,-0.00415,0.39136,0.412,-95.84,5.489
2026-05-22 16:56:31.369,1352530825,128369,2,0.82861,0.54663,0.49902,21.252,-52.87,-17.046
2026-05-22 16:56:31.569,1352531025,128569,1,0.95337,0.08252,0.27515,1.008,-46.237,1.198
2026-05-22 16:56:31.569,1352531025,128569,2,0.81104,0.60547,0.40552,11.458,-27.924,-5.214
2026-05-22 16:56:31.769,1352531225,128769,1,0.97339,0.01514,0.28198,-14.427,-17.435,-9.641
2026-05-22 16:56:31.769,1352531225,128769,2,0.75977,0.63062,0.32617,-17.046,-22.397,3.046
2026-05-22 16:56:32.969,1352532425,128969,1,0.98511,0.0459,0.26147,-7.718,-4.565,-9.885
2026-05-22 16:56:32.969,1352532425,128969,2,0.7915,0.59961,0.30005,-17.435,-11.878,-0.305
2026-05-22 16:56:32.169,1352531625,129169,1,0.99878,0.04834,0.23438,0.977,-1.794,-0.763
2026-05-22 16:56:32.169,1352531625,129169,2,0.77148,0.60303,0.24878,-5.481,-0.244,1.603
2026-05-22 16:56:32.369,1352531825,129369,1,0.99365,0.05151,0.24756,-2.305,3.458,2.214
2026-05-22 16:56:32.369,1352531825,129369,2,0.76904,0.604,0.27588,-5.489,4.061,2.023
2026-05-22 16:56:32.569,1352532025,129569,1,0.9729,0.03369,0.27783,-2.626,8.664,2.695
2026-05-22 16:56:32.569,1352532025,129569,2,0.7749,0.59009,0.31177,-5.962,7.237,4.198
2026-05-22 16:56:32.769,1352532225,129769,1,0.94678,0.02637,0.30347,2.42,7.321,3.786
2026-05-22 16:56:32.769,1352532225,129769,2,0.78442,0.5957,0.33252,0.29,9.031,2.847
2026-05-22 16:56:33.969,1352533425,129969,1,0.94385,0.03784,0.3252,0.298,2.412,2.038
2026-05-22 16:56:33.969,1352533425,129969,2,0.77563,0.59033,0.33618,-0.55,1.595,3.244
2026-05-22 16:56:33.169,1352532625,130169,1,0.95923,0.02393,0.29419,-4.366,-1.183,0.504
2026-05-22 16:56:33.169,1352532625,130169,2,0.78906,0.59253,0.32373,-2.176,-1.13,1.992
2026-05-22 16:56:33.369,1352532825,130369,1,0.95288,0.02734,0.31104,-3.824,3.16,-1.336
2026-05-22 16:56:33.369,1352532825,130369,2,0.78906,0.59424,0.33521,-4.099,1.885,1.321
2026-05-22 16:56:33.569,1352533025,130569,1,0.91602,0.03735,0.32153,3.359,5.282,-3.0
2026-05-22 16:56:33.569,1352533025,130569,2,0.81445,0.5874,0.3479,-6.511,-1.878,1.427
2026-05-22 16:56:33.769,1352533225,130769,1,0.92529,0.05469,0.34937,4.924,8.863,1.252
2026-05-22 16:56:33.769,1352533225,130769,2,0.78857,0.59106,0.36597,1.16,8.282,2.733
2026-05-22 16:56:34.969,1352534425,130969,1,0.90747,0.04395,0.37134,1.351,10.092,2.023
2026-05-22 16:56:34.969,1352534425,130969,2,0.78735,0.57959,0.37549,-7.191,6.252,3.924
2026-05-22 16:56:34.169,1352533625,131169,1,0.92188,0.03271,0.32764,-0.947,13.221,-2.458
2026-05-22 16:56:34.169,1352533625,131169,2,0.85034,0.59668,0.43188,-3.977,25.748,9.847
2026-05-22 16:56:34.369,1352533825,131369,1,0.89087,0.0564,0.2644,6.237,72.687,3.237
2026-05-22 16:56:34.369,1352533825,131369,2,0.88135,0.5459,0.5061,-38.924,82.061,23.443
2026-05-22 16:56:34.569,1352534025,131569,1,0.44189,0.04517,0.44873,1.794,117.282,1.885
2026-05-22 16:56:34.569,1352534025,131569,2,0.7373,0.46313,0.64087,-64.061,105.847,27.29
2026-05-22 16:56:34.769,1352534225,131769,1,0.01221,0.00415,0.74658,-8.26,110.214,-1.733
2026-05-22 16:56:34.769,1352534225,131769,2,0.57153,0.29468,1.19971,-50.137,104.122,6.229
2026-05-22 16:56:35.969,1352535425,131969,1,-0.39063,0.08203,0.9707,-12.099,73.153,6.344
2026-05-22 16:56:35.969,1352535425,131969,2,0.18726,0.04761,1.48047,-31.87,57.252,10.504
2026-05-22 16:56:35.169,1352534625,132169,1,-0.50146,0.03906,0.85132,-3.244,19.855,0.954
2026-05-22 16:56:35.169,1352534625,132169,2,0.13892,-0.00269,1.41431,-9.061,6.267,3.084
2026-05-22 16:56:35.369,1352534825,132369,1,-0.39722,-0.00537,0.66016,-2.389,-3.176,0.756
2026-05-22 16:56:35.369,1352534825,132369,2,0.13501,-0.01074,1.42505,-9.504,11.832,2.298
2026-05-22 16:56:35.569,1352535025,132569,1,-0.42749,-0.00293,0.79712,3.42,-8.183,3.29
2026-05-22 16:56:35.569,1352535025,132569,2,0.1106,-0.00317,1.42822,6.427,4.29,-0.305
2026-05-22 16:56:35.769,1352535225,132769,1,-0.39331,0.05786,0.94312,-2.687,-12.252,-3.756
2026-05-22 16:56:35.769,1352535225,132769,2,0.09058,0.00122,1.46948,24.565,-24.802,-1.908
2026-05-22 16:56:36.969,1352536425,132969,1,-0.26709,0.12842,0.85156,-2.687,-46.649,-4.031
2026-05-22 16:56:36.969,1352536425,132969,2,0.26587,0.177,1.36646,29.351,-63.664,0.115
2026-05-22 16:56:36.169,1352535625,133169,1,-0.13257,0.05273,0.80859,-6.618,-74.969,-10.176
2026-05-22 16:56:36.169,1352535625,133169,2,0.41284,0.27734,1.14868,38.389,-88.878,-3.252
2026-05-22 16:56:36.369,1352535825,133369,1,0.24194,0.04443,0.67334,-6.389,-114.71,1.099
2026-05-22 16:56:36.369,1352535825,133369,2,0.67725,0.44263,0.80518,20.191,-100.786,-6.298
2026-05-22 16:56:36.569,1352536025,133569,1,0.64771,-0.02148,0.43091,-0.71,-103.534,-4.985
2026-05-22 16:56:36.569,1352536025,133569,2,0.854,0.51733,0.51294,32.107,-79.878,-16.71
2026-05-22 16:56:36.769,1352536225,133769,1,0.96606,0.01831,0.32593,7.42,-35.947,2.443
2026-05-22 16:56:36.769,1352536225,133769,2,0.83667,0.56592,0.43018,-7.832,-21.786,-6.206
2026-05-22 16:56:37.969,1352537425,133969,1,0.93726,0.03442,0.28662,-4.901,10.397,0.618
2026-05-22 16:56:37.969,1352537425,133969,2,0.83521,0.61279,0.40405,-32.137,9.511,10.397
2026-05-22 16:56:37.169,1352536625,134169,1,0.82813,0.04077,0.3125,1.191,62.282,3.29
2026-05-22 16:56:37.169,1352536625,134169,2,0.84302,0.53076,0.6272,-72.924,60.748,21.336
2026-05-22 16:56:37.369,1352536825,134369,1,0.49805,0.01904,0.50073,8.908,107.733,-4.687
2026-05-22 16:56:37.369,1352536825,134369,2,0.69507,0.48413,0.90601,-53.115,100.282,18.405
2026-05-22 16:56:37.569,1352537025,134569,1,0.12109,0.04785,0.81543,-4.458,102.099,-2.916
2026-05-22 16:56:37.569,1352537025,134569,2,0.57007,0.2876,1.10669,-52.687,75.115,2.061
2026-05-22 16:56:37.769,1352537225,134769,1,-0.12549,0.08374,0.948,-1.893,71.229,1.511
2026-05-22 16:56:37.769,1352537225,134769,2,0.34766,0.16943,1.29199,-32.954,55.435,6.863
2026-05-22 16:56:38.969,1352538425,134969,1,-0.27148,0.08105,0.92456,-3.26,28.031,1.855
2026-05-22 16:56:38.969,1352538425,134969,2,0.22437,0.07983,1.44727,-18.092,25.786,2.702
2026-05-22 16:56:38.169,1352537625,135169,1,-0.31982,0.08228,0.8562,3.534,16.725,-1.107
2026-05-22 16:56:38.169,1352537625,135169,2,0.15796,0.02881,1.43164,-2.313,7.0,3.061
2026-05-22 16:56:38.369,1352537825,135369,1,-0.30859,0.07544,0.74438,0.55,3.061,-0.725
2026-05-22 16:56:38.369,1352537825,135369,2,0.16602,0.04541,1.36792,-2.366,5.084,2.16
2026-05-22 16:56:38.569,1352538025,135569,1,-0.32813,0.08789,0.72217,-2.702,10.42,-2.718
2026-05-22 16:56:38.569,1352538025,135569,2,0.11133,0.03247,1.46851,-4.962,9.481,2.565
2026-05-22 16:56:38.769,1352538225,135769,1,-0.45483,0.08789,0.82544,-3.305,-15.931,7.611
2026-05-22 16:56:38.769,1352538225,135769,2,0.11914,0.09595,1.43457,12.931,-8.053,2.87
2026-05-22 16:56:39.969,1352539425,135969,1,-0.32935,0.03638,0.87061,-12.145,-27.374,9.595
2026-05-22 16:56:39.969,1352539425,135969,2,0.14917,0.02075,1.45532,21.481,-16.916,2.641
2026-05-22 16:56:39.169,1352538625,136169,1,-0.25342,0.03467,0.97217,-6.588,-39.916,2.099
2026-05-22 16:56:39.169,1352538625,136169,2,0.30444,0.16138,1.42993,40.099,-47.481,-0.786
2026-05-22 16:56:39.369,1352538825,136369,1,-0.05054,0.06396,0.86694,10.595,-81.794,-0.382
2026-05-22 16:56:39.369,1352538825,136369,2,0.44727,0.39722,1.10205,62.931,-80.893,-3.29
2026-05-22 16:56:39.569,1352539025,136569,1,0.3252,0.09766,0.65015,-9.069,-96.885,-9.672
2026-05-22 16:56:39.569,1352539025,136569,2,0.68945,0.47241,0.79858,37.038,-103.71,-5.336
2026-05-22 16:56:39.769,1352539225,136769,1,0.69092,0.07373,0.41919,-6.71,-94.916,7.565
2026-05-22 16:56:39.769,1352539225,136769,2,0.83887,0.56885,0.56104,32.641,-66.977,-17.611
2026-05-22 16:56:40.969,1352540425,136969,1,0.84741,0.05811,0.35205,2.405,-58.229,5.878
2026-05-22 16:56:40.969,1352540425,136969,2,0.81421,0.60522,0.38623,18.282,-29.122,-0.038
2026-05-22 16:56:40.169,1352539625,137169,1,0.97314,0.03271,0.31763,-6.069,-20.313,2.275
2026-05-22 16:56:40.169,1352539625,137169,2,0.77271,0.61426,0.32886,-0.45,-10.878,-1.687
2026-05-22 16:56:40.369,1352539825,137369,1,0.97754,0.03174,0.28882,3.611,4.481,0.229
2026-05-22 16:56:40.369,1352539825,137369,2,0.76318,0.62744,0.2915,-11.0,-1.977,-0.366
2026-05-22 16:56:40.569,1352540025,137569,1,0.94434,0.05542,0.32568,4.626,8.092,-2.382
2026-05-22 16:56:40.569,1352540025,137569,2,0.76782,0.62622,0.31738,-7.557,8.687,2.893
2026-05-22 16:56:40.769,1352540225,137769,1,0.91357,0.06226,0.35645,-2.641,11.16,-0.229
2026-05-22 16:56:40.769,1352540225,137769,2,0.7793,0.61499,0.36841,-5.038,8.802,5.832
2026-05-22 16:56:41.969,1352541425,137969,1,0.90894,0.052,0.36841,0.115,19.137,-1.641
2026-05-22 16:56:41.969,1352541425,137969,2,0.80542,0.6084,0.45581,-19.16,17.817,7.695
2026-05-22 16:56:41.169,1352540625,138169,1,0.84204,0.05444,0.32031,-2.008,55.389,-7.489
2026-05-22 16:56:41.169,1352540625,138169,2,0.78613,0.59863,0.39868,-48.824,57.183,16.916
2026-05-22 16:56:41.369,1352540825,138369,1,0.5874,0.08374,0.65576,-6.588,84.435,-2.603
2026-05-22 16:56:41.369,1352540825,138369,2,0.71802,0.50024,0.72192,-42.893,72.893,17.466
2026-05-22 16:56:41.569,1352541025,138569,1,0.32935,-0.01831,0.64331,-20.038,84.733,-11.298
2026-05-22 16:56:41.569,1352541025,138569,2,0.69629,0.323,0.95215,-39.603,76.855,13.679
2026-05-22 16:56:41.769,1352541225,138769,1,0.00464,-0.01782,0.79419,-13.542,87.214,-0.351
2026-05-22 16:56:41.769,1352541225,138769,2,0.42236,0.25464,1.24292,-36.489,80.893,11.412
2026-05-22 16:56:42.969,1352542425,138969,1,-0.31323,-0.05664,0.94141,-4.153,50.847,6.611
2026-05-22 16:56:42.969,1352542425,138969,2,0.13574,0.07788,1.47534,-22.87,44.809,-0.275
2026-05-22 16:56:42.169,1352541625,139169,1,-0.32568,-0.0647,0.87476,-9.565,18.748,9.008
2026-05-22 16:56:42.169,1352541625,139169,2,0.0874,0.03711,1.46899,-6.466,19.084,4.053
2026-05-22 16:56:42.369,1352541825,139369,1,-0.34961,-0.04395,0.76636,-3.145,2.42,6.389
2026-05-22 16:56:42.369,1352541825,139369,2,0.11279,0.05664,1.36572,-5.397,7.992,5.534
2026-05-22 16:56:42.569,1352542025,139569,1,-0.31519,-0.06714,0.71826,-17.198,-8.374,-0.901
2026-05-22 16:56:42.569,1352542025,139569,2,0.0498,-0.01001,1.44507,-12.206,9.328,1.534
2026-05-22 16:56:42.769,1352542225,139769,1,-0.35352,-0.04761,0.91724,12.282,-5.824,-0.443
2026-05-22 16:56:42.769,1352542225,139769,2,0.0332,0.04395,1.40283,8.893,-8.183,-4.527
2026-05-22 16:56:43.969,1352543425,139969,1,-0.3103,-0.12793,0.89819,-10.618,-8.504,-2.45
2026-05-22 16:56:43.969,1352543425,139969,2,0.10327,-0.00659,1.46436,16.832,-24.977,0.252
2026-05-22 16:56:43.169,1352542625,140169,1,-0.19189,-0.07007,0.9436,5.153,-36.733,-3.374
2026-05-22 16:56:43.169,1352542625,140169,2,0.19263,0.14258,1.4375,35.092,-46.374,-1.168
2026-05-22 16:56:43.369,1352542825,140369,1,-0.1228,-0.00806,0.91968,20.389,-50.672,-8.626
2026-05-22 16:56:43.369,1352542825,140369,2,0.34448,0.26392,1.24097,44.336,-76.031,1.573
2026-05-22 16:56:43.569,1352543025,140569,1,0.04517,-0.02588,0.80151,-5.298,-85.183,-8.069
2026-05-22 16:56:43.569,1352543025,140569,2,0.5625,0.36304,1.0166,39.901,-93.779,-5.802
2026-05-22 16:56:43.769,1352543225,140769,1,0.4729,0.01099,0.55737,-6.26,-120.221,-1.55
2026-05-22 16:56:43.769,1352543225,140769,2,0.74268,0.47144,0.60571,36.947,-85.374,-5.023
2026-05-22 16:56:44.969,1352544425,140969,1,0.78613,-0.01221,0.31079,9.634,-87.29,-3.374
2026-05-22 16:56:44.969,1352544425,140969,2,0.8208,0.52075,0.45605,21.344,-56.366,-16.099
2026-05-22 16:56:44.169,1352543625,141169,1,1.01465,0.0708,0.18213,2.397,-18.763,-0.092
2026-05-22 16:56:44.169,1352543625,141169,2,0.84448,0.66748,0.28564,-6.359,-6.229,1.458
2026-05-22 16:56:44.369,1352543825,141369,1,0.99487,0.04443,0.27295,-5.641,7.153,0.038
2026-05-22 16:56:44.369,1352543825,141369,2,0.77563,0.57056,0.3623,-12.481,7.305,5.847
2026-05-22 16:56:44.569,1352544025,141569,1,0.97412,0.05762,0.18359,-4.374,31.344,2.763
2026-05-22 16:56:44.569,1352544025,141569,2,0.84009,0.64136,0.44385,-29.962,39.191,16.198
2026-05-22 16:56:44.769,1352544225,141769,1,0.78198,0.01978,0.35962,1.115,92.0,0.443
2026-05-22 16:56:44.769,1352544225,141769,2,0.73608,0.49268,0.68945,-39.13,96.427,24.626
2026-05-22 16:56:45.969,1352545425,141969,1,0.34082,-0.01636,0.66089,-0.336,110.13,-7.847
2026-05-22 16:56:45.969,1352545425,141969,2,0.73901,0.26489,0.8606,-39.176,92.466,18.13
2026-05-22 16:56:45.169,1352544625,142169,1,0.0603,0.02588,0.91626,2.16,83.221,-2.84
2026-05-22 16:56:45.169,1352544625,142169,2,0.47827,0.18799,1.20386,-31.076,65.863,12.397
2026-05-22 16:56:45.369,1352544825,142369,1,-0.12817,0.05566,0.875,-3.687,43.611,4.244
2026-05-22 16:56:45.369,1352544825,142369,2,0.35596,0.18872,1.37988,-27.916,49.031,4.038
2026-05-22 16:56:45.569,1352545025,142569,1,-0.15747,0.04248,0.86816,-2.061,19.489,1.809
2026-05-22 16:56:45.569,1352545025,142569,2,0.22266,0.12402,1.44336,-14.916,23.015,1.74
2026-05-22 16:56:45.769,1352545225,142769,1,-0.26074,0.02393,0.82959,,11.557,1.496
2026-05-22 16:56:45.769,1352545225,142769,2,0.10498,0.05347,1.42432,-10.328,11.405,0.687
2026-05-22 16:56:46.969,1352546425,142969,1,-0.25903,0.03687,0.78174,0.733,18.725,-1.603
2026-05-22 16:56:46.969,1352546425,142969,2,0.13721,0.01074,1.40039,-8.542,11.45,1.718
2026-05-22 16:56:46.169,1352545625,143169,1,-0.25854,0.09033,0.87622,-7.969,-1.855,1.313
2026-05-22 16:56:46.169,1352545625,143169,2,0.03735,-0.02368,1.47729,3.649,-6.053,0.824
2026-05-22 16:56:46.369,1352545825,143369,1,-0.40015,0.06812,1.03076,1.366,-57.42,2.794
2026-05-22 16:56:46.369,1352545825,143369,2,0.13647,0.05469,1.47144,35.328,-53.916,-3.855
2026-05-22 16:56:46.569,1352546025,143569,1,-0.04175,0.01831,0.85962,0.924,-68.443,3.374
2026-05-22 16:56:46.569,1352546025,143569,2,0.39258,0.26758,1.22559,44.023,-82.061,-5.565
2026-05-22 16:56:46.769,1352546225,143769,1,0.25928,0.0564,0.74902,0.092,-82.214,0.656
2026-05-22 16:56:46.769,1352546225,143769,2,0.60059,0.40356,0.94287,45.656,-81.58,-6.053
2026-05-22 16:56:47.969,1352547425,143969,1,0.43091,0.05396,0.59888,10.076,-72.237,7.298
2026-05-22 16:56:47.969,1352547425,143969,2,0.79053,0.59912,0.70313,42.305,-69.573,-8.221
2026-05-22 16:56:47.169,1352546625,144169,1,0.70679,0.05713,0.448,-14.786,-75.397,-1.13
2026-05-22 16:56:47.169,1352546625,144169,2,0.81299,0.56299,0.54614,26.588,-58.977,-10.389
2026-05-22 16:56:47.369,1352546825,144369,1,0.90674,0.04858,0.36255,4.328,-36.038,4.397
2026-05-22 16:56:47.369,1352546825,144369,2,0.80151,0.61792,0.37671,12.595,-29.878,-2.977
2026-05-22 16:56:47.569,1352547025,144569,1,0.96338,0.01318,0.29077,0.427,-12.336,0.969
2026-05-22 16:56:47.569,1352547025,144569,2,0.76904,0.64111,0.30322,1.664,-9.656,-3.473
2026-05-22 16:56:47.769,1352547225,144769,1,0.96631,0.0249,0.29785,5.557,-2.275,-1.099
2026-05-22 16:56:47.769,1352547225,144769,2,0.75659,0.63892,0.30615,-0.053,0.565,-2.328
2026-05-22 16:56:48.969,1352548425,144969,1,0.95605,0.05151,0.29199,0.344,2.908,-1.863
2026-05-22 16:56:48.969,1352548425,144969,2,0.76196,0.64258,0.3186,-3.84,7.191,1.794
2026-05-22 16:56:48.169,1352547625,145169,1,0.95752,0.05566,0.31299,0.008,22.695,-3.962
2026-05-22 16:56:48.169,1352547625,145169,2,0.79321,0.625,0.3811,-16.0,19.0,9.557
2026-05-22 16:56:48.369,1352547825,145369,1,0.88647,0.06201,0.32153,-3.725,60.565,-3.969
2026-05-22 16:56:48.369,1352547825,145369,2,0.81372,0.58228,0.51953,-42.954,55.962,19.023
2026-05-22 16:56:48.569,1352548025,145569,1,0.54126,0.04932,0.61548,-1.107,80.687,-0.26
2026-05-22 16:56:48.569,1352548025,145569,2,0.71973,0.5271,0.73169,-6.153,68.595,14.237
2026-05-22 16:56:48.769,1352548225,145769,1,0.35254,0.06372,0.54907,-6.527,57.992,-2.481
2026-05-22 16:56:48.769,1352548225,145769,2,0.41406,0.24292,0.84595,-63.26,40.26,11.519
2026-05-22 16:56:49.969,1352549425,145969,1,0.20313,0.05762,0.75269,1.71,17.985,1.084
2026-05-22 16:56:49.969,1352549425,145969,2,0.51538,0.33936,0.95825,-4.198,24.42,-12.924
2026-05-22 16:56:49.169,1352548625,146169,1,0.35303,0.09277,0.83447,-19.252,-25.74,12.405
2026-05-22 16:56:49.169,1352548625,146169,2,0.61279,0.40723,1.14087,13.817,-12.878,6.26
2026-05-22 16:56:49.369,1352548825,146369,1,0.42041,0.06445,1.00049,-16.107,-28.985,12.053
2026-05-22 16:56:49.369,1352548825,146369,2,0.74634,0.58838,1.11841,37.298,-31.313,0.786
2026-05-22 16:56:49.569,1352549025,146569,1,0.63062,-0.20142,0.95728,-17.542,-38.0,1.855
2026-05-22 16:56:49.569,1352549025,146569,2,0.93042,0.64648,0.96704,32.183,-25.382,-5.672
2026-05-22 16:56:49.769,1352549225,146769,1,0.72412,-0.11768,0.76489,0.099,-3.702,1.206
2026-05-22 16:56:49.769,1352549225,146769,2,0.94385,0.67725,0.92676,10.427,-12.244,-1.504
2026-05-22 16:56:50.969,1352550425,146969,1,0.68335,-0.06885,1.02222,4.847,31.275,-4.885
2026-05-22 16:56:50.969,1352550425,146969,2,0.75806,0.61694,0.96729,-19.0,34.374,-3.183
2026-05-22 16:56:50.169,1352549625,147169,1,0.45752,-0.03247,1.01904,0.153,2.206,5.26
2026-05-22 16:56:50.169,1352549625,147169,2,0.65308,0.46606,0.94971,-6.053,-1.779,1.908
2026-05-22 16:56:50.369,1352549825,147369,1,0.37256,0.05151,0.75732,4.076,-44.458,-5.641
2026-05-22 16:56:50.369,1352549825,147369,2,0.61328,0.45166,0.79077,21.252,-44.962,6.962
2026-05-22 16:56:50.569,1352550025,147569,1,0.5957,-0.00732,0.48584,-3.832,-46.344,-3.855
2026-05-22 16:56:50.569,1352550025,147569,2,0.4541,0.40186,0.54639,9.122,-51.847,-1.328
2026-05-22 16:56:50.769,1352550225,147769,1,0.62646,0.01831,0.38818,2.611,-55.038,-4.771
2026-05-22 16:56:50.769,1352550225,147769,2,0.87109,0.49634,0.68115,22.061,-44.198,-11.008
2026-05-22 16:56:51.969,1352551425,147969,1,0.92505,-0.00562,0.39185,0.702,-9.802,0.191
2026-05-22 16:56:51.969,1352551425,147969,2,0.87134,0.60034,0.47656,-1.267,-7.282,-1.695
2026-05-22 16:56:51.169,1352550625,148169,1,0.87354,0.01587,0.44092,-7.74,11.382,-0.412
2026-05-22 16:56:51.169,1352550625,148169,2,0.79565,0.54932,0.48218,-5.099,13.511,4.321
2026-05-22 16:56:51.369,1352550825,148369,1,0.60107,-0.03662,0.35107,-2.725,28.435,5.374
2026-05-22 16:56:51.369,1352550825,148369,2,0.53418,0.34521,0.573,-14.931,43.489,4.718
2026-05-22 16:56:51.569,1352551025,148569,1,0.52441,-0.00073,0.44824,-7.84,36.588,7.023
2026-05-22 16:56:51.569,1352551025,148569,2,0.72363,0.45703,0.60181,-14.122,43.328,5.092
2026-05-22 16:56:51.769,1352551225,148769,1,0.62354,-0.02563,0.62158,-2.588,18.221,0.55
2026-05-22 16:56:51.769,1352551225,148769,2,0.69946,0.51807,0.76343,-13.031,10.344,0.87
2026-05-22 16:56:52.969,1352552425,148969,1,0.78711,0.00879,0.77271,-7.107,1.664,1.412
2026-05-22 16:56:52.969,1352552425,148969,2,0.88965,0.57349,0.92603,22.061,-4.221,-1.359
2026-05-22 16:56:52.169,1352551625,149169,1,0.81714,-0.06323,0.99438,-13.42,-8.863,1.641
2026-05-22 16:56:52.169,1352551625,149169,2,1.02295,0.75659,0.90039,25.046,-4.672,3.214
2026-05-22 16:56:52.369,1352551825,149369,1,0.66895,-0.06372,0.67505,-4.344,-4.374,5.656
2026-05-22 16:56:52.369,1352551825,149369,2,0.7605,0.57251,0.80469,14.496,1.985,2.992
2026-05-22 16:56:52.569,1352552025,149569,1,0.76587,-0.08838,0.62378,-4.824,-0.046,-3.13
2026-05-22 16:56:52.569,1352552025,149569,2,0.93457,0.63843,0.80249,-2.534,2.313,-1.076
2026-05-22 16:56:52.769,1352552225,149769,1,0.83276,-0.02344,0.96191,16.527,41.626,-4.573
2026-05-22 16:56:52.769,1352552225,149769,2,0.92554,0.59131,0.88574,-26.382,37.695,-1.153
2026-05-22 16:56:53.969,1352553425,149969,1,0.56055,0.05396,0.87524,14.389,7.542,-3.649
2026-05-22 16:56:53.969,1352553425,149969,2,0.677,0.52832,0.85522,1.947,-7.397,2.267
2026-05-22 16:56:53.169,1352552625,150169,1,0.50537,0.12109,0.65552,-0.55,-38.786,-3.191
2026-05-22 16:56:53.169,1352552625,150169,2,0.65332,0.48291,0.66724,16.351,-51.221,-3.985
2026-05-22 16:56:53.369,1352552825,150369,1,0.62158,0.06641,0.47144,-5.382,-52.466,3.389
2026-05-22 16:56:53.369,1352552825,150369,2,0.49854,0.37988,0.53638,14.855,-50.076,-5.084
2026-05-22 16:56:53.607,1352553063,150607,1,0.8147,0.01099,0.29053,0.527,-48.26,4.527
2026-05-22 16:56:53.607,1352553063,150607,2,0.76025,0.60596,0.3667,6.237,-7.427,4.298
2026-05-22 16:56:53.807,1352553263,150807,1,0.89063,0.01758,0.3479,0.863,-15.985,5.443
2026-05-22 16:56:53.807,1352553263,150807,2,0.85278,0.57373,0.34937,-5.771,-16.351,0.252
2026-05-22 16:56:54.007,1352553463,151007,1,0.88916,0.04565,0.34619,-3.779,7.221,-1.427
2026-05-22 16:56:54.007,1352553463,151007,2,0.64404,0.51685,0.38037,-47.031,-27.313,1.641
2026-05-22 16:56:54.207,1352553663,151207,1,1.0481,0.03223,0.42773,-9.076,17.305,-7.137
2026-05-22 16:56:54.207,1352553663,151207,2,0.80493,0.56738,0.30908,-40.969,1.046,10.061
2026-05-22 16:56:54.407,1352553863,151407,1,0.88965,-0.00781,0.38452,-1.206,5.29,3.069
2026-05-22 16:56:54.407,1352553863,151407,2,0.74756,0.57275,0.3374,6.107,0.924,-3.565
2026-05-22 16:56:54.607,1352554063,151607,1,0.92822,0.01343,0.36011,2.252,-5.649,3.634
2026-05-22 16:56:54.607,1352554063,151607,2,0.82031,0.58643,0.40967,2.504,-6.115,1.718
2026-05-22 16:56:54.807,1352554263,151807,1,0.91187,0.01172,0.34619,1.832,-0.076,5.366
2026-05-22 16:56:54.807,1352554263,151807,2,0.72363,0.61646,0.34106,-16.145,-12.58,0.084
2026-05-22 16:56:55.007,1352554463,152007,1,0.98022,-0.02832,0.29517,-7.901,1.649,-6.985
2026-05-22 16:56:55.007,1352554463,152007,2,0.8291,0.6001,0.38794,8.702,12.015,3.786
2026-05-22 16:56:55.207,1352554663,152207,1,0.92725,0.03003,0.29199,5.122,38.893,-3.397
2026-05-22 16:56:55.207,1352554663,152207,2,0.83911,0.60449,0.46387,-23.679,45.519,8.244
2026-05-22 16:56:55.407,1352554863,152407,1,0.50562,0.04297,0.26831,-6.588,81.29,-4.908
2026-05-22 16:56:55.407,1352554863,152407,2,0.4624,0.41113,0.45483,-55.496,80.557,16.366
2026-05-22 16:56:55.607,1352555063,152607,1,0.37158,0.10229,0.58203,-0.443,70.0,-0.885
2026-05-22 16:56:55.607,1352555063,152607,2,0.53564,0.28784,0.81958,-22.947,47.29,16.58
2026-05-22 16:56:55.807,1352555263,152807,1,0.36035,0.0708,0.86328,-1.573,19.107,5.542
2026-05-22 16:56:55.807,1352555263,152807,2,0.65552,0.42358,1.08447,-2.664,8.641,1.733
2026-05-22 16:56:56.007,1352555463,153007,1,0.51001,0.00879,1.02271,-15.221,-19.87,3.122
2026-05-22 16:56:56.007,1352555463,153007,2,0.83838,0.58716,1.11108,34.824,-16.908,-7.031
2026-05-22 16:56:56.207,1352555663,153207,1,0.71533,-0.21387,0.90723,-0.977,-26.344,-6.061
2026-05-22 16:56:56.207,1352555663,153207,2,0.89795,0.57202,0.96509,6.962,-28.374,-8.481
2026-05-22 16:56:56.407,1352555863,153407,1,0.71216,-0.08398,0.5957,-6.145,-12.45,-1.443
2026-05-22 16:56:56.407,1352555863,153407,2,0.81665,0.5979,0.8501,18.359,-11.137,-2.015
2026-05-22 16:56:56.607,1352556063,153607,1,1.11353,-0.08569,0.72705,5.519,41.71,-9.855
2026-05-22 16:56:56.607,1352556063,153607,2,1.04419,0.66211,0.82007,-71.237,30.038,7.092
2026-05-22 16:56:56.807,1352556263,153807,1,0.44336,-0.04565,0.93384,-2.282,25.115,-9.687
2026-05-22 16:56:56.807,1352556263,153807,2,0.74438,0.45117,0.98999,-9.191,7.076,1.603
2026-05-22 16:56:57.007,1352556463,154007,1,0.44019,0.0105,0.87085,7.71,-2.756,1.183
2026-05-22 16:56:57.007,1352556463,154007,2,0.6543,0.45923,0.875,18.366,-28.061,3.405
2026-05-22 16:56:57.207,1352556663,154207,1,0.48315,0.09717,0.60107,-0.756,-51.221,-0.29
2026-05-22 16:56:57.207,1352556663,154207,2,0.69067,0.49951,0.59961,6.229,-58.076,0.115
2026-05-22 16:56:57.407,1352556863,154407,1,0.48096,0.05273,0.22705,3.863,-66.344,-0.595
2026-05-22 16:56:57.407,1352556863,154407,2,0.44995,0.32788,0.53467,20.718,-42.504,-8.382
2026-05-22 16:56:57.607,1352557063,154607,1,0.90527,0.05347,0.44971,-6.13,-16.252,0.771
2026-05-22 16:56:57.607,1352557063,154607,2,0.78857,0.60474,0.52344,0.008,-11.893,2.794
2026-05-22 16:56:57.807,1352557263,154807,1,0.8938,0.01953,0.40137,-0.214,6.992,6.008
2026-05-22 16:56:57.807,1352557263,154807,2,0.76953,0.62183,0.46362,20.42,19.641,2.435
2026-05-22 16:56:58.007,1352557463,155007,1,0.76855,0.03442,0.30786,-1.504,36.13,1.427
2026-05-22 16:56:58.007,1352557463,155007,2,0.65845,0.36841,0.53564,-30.145,35.855,10.076
2026-05-22 16:56:58.207,1352557663,155207,1,0.51929,0.01074,0.38135,-7.305,42.168,3.527
2026-05-22 16:56:58.207,1352557663,155207,2,0.51611,0.39209,0.67358,-30.305,28.481,15.496
2026-05-22 16:56:58.407,1352557863,155407,1,0.62256,0.01733,0.55737,-3.695,9.061,-2.023
2026-05-22 16:56:58.407,1352557863,155407,2,0.63916,0.38037,0.65259,-6.901,3.275,2.26
2026-05-22 16:56:58.607,1352558063,155607,1,0.75732,-0.00366,0.75806,-7.328,-11.45,-3.405
2026-05-22 16:56:58.607,1352558063,155607,2,0.92578,0.58691,0.91235,9.107,-10.282,-0.58
2026-05-22 16:56:58.807,1352558263,155807,1,0.87817,-0.0061,0.823,-21.718,-5.237,-1.557
2026-05-22 16:56:58.807,1352558263,155807,2,0.98853,0.73706,0.74194,48.55,10.031,8.0
2026-05-22 16:56:59.007,1352558463,156007,1,0.8916,-0.07153,0.67041,12.779,0.397,7.023
2026-05-22 16:56:59.007,1352558463,156007,2,0.89722,0.74951,0.77173,-0.573,11.481,3.366
2026-05-22 16:56:59.207,1352558663,156207,1,0.59351,-0.06421,0.61304,-2.42,8.496,-2.504
2026-05-22 16:56:59.207,1352558663,156207,2,0.68066,0.48657,0.74878,-15.389,0.924,0.412
2026-05-22 16:56:59.407,1352558863,156407,1,0.70557,-0.03345,0.65479,-8.985,2.282,-1.954
2026-05-22 16:56:59.407,1352558863,156407,2,0.80371,0.53979,0.74731,-6.275,3.267,4.031
2026-05-22 16:56:59.607,1352559063,156607,1,0.60229,-0.08252,0.69629,2.198,-0.84,4.771
2026-05-22 16:56:59.607,1352559063,156607,2,1.13403,0.77344,0.93677,29.359,15.908,0.718
2026-05-22 16:56:59.807,1352559263,156807,1,0.8772,0.02954,0.9082,18.168,36.298,1.779
2026-05-22 16:56:59.807,1352559263,156807,2,0.86035,0.68896,0.88306,-22.71,28.412,0.977
2026-05-22 16:57:00.007,1352559463,157007,1,0.5625,0.0293,0.7915,12.183,9.634,-0.695
2026-05-22 16:57:00.007,1352559463,157007,2,0.6687,0.5,0.8645,-0.275,-7.298,-0.046
2026-05-22 16:57:00.207,1352559663,157207,1,0.50708,0.06348,0.68677,-9.939,-41.481,2.267
2026-05-22 16:57:00.207,1352559663,157207,2,0.64941,0.47656,0.72119,18.084,-44.504,-3.29
2026-05-22 16:57:00.407,1352559863,157407,1,0.63062,0.05151,0.40259,-5.519,-68.718,-0.244
2026-05-22 16:57:00.407,1352559863,157407,2,0.70117,0.50366,0.60059,32.771,-52.221,-11.649
2026-05-22 16:57:00.607,1352560063,157607,1,0.70313,0.03174,0.29053,5.038,-52.0,-1.191
2026-05-22 16:57:00.607,1352560063,157607,2,0.58936,0.46216,0.42773,26.496,-35.763,-6.069
2026-05-22 16:57:00.807,1352560263,157807,1,0.93848,0.03345,0.16211,-4.389,-36.26,5.275
2026-05-22 16:57:00.807,1352560263,157807,2,0.79248,0.63818,0.28491,26.374,-20.901,-2.885
2026-05-22 16:57:01.007,1352560463,158007,1,1.04736,-0.00879,0.1145,2.351,-14.229,3.885
2026-05-22 16:57:01.007,1352560463,158007,2,0.78027,0.63428,0.23975,9.847,-4.947,-1.511
2026-05-22 16:57:01.207,1352560663,158207,1,1.08667,0.03003,0.11914,-0.206,20.573,-6.779
2026-05-22 16:57:01.207,1352560663,158207,2,0.81616,0.64868,0.33447,-22.573,22.634,6.824
2026-05-22 16:57:01.407,1352560863,158407,1,0.88721,0.01538,0.1543,-9.947,114.802,-15.313
2026-05-22 16:57:01.407,1352560863,158407,2,0.81885,0.57837,0.43262,-59.656,91.939,22.229
2026-05-22 16:57:01.607,1352561063,158607,1,0.42773,0.09814,0.50171,5.878,134.076,-9.55
2026-05-22 16:57:01.607,1352561063,158607,2,0.62036,0.49292,0.69067,-57.557,114.817,12.733
2026-05-22 16:57:01.807,1352561263,158807,1,0.13477,0.08569,0.77417,-14.504,109.031,-10.435
2026-05-22 16:57:01.807,1352561263,158807,2,0.5459,0.32935,1.12915,-58.015,99.863,14.458
2026-05-22 16:57:02.007,1352561463,159007,1,-0.31396,0.04492,0.9624,-13.313,85.023,-1.725
2026-05-22 16:57:02.007,1352561463,159007,2,0.19775,0.08813,1.4248,-37.374,64.969,6.878
2026-05-22 16:57:02.207,1352561663,159207,1,-0.54492,0.06201,0.88062,7.053,19.656,-6.695
2026-05-22 16:57:02.207,1352561663,159207,2,0.02295,-0.05225,1.50146,-9.626,19.534,1.237
2026-05-22 16:57:02.407,1352561863,159407,1,-0.44263,0.17188,0.75439,4.977,-19.427,-3.42
2026-05-22 16:57:02.407,1352561863,159407,2,0.03833,-0.08887,1.49023,-7.863,-2.084,1.0
2026-05-22 16:57:02.607,1352562063,159607,1,-0.46655,0.03711,0.9873,-4.725,-29.023,-4.137
2026-05-22 16:57:02.607,1352562063,159607,2,0.09033,0.03833,1.5127,34.206,-26.275,1.595
2026-05-22 16:57:02.807,1352562263,159807,1,-0.28955,0.01636,0.87817,-4.13,-47.847,-5.756
2026-05-22 16:57:02.807,1352562263,159807,2,0.27637,0.12427,1.35352,28.099,-71.321,-5.565
2026-05-22 16:57:03.007,1352562463,160007,1,-0.14014,0.0293,0.79907,-22.771,-95.687,-6.55
2026-05-22 16:57:03.007,1352562463,160007,2,0.5437,0.29907,1.0376,52.855,-101.618,-7.252
2026-05-22 16:57:03.207,1352562663,160207,1,0.26709,-0.03198,0.57617,16.42,-122.496,4.496
2026-05-22 16:57:03.207,1352562663,160207,2,0.75757,0.52856,0.70166,65.626,-86.908,-19.916
2026-05-22 16:57:03.407,1352562863,160407,1,0.84033,0.03882,0.30811,13.435,-96.733,-1.481
2026-05-22 16:57:03.407,1352562863,160407,2,0.83081,0.57129,0.5647,46.221,-48.672,-10.481
2026-05-22 16:57:03.607,1352563063,160607,1,0.95776,0.02075,0.23438,0.298,-33.237,3.985
2026-05-22 16:57:03.607,1352563063,160607,2,0.82861,0.61157,0.33569,3.885,-4.87,-5.733
2026-05-22 16:57:03.807,1352563263,160807,1,0.99902,0.04175,0.29517,-2.038,10.55,-2.313
2026-05-22 16:57:03.807,1352563263,160807,2,0.81934,0.60962,0.40796,-19.397,14.664,6.145
2026-05-22 16:57:04.007,1352563463,161007,1,0.89331,0.04492,0.32935,-1.0,58.84,-6.718
2026-05-22 16:57:04.007,1352563463,161007,2,0.80322,0.59033,0.48535,-63.542,60.664,15.779
2026-05-22 16:57:04.207,1352563663,161207,1,0.53003,0.09863,0.44873,-3.649,106.153,-8.344
2026-05-22 16:57:04.207,1352563663,161207,2,0.63428,0.54419,0.62134,-69.076,96.534,23.924
2026-05-22 16:57:04.407,1352563863,161407,1,0.23218,0.08008,0.8125,-1.992,113.275,0.511
2026-05-22 16:57:04.407,1352563863,161407,2,0.58032,0.33203,1.16943,-53.015,93.679,11.008
2026-05-22 16:57:04.607,1352564063,161607,1,0.02466,0.08325,0.89087,-6.893,47.519,2.328
2026-05-22 16:57:04.607,1352564063,161607,2,0.2561,0.13159,1.21289,-40.031,57.427,0.58
2026-05-22 16:57:04.807,1352564263,161807,1,-0.20972,0.02954,0.94775,0.809,42.863,-0.282
2026-05-22 16:57:04.807,1352564263,161807,2,0.15942,0.0625,1.42578,-24.519,32.695,-4.237
2026-05-22 16:57:05.007,1352564463,162007,1,-0.30176,0.0813,0.84131,1.748,20.687,1.191
2026-05-22 16:57:05.007,1352564463,162007,2,0.14258,0.05078,1.43872,-6.328,12.771,2.237
2026-05-22 16:57:05.207,1352564663,162207,1,-0.2666,0.0769,0.85181,0.992,21.26,2.26
2026-05-22 16:57:05.207,1352564663,162207,2,0.05786,0.06519,1.41382,-13.58,7.137,3.588
2026-05-22 16:57:05.407,1352564863,162407,1,-0.35205,0.09473,0.85522,-2.298,0.305,3.847
2026-05-22 16:57:05.407,1352564863,162407,2,0.03442,-0.06055,1.58008,10.489,-13.779,-0.008
2026-05-22 16:57:05.607,1352565063,162607,1,-0.4082,0.12256,0.979,-8.527,-66.809,8.069
2026-05-22 16:57:05.607,1352565063,162607,2,0.17017,0.11743,1.41943,52.489,-56.84,-3.0
2026-05-22 16:57:05.807,1352565263,162807,1,-0.03467,0.08618,0.84326,-5.267,-77.824,5.672
2026-05-22 16:57:05.807,1352565263,162807,2,0.42261,0.33032,1.17163,57.435,-78.534,2.664
2026-05-22 16:57:06.007,1352565463,163007,1,0.28076,0.06641,0.70142,-1.458,-80.298,4.832
2026-05-22 16:57:06.007,1352565463,163007,2,0.67798,0.50977,0.88354,51.573,-78.916,0.557
2026-05-22 16:57:06.207,1352565663,163207,1,0.36938,0.03516,0.6604,-20.779,-57.053,6.87
2026-05-22 16:57:06.207,1352565663,163207,2,0.67822,0.38892,0.60303,41.595,-91.198,-0.687
2026-05-22 16:57:06.407,1352565863,163407,1,0.7583,0.04248,0.41577,-3.519,-76.16,2.87
2026-05-22 16:57:06.407,1352565863,163407,2,0.78247,0.64966,0.4458,29.687,-41.191,-6.947
2026-05-22 16:57:06.607,1352566063,163607,1,0.92993,0.0249,0.27759,-0.076,-33.679,2.176
2026-05-22 16:57:06.607,1352566063,163607,2,0.79175,0.62695,0.30273,4.641,-17.389,-1.863
2026-05-22 16:57:06.807,1352566263,163807,1,1.00269,0.06543,0.22729,6.893,-21.076,6.389
2026-05-22 16:57:06.807,1352566263,163807,2,0.7312,0.64746,0.24268,5.008,-9.092,0.412
2026-05-22 16:57:07.007,1352566463,164007,1,1.00586,-0.02148,0.19141,-12.985,-21.023,-8.45
2026-05-22 16:57:07.007,1352566463,164007,2,0.74634,0.65503,0.23022,-14.221,-24.58,-4.122
2026-05-22 16:57:07.207,1352566663,164207,1,1.04907,0.04395,0.17456,-11.71,-2.015,-11.137
2026-05-22 16:57:07.207,1352566663,164207,2,0.72021,0.61084,0.22974,-14.649,-2.015,6.626
2026-05-22 16:57:07.407,1352566863,164407,1,1.00195,0.06152,0.16577,-2.122,6.649,-2.45
2026-05-22 16:57:07.407,1352566863,164407,2,0.75977,0.64722,0.27539,-8.344,8.359,5.809
2026-05-22 16:57:07.607,1352567063,164607,1,1.05811,0.06885,0.21313,-9.641,19.985,-1.794
2026-05-22 16:57:07.607,1352567063,164607,2,0.7522,0.59888,0.3252,-15.092,17.87,10.939
2026-05-22 16:57:07.807,1352567263,164807,1,0.89404,0.04102,0.33203,6.603,29.962,4.878
2026-05-22 16:57:07.807,1352567263,164807,2,0.74927,0.61133,0.32666,-5.015,16.687,4.458
2026-05-22 16:57:08.007,1352567463,165007,1,0.91772,0.06812,0.34668,11.26,18.16,9.015
2026-05-22 16:57:08.007,1352567463,165007,2,0.76416,0.63306,0.38501,4.458,19.405,2.595
2026-05-22 16:57:08.207,1352567663,165207,1,0.90063,0.052,0.37964,4.672,15.511,1.962
2026-05-22 16:57:08.207,1352567663,165207,2,0.80029,0.61768,0.44019,-3.84,12.893,5.191
2026-05-22 16:57:08.407,1352567863,165407,1,0.84033,0.0376,0.18701,1.198,58.29,3.481
2026-05-22 16:57:08.407,1352567863,165407,2,0.71021,0.52417,0.60254,-47.55,70.015,22.954
2026-05-22 16:57:08.607,1352568063,165607,1,0.23755,-0.03345,0.49805,5.573,81.771,2.802
2026-05-22 16:57:08.607,1352568063,165607,2,0.49731,0.21533,0.71777,-17.321,77.008,16.382
2026-05-22 16:57:08.807,1352568263,165807,1,0.35425,0.16504,0.82788,9.115,30.55,2.252
2026-05-22 16:57:08.807,1352568263,165807,2,0.5437,0.39551,1.03467,22.313,18.924,3.992
2026-05-22 16:57:09.007,1352568463,166007,1,0.45557,0.0437,0.94458,-16.702,-21.366,2.069
2026-05-22 16:57:09.007,1352568463,166007,2,0.76025,0.46753,1.05566,26.626,-19.962,-2.206
2026-05-22 16:57:09.207,1352568663,166207,1,0.69775,0.09229,1.03857,-13.649,-25.145,5.954
2026-05-22 16:57:09.207,1352568663,166207,2,0.87256,0.62354,1.04688,3.237,-15.427,5.817
2026-05-22 16:57:09.407,1352568863,166407,1,0.65649,-0.08179,0.83203,-19.252,-25.954,-2.107
2026-05-22 16:57:09.407,1352568863,166407,2,0.79883,0.58179,0.8772,19.267,-13.847,-3.595
2026-05-22 16:57:09.607,1352569063,166607,1,0.7876,-0.05688,0.69434,8.13,3.84,-8.267
2026-05-22 16:57:09.607,1352569063,166607,2,0.91602,0.72827,0.75146,-2.374,-11.16,0.954
2026-05-22 16:57:09.807,1352569263,166807,1,0.68823,-0.03223,0.96411,-1.374,19.504,-7.847
2026-05-22 16:57:09.807,1352569263,166807,2,0.76855,0.54028,0.90137,-17.679,20.802,6.137
2026-05-22 16:57:10.007,1352569463,167007,1,0.48486,0.02075,0.89087,9.84,3.786,1.649
2026-05-22 16:57:10.007,1352569463,167007,2,0.68262,0.52661,0.95142,8.977,-4.015,2.076
2026-05-22 16:57:10.207,1352569663,167207,1,0.49048,0.01807,0.83374,-2.13,-26.58,-5.252
2026-05-22 16:57:10.207,1352569663,167207,2,0.68311,0.47266,0.69556,24.176,-48.427,3.527
2026-05-22 16:57:10.407,1352569863,167407,1,0.56812,0.03174,0.53735,-4.435,-52.863,-4.298
2026-05-22 16:57:10.407,1352569863,167407,2,0.5022,0.38818,0.52368,17.954,-65.664,-3.168
2026-05-22 16:57:10.607,1352570063,167607,1,0.67456,0.00977,0.18994,-1.931,-63.374,-5.046
2026-05-22 16:57:10.607,1352570063,167607,2,0.86743,0.62085,0.53784,32.55,-28.198,-5.42
2026-05-22 16:57:10.807,1352570263,167807,1,0.96118,0.04004,0.31177,-4.008,4.015,7.092
2026-05-22 16:57:10.807,1352570263,167807,2,0.87622,0.65869,0.36646,-17.878,0.588,7.992
2026-05-22 16:57:11.007,1352570463,168007,1,0.90405,-0.0022,0.28833,-1.74,36.847,-1.771
2026-05-22 16:57:11.007,1352570463,168007,2,0.84399,0.62427,0.46069,-31.328,38.076,12.038
2026-05-22 16:57:11.207,1352570663,168207,1,0.67261,0.08643,0.35059,0.977,91.725,1.221
2026-05-22 16:57:11.207,1352570663,168207,2,0.64526,0.55737,0.77734,-54.305,93.71,19.282
2026-05-22 16:57:11.407,1352570863,168407,1,0.25562,0.04785,0.71509,4.046,114.962,-2.672
2026-05-22 16:57:11.407,1352570863,168407,2,0.52832,0.43433,1.09253,-66.809,83.71,14.237
2026-05-22 16:57:11.607,1352571063,168607,1,0.04565,0.00854,0.89233,0.534,67.038,-2.069
2026-05-22 16:57:11.607,1352571063,168607,2,0.43774,0.21167,1.23511,-35.504,75.244,-4.534
2026-05-22 16:57:11.807,1352571263,168807,1,-0.12109,0.07104,0.92212,-3.221,49.931,-1.092
2026-05-22 16:57:11.807,1352571263,168807,2,0.15845,0.03174,1.40186,-33.099,39.87,2.763
2026-05-22 16:57:12.007,1352571463,169007,1,-0.37817,0.05737,0.90845,4.313,42.847,-3.282
2026-05-22 16:57:12.007,1352571463,169007,2,0.08838,-0.01904,1.42505,-13.756,16.954,3.664
2026-05-22 16:57:12.207,1352571663,169207,1,-0.39795,0.08203,0.78564,7.87,26.695,-0.725
2026-05-22 16:57:12.207,1352571663,169207,2,0.07642,-0.05347,1.44409,-4.336,8.305,2.298
2026-05-22 16:57:12.407,1352571863,169407,1,-0.41846,0.04639,0.73779,4.366,-12.229,2.656
2026-05-22 16:57:12.407,1352571863,169407,2,0.05078,-0.07642,1.51172,11.115,-6.252,0.076
2026-05-22 16:57:12.607,1352572063,169607,1,-0.48291,0.14697,0.95605,-17.45,-59.557,6.969
2026-05-22 16:57:12.607,1352572063,169607,2,0.12476,0.03711,1.46875,48.115,-53.557,-1.817
2026-05-22 16:57:12.807,1352572263,169807,1,-0.17139,0.06152,0.84937,-0.053,-86.618,6.328
2026-05-22 16:57:12.807,1352572263,169807,2,0.35156,0.27295,1.18018,65.176,-83.649,0.336
2026-05-22 16:57:13.007,1352572463,170007,1,0.19336,0.03589,0.65161,-1.412,-100.053,-3.397
2026-05-22 16:57:13.007,1352572463,170007,2,0.64819,0.47852,0.82031,61.641,-100.817,-5.672
2026-05-22 16:57:13.207,1352572663,170207,1,0.65454,0.09253,0.48291,-11.771,-84.992,-3.412
2026-05-22 16:57:13.207,1352572663,170207,2,0.771,0.57715,0.57715,32.969,-73.023,-2.115
2026-05-22 16:57:13.407,1352572863,170407,1,0.7981,0.04541,0.36963,-7.069,-59.679,5.458
2026-05-22 16:57:13.407,1352572863,170407,2,0.80322,0.58545,0.47485,32.786,-31.573,-10.45
2026-05-22 16:57:13.607,1352573063,170607,1,0.94507,0.06494,0.33008,-0.405,-33.351,2.939
2026-05-22 16:57:13.607,1352573063,170607,2,0.75977,0.6543,0.37012,1.099,-23.275,-3.115
2026-05-22 16:57:13.807,1352573263,170807,1,0.96313,0.02783,0.24097,5.611,-21.756,6.466
2026-05-22 16:57:13.807,1352573263,170807,2,0.77808,0.6394,0.29199,1.641,-10.924,-4.656
2026-05-22 16:57:14.007,1352573463,171007,1,1.00391,0.01929,0.2124,2.153,-6.107,0.71
2026-05-22 16:57:14.007,1352573463,171007,2,0.76294,0.63745,0.25,-1.573,-1.145,0.489
2026-05-22 16:57:14.207,1352573663,171207,1,0.98584,0.03564,0.2168,-4.16,2.176,1.725
2026-05-22 16:57:14.207,1352573663,171207,2,0.74561,0.625,0.26196,0.855,5.382,2.924
2026-05-22 16:57:14.407,1352573863,171407,1,0.96973,0.02393,0.2561,-10.779,3.664,1.565
2026-05-22 16:57:14.407,1352573863,171407,2,0.76416,0.62744,0.2793,-3.763,3.916,2.275
2026-05-22 16:57:14.607,1352574063,171607,1,1.00098,0.0105,0.22974,0.351,-4.084,3.168
2026-05-22 16:57:14.607,1352574063,171607,2,0.75269,0.60986,0.27393,-1.573,0.725,3.298
2026-05-22 16:57:14.807,1352574263,171807,1,0.99268,0.01611,0.24854,0.656,4.038,-0.557
2026-05-22 16:57:14.807,1352574263,171807,2,0.74219,0.63452,0.32837,-47.55,-6.534,-12.305
2026-05-22 16:57:15.007,1352574463,172007,1,0.97705,0.07886,0.2605,-2.595,-2.939,-10.962
2026-05-22 16:57:15.007,1352574463,172007,2,0.79956,0.74536,0.33398,6.282,-2.008,-0.466
2026-05-22 16:57:15.207,1352574663,172207,1,0.94385,0.03638,0.22437,-14.313,-6.412,1.954
2026-05-22 16:57:15.207,1352574663,172207,2,0.7644,0.64722,0.31641,31.496,4.183,12.168
2026-05-22 16:57:15.407,1352574863,172407,1,0.99976,0.05688,0.23682,0.344,10.618,1.168
2026-05-22 16:57:15.407,1352574863,172407,2,0.77539,0.65723,0.30859,-14.71,5.344,4.405
2026-05-22 16:57:15.607,1352575063,172607,1,0.97925,0.01514,0.27808,-9.366,11.26,-2.382
2026-05-22 16:57:15.607,1352575063,172607,2,0.72974,0.59888,0.37524,-20.443,2.824,3.824
2026-05-22 16:57:15.807,1352575263,172807,1,0.9126,0.0752,0.31787,-1.863,6.542,1.672
2026-05-22 16:57:15.807,1352575263,172807,2,0.70532,0.62817,0.37427,10.725,3.435,-3.458
2026-05-22 16:57:16.007,1352575463,173007,1,0.93896,0.02124,0.30273,-8.359,9.641,0.092
2026-05-22 16:57:16.007,1352575463,173007,2,0.79761,0.61572,0.42407,6.267,-13.321,2.366
2026-05-22 16:57:16.207,1352575663,173207,1,0.9187,-0.0498,0.34912,9.847,36.206,-3.0
2026-05-22 16:57:16.207,1352575663,173207,2,0.86597,0.5686,0.54175,4.191,38.756,14.656
2026-05-22 16:57:16.407,1352575863,173407,1,0.64136,-0.0061,0.2041,9.344,108.847,4.939
2026-05-22 16:57:16.407,1352575863,173407,2,0.70679,0.53198,0.6875,-13.466,134.389,32.779
2026-05-22 16:57:16.607,1352576063,173607,1,0.19409,0.05322,0.55493,-8.878,146.664,-7.84
2026-05-22 16:57:16.607,1352576063,173607,2,0.50415,0.24512,0.97217,-48.031,149.443,17.275
2026-05-22 16:57:16.807,1352576263,173807,1,-0.39478,0.01709,1.04858,-11.809,105.214,1.496
2026-05-22 16:57:16.807,1352576263,173807,2,0.12964,0.08813,1.47974,-42.992,74.87,3.038
2026-05-22 16:57:17.007,1352576463,174007,1,-0.53076,0.04761,0.89404,3.947,35.107,-2.214
2026-05-22 16:57:17.007,1352576463,174007,2,0.00488,-0.05371,1.46411,-16.198,16.626,8.656
2026-05-22 16:57:17.207,1352576663,174207,1,-0.521,0.06567,0.72656,-4.603,1.344,0.191
2026-05-22 16:57:17.207,1352576663,174207,2,-0.04834,-0.05786,1.4292,-9.672,5.214,5.557
2026-05-22 16:57:17.407,1352576863,174407,1,-0.38208,-0.0769,0.82031,9.771,-16.458,1.435
2026-05-22 16:57:17.407,1352576863,174407,2,0.02466,0.01367,1.46655,23.496,-1.053,-7.603
2026-05-22 16:57:17.607,1352577063,174607,1,-0.40332,0.01196,0.99438,4.389,-40.244,4.023
2026-05-22 16:57:17.607,1352577063,174607,2,0.10791,0.02075,1.46533,45.718,-48.702,-1.855
2026-05-22 16:57:17.807,1352577263,174807,1,-0.22827,0.10718,0.82349,-6.008,-57.756,0.366
2026-05-22 16:57:17.807,1352577263,174807,2,0.35059,0.21509,1.25391,34.366,-85.763,-2.656
2026-05-22 16:57:18.007,1352577463,175007,1,-0.01147,0.08154,0.75903,-18.74,-90.992,-6.023
2026-05-22 16:57:18.007,1352577463,175007,2,0.57422,0.34937,1.04199,29.313,-99.603,-10.702
2026-05-22 16:57:18.207,1352577663,175207,1,0.37109,-0.00708,0.66138,-9.473,-113.359,-9.038
2026-05-22 16:57:18.207,1352577663,175207,2,0.76367,0.45459,0.75659,32.878,-96.137,-16.389
2026-05-22 16:57:18.407,1352577863,175407,1,0.72461,-0.05518,0.3772,-1.069,-90.794,-9.618
2026-05-22 16:57:18.407,1352577863,175407,2,0.80054,0.55127,0.50244,33.115,-63.695,-21.901
2026-05-22 16:57:18.607,1352578063,175607,1,0.98267,0.01855,0.19556,-0.13,-38.954,-0.328
2026-05-22 16:57:18.607,1352578063,175607,2,0.79004,0.63647,0.30835,3.908,-23.977,-3.725
2026-05-22 16:57:18.807,1352578263,175807,1,1.03784,0.02905,0.1355,-2.0,17.191,-1.008
2026-05-22 16:57:18.807,1352578263,175807,2,0.7915,0.61621,0.32983,-26.191,27.924,8.298
2026-05-22 16:57:19.007,1352578463,176007,1,0.80225,0.02637,0.3103,9.305,63.046,2.542
2026-05-22 16:57:19.007,1352578463,176007,2,0.72974,0.53638,0.6001,-64.153,67.947,18.534
2026-05-22 16:57:19.207,1352578663,176207,1,0.46631,0.00049,0.42725,4.511,60.603,5.237
2026-05-22 16:57:19.207,1352578663,176207,2,0.50488,0.32422,0.72998,-41.252,57.947,10.16
2026-05-22 16:57:19.407,1352578863,176407,1,0.47998,0.04053,0.61279,-7.603,9.168,2.069
2026-05-22 16:57:19.407,1352578863,176407,2,0.57227,0.31958,0.69604,-5.092,-7.916,7.13
2026-05-22 16:57:19.607,1352579063,176607,1,0.67578,0.00708,0.69629,-14.992,-22.954,1.679
2026-05-22 16:57:19.607,1352579063,176607,2,0.90625,0.53833,0.85547,5.847,-26.473,1.244
2026-05-22 16:57:19.807,1352579263,176807,1,0.94751,-0.06567,0.80127,-8.679,-25.031,2.832
2026-05-22 16:57:19.807,1352579263,176807,2,1.06128,0.68237,0.79614,16.794,-23.244,-0.74
2026-05-22 16:57:20.007,1352579463,177007,1,0.94849,-0.10327,0.5752,6.611,-8.267,-0.603
2026-05-22 16:57:20.007,1352579463,177007,2,0.8418,0.54053,0.76831,3.542,-3.901,5.832
2026-05-22 16:57:20.207,1352579663,177207,1,0.79614,-0.02783,0.49878,-8.137,-3.084,0.664
2026-05-22 16:57:20.207,1352579663,177207,2,0.77075,0.5625,0.62183,9.214,9.145,0.405
2026-05-22 16:57:20.407,1352579863,177407,1,0.83667,-0.07666,0.49829,-1.992,4.901,-3.374
2026-05-22 16:57:20.407,1352579863,177407,2,0.81812,0.56445,0.67749,1.489,9.046,5.221
2026-05-22 16:57:20.607,1352580063,177607,1,0.8457,-0.03882,0.55127,3.947,13.557,-4.45
2026-05-22 16:57:20.607,1352580063,177607,2,0.95166,0.62012,0.72437,-0.069,19.13,1.466
2026-05-22 16:57:20.807,1352580263,177807,1,0.83496,0.0332,0.7356,24.664,41.885,-1.443
2026-05-22 16:57:20.807,1352580263,177807,2,0.83618,0.6355,0.89185,-20.496,34.298,10.435
2026-05-22 16:57:21.007,1352580463,178007,1,0.66382,0.11108,0.91138,5.885,18.092,-1.481
2026-05-22 16:57:21.007,1352580463,178007,2,0.69849,0.55396,0.92139,-5.679,3.511,0.328
2026-05-22 16:57:21.207,1352580663,178207,1,0.61035,0.06226,0.75977,-13.267,-31.969,-4.573
2026-05-22 16:57:21.207,1352580663,178207,2,0.70996,0.48193,0.79932,-0.527,-41.672,-1.183
2026-05-22 16:57:21.407,1352580863,178407,1,0.64331,0.04639,0.48462,-8.878,-69.26,-2.168
2026-05-22 16:57:21.407,1352580863,178407,2,0.69873,0.45752,0.57739,27.473,-61.687,-9.427
2026-05-22 16:57:21.607,1352581063,178607,1,0.5249,-0.00464,0.14526,-8.374,-64.282,7.954
2026-05-22 16:57:21.607,1352581063,178607,2,0.46265,0.36914,0.46777,25.534,-55.328,-17.931
2026-05-22 16:57:21.807,1352581263,178807,1,1.06348,-0.01685,0.21826,7.244,-28.313,6.122
2026-05-22 16:57:21.807,1352581263,178807,2,0.7417,0.64868,0.36646,-0.733,-24.977,-8.656
2026-05-22 16:57:22.007,1352581463,179007,1,1.04297,0.00024,0.16187,0.008,-5.733,-5.206
2026-05-22 16:57:22.007,1352581463,179007,2,0.6958,0.68872,0.29517,16.916,-1.29,-3.756
2026-05-22 16:57:22.207,1352581663,179207,1,1.03369,0.03613,0.13281,-3.084,4.015,-3.534
2026-05-22 16:57:22.207,1352581663,179207,2,0.72729,0.6499,0.23413,-3.443,-1.557,0.328
2026-05-22 16:57:22.407,1352581863,179407,1,1.02905,0.02148,0.14111,-3.137,4.229,0.649
2026-05-22 16:57:22.407,1352581863,179407,2,0.73804,0.65601,0.22656,0.053,3.802,1.321
2026-05-22 16:57:22.607,1352582063,179607,1,1.01611,0.0166,0.18799,-0.443,5.855,3.695
2026-05-22 16:57:22.607,1352582063,179607,2,0.73145,0.63794,0.26294,-1.473,5.542,0.733
2026-05-22 16:57:22.807,1352582263,179807,1,0.9939,0.01465,0.18628,1.55,0.832,3.885
2026-05-22 16:57:22.807,1352582263,179807,2,0.72192,0.6521,0.24561,6.473,2.244,-2.359
2026-05-22 16:57:23.007,1352582463,180007,1,1.02539,0.00903,0.15771,-0.496,-1.847,1.183
2026-05-22 16:57:23.007,1352582463,180007,2,0.7334,0.63086,0.23291,-3.901,-0.305,3.412
2026-05-22 16:57:23.207,1352582663,180207,1,1.01367,0.00806,0.17627,-2.466,-0.725,-0.84
2026-05-22 16:57:23.207,1352582663,180207,2,0.70679,0.63672,0.21143,-5.962,-1.321,0.603
2026-05-22 16:57:23.407,1352582863,180407,1,1.00977,0.01611,0.18066,-5.618,-0.763,-1.015
2026-05-22 16:57:23.407,1352582863,180407,2,0.71973,0.64722,0.22949,0.023,-2.893,-0.137
2026-05-22 16:57:23.607,1352583063,180607,1,1.02466,-0.00244,0.17139,-5.221,1.046,0.603
2026-05-22 16:57:23.607,1352583063,180607,2,0.74023,0.6499,0.23804,-5.313,1.595,3.855
2026-05-22 16:57:23.807,1352583263,180807,1,1.00732,-0.00171,0.18555,-2.466,2.137,0.496
2026-05-22 16:57:23.807,1352583263,180807,2,0.74243,0.64771,0.22632,-4.794,2.649,3.931
2026-05-22 16:57:24.007,1352583463,181007,1,0.99634,0.00439,0.22437,-0.359,6.87,0.649
2026-05-22 16:57:24.007,1352583463,181007,2,0.72998,0.62817,0.28052,-2.527,0.824,0.885
2026-05-22 16:57:24.207,1352583663,181207,1,0.97241,0.02173,0.25049,-2.42,1.115,-0.901
2026-05-22 16:57:24.207,1352583663,181207,2,0.7793,0.63013,0.29028,1.649,-4.824,3.893
2026-05-22 16:57:24.407,1352583863,181407,1,1.00659,-0.01221,0.24194,0.168,26.137,1.634
2026-05-22 16:57:24.407,1352583863,181407,2,0.73145,0.63184,0.24536,-14.321,14.901,7.168
2026-05-22 16:57:24.607,1352584063,181607,1,0.94116,0.00488,0.29883,-6.557,11.511,-6.015
2026-05-22 16:57:24.607,1352584063,181607,2,0.75293,0.60547,0.31982,-7.893,7.557,5.878
2026-05-22 16:57:24.807,1352584263,181807,1,0.93652,0.00513,0.31177,-1.031,2.916,-2.282
2026-05-22 16:57:24.807,1352584263,181807,2,0.77393,0.61694,0.3252,-2.618,1.557,1.748
2026-05-22 16:57:25.007,1352584463,182007,1,0.94897,0.01196,0.31128,1.244,0.588,-0.718
2026-05-22 16:57:25.007,1352584463,182007,2,0.77686,0.61646,0.33838,5.672,5.718,1.679
2026-05-22 16:57:25.207,1352584663,182207,1,0.97583,0.0354,0.3064,-0.87,10.244,-0.214
2026-05-22 16:57:25.207,1352584663,182207,2,0.78613,0.60669,0.3645,-5.87,11.13,4.42
2026-05-22 16:57:25.407,1352584863,182407,1,0.92798,0.03735,0.28979,-5.191,22.702,-1.191
2026-05-22 16:57:25.407,1352584863,182407,2,0.80737,0.60083,0.4458,-13.771,22.634,6.878
2026-05-22 16:57:25.607,1352585063,182607,1,0.77344,-0.00415,0.24854,0.542,91.985,-5.748
2026-05-22 16:57:25.607,1352585063,182607,2,0.72803,0.48535,0.5603,-52.931,97.115,21.275
2026-05-22 16:57:25.807,1352585263,182807,1,0.1748,0.03906,0.61743,8.74,89.244,-5.466
2026-05-22 16:57:25.807,1352585263,182807,2,0.41675,0.24731,0.75171,-6.87,58.985,19.511
2026-05-22 16:57:26.007,1352585463,183007,1,0.28491,0.09424,0.84521,-3.29,7.015,-3.122
2026-05-22 16:57:26.007,1352585463,183007,2,0.57202,0.33398,0.95142,17.977,-5.779,6.153
2026-05-22 16:57:26.207,1352585663,183207,1,0.48657,0.08545,0.88379,-5.115,-21.427,7.168
2026-05-22 16:57:26.207,1352585663,183207,2,0.83936,0.48804,1.12964,37.977,-13.664,4.374
2026-05-22 16:57:26.407,1352585863,183407,1,0.58032,0.0376,1.04688,-32.809,-39.344,13.794
2026-05-22 16:57:26.407,1352585863,183407,2,0.88745,0.72607,0.93896,34.008,-41.84,5.397
2026-05-22 16:57:26.607,1352586063,183607,1,0.88745,-0.09229,0.57349,7.282,-33.702,-9.847
2026-05-22 16:57:26.607,1352586063,183607,2,0.82666,0.55566,0.74072,-10.206,-9.947,-2.107
2026-05-22 16:57:26.807,1352586263,183807,1,0.88281,-0.06934,0.56958,9.244,0.092,-5.282
2026-05-22 16:57:26.807,1352586263,183807,2,0.92358,0.7063,0.73315,-11.55,-13.313,-3.076
2026-05-22 16:57:27.007,1352586463,184007,1,0.82935,0.08618,0.75171,-3.779,49.924,1.405
2026-05-22 16:57:27.007,1352586463,184007,2,0.82373,0.52759,0.8833,-63.511,38.947,9.695
2026-05-22 16:57:27.207,1352586663,184207,1,0.53271,0.00439,0.87769,5.443,28.267,-11.443
2026-05-22 16:57:27.207,1352586663,184207,2,0.69653,0.4646,1.0144,-1.641,10.145,-6.153
2026-05-22 16:57:27.407,1352586863,184407,1,0.42871,0.0564,0.91577,-5.595,-23.244,-4.786
2026-05-22 16:57:27.407,1352586863,184407,2,0.67456,0.42529,0.86206,24.153,-39.931,6.084
2026-05-22 16:57:27.607,1352587063,184607,1,0.59375,0.04614,0.6582,0.344,-53.267,-1.947
2026-05-22 16:57:27.607,1352587063,184607,2,0.62793,0.49292,0.53052,18.626,-54.084,2.382
2026-05-22 16:57:27.807,1352587263,184807,1,0.45654,-0.00562,0.25879,-6.29,-83.656,-2.076
2026-05-22 16:57:27.807,1352587263,184807,2,0.65527,0.44458,0.44531,19.008,-59.076,-28.977
2026-05-22 16:57:28.007,1352587463,185007,1,0.9707,0.01367,0.20728,-2.802,-6.298,1.618
2026-05-22 16:57:28.007,1352587463,185007,2,0.80981,0.63135,0.33008,-4.603,-17.397,-1.435
2026-05-22 16:57:28.207,1352587663,185207,1,0.91187,0.01489,0.3147,-4.977,9.0,-1.557
2026-05-22 16:57:28.207,1352587663,185207,2,0.75537,0.63086,0.35425,-1.443,7.107,1.099
2026-05-22 16:57:28.407,1352587863,185407,1,0.95288,0.06128,0.29858,-2.336,12.763,-1.71
2026-05-22 16:57:28.407,1352587863,185407,2,0.81348,0.62451,0.48267,-19.534,21.519,10.198
2026-05-22 16:57:28.607,1352588063,185607,1,0.51904,0.03564,0.27661,0.496,56.237,2.588
2026-05-22 16:57:28.607,1352588063,185607,2,0.44287,0.36206,0.57275,-48.344,47.702,8.42
2026-05-22 16:57:28.807,1352588263,185807,1,0.67725,0.00269,0.45947,-14.053,9.015,5.763
2026-05-22 16:57:28.807,1352588263,185807,2,0.66602,0.41675,0.59058,4.412,21.527,2.878
2026-05-22 16:57:29.007,1352588463,186007,1,0.71216,-0.00537,0.57935,-0.099,4.008,-3.908
2026-05-22 16:57:29.007,1352588463,186007,2,0.81567,0.53931,0.7627,3.847,1.817,-0.076
2026-05-22 16:57:29.207,1352588663,186207,1,0.95313,0.0459,0.67065,2.099,-15.092,3.313
2026-05-22 16:57:29.207,1352588663,186207,2,0.97339,0.72607,0.74805,31.214,-1.679,-2.924
2026-05-22 16:57:29.407,1352588863,186407,1,1.0437,-0.15039,0.65601,3.595,-2.282,5.023
2026-05-22 16:57:29.407,1352588863,186407,2,0.89355,0.74878,0.73535,34.557,-2.557,3.542
2026-05-22 16:57:29.607,1352589063,186607,1,0.84888,0.00562,0.50708,-12.344,-0.099,-10.947
2026-05-22 16:57:29.607,1352589063,186607,2,0.83691,0.47437,0.60962,-28.847,-0.16,6.176
2026-05-22 16:57:29.807,1352589263,186807,1,0.77124,-0.01563,0.54419,0.733,9.847,-0.29
2026-05-22 16:57:29.807,1352589263,186807,2,0.73022,0.53589,0.74878,-1.58,8.916,0.298
2026-05-22 16:57:30.007,1352589463,187007,1,1.08691,-0.03784,0.64868,8.542,33.824,-5.038
2026-05-22 16:57:30.007,1352589463,187007,2,1.09277,0.74292,0.82593,-21.084,41.908,7.031
2026-05-22 16:57:30.207,1352589663,187207,1,0.73926,0.06372,0.92896,4.366,45.13,2.038
2026-05-22 16:57:30.207,1352589663,187207,2,0.78833,0.51563,0.89502,-50.74,-0.038,7.534
2026-05-22 16:57:30.407,1352589863,187407,1,0.53833,0.06372,0.79785,5.969,-6.282,2.779
2026-05-22 16:57:30.407,1352589863,187407,2,0.63672,0.4939,0.85474,-7.511,-21.053,-0.855
2026-05-22 16:57:30.607,1352590063,187607,1,0.49878,0.09375,0.61719,-12.321,-38.214,-3.771
2026-05-22 16:57:30.607,1352590063,187607,2,0.67065,0.46167,0.7644,6.443,-54.939,-6.779
2026-05-22 16:57:30.807,1352590263,187807,1,0.52515,0.04395,0.34033,-3.527,-52.435,7.527
2026-05-22 16:57:30.807,1352590263,187807,2,0.55908,0.42212,0.55029,19.679,-47.527,-5.382
2026-05-22 16:57:31.007,1352590463,188007,1,0.77124,0.00586,0.35156,10.244,-33.863,6.229
2026-05-22 16:57:31.007,1352590463,188007,2,0.76367,0.59253,0.44507,14.977,-35.992,-3.771
2026-05-22 16:57:31.207,1352590663,188207,1,1.01709,-0.00928,0.25732,-3.718,-20.832,-0.702
2026-05-22 16:57:31.207,1352590663,188207,2,0.76465,0.60327,0.28735,-6.687,-14.031,0.26
2026-05-22 16:57:31.407,1352590863,188407,1,0.97754,0.03979,0.25708,-0.252,-9.618,0.534
2026-05-22 16:57:31.407,1352590863,188407,2,0.75439,0.61841,0.27686,4.863,-4.954,-2.359
2026-05-22 16:57:31.607,1352591063,188607,1,0.9978,0.0332,0.2312,-0.672,0.931,2.618
2026-05-22 16:57:31.607,1352591063,188607,2,0.75537,0.63599,0.26782,-3.511,-1.084,2.038
2026-05-22 16:57:31.807,1352591263,188807,1,0.9729,0.00562,0.28223,-5.008,-0.527,2.122
2026-05-22 16:57:31.807,1352591263,188807,2,0.76147,0.62231,0.28735,-3.282,-0.076,1.794
2026-05-22 16:57:32.007,1352591463,189007,1,0.98291,0.00317,0.25732,-1.389,-0.214,-0.298
2026-05-22 16:57:32.007,1352591463,189007,2,0.75122,0.62305,0.26709,-5.45,-0.71,1.786
2026-05-22 16:57:32.207,1352591663,189207,1,0.99146,0.00366,0.25684,-2.634,1.771,-1.344
2026-05-22 16:57:32.207,1352591663,189207,2,0.75098,0.61572,0.26147,-5.168,-1.809,2.931
2026-05-22 16:57:32.407,1352591863,189407,1,0.98535,0.00342,0.24927,-1.939,1.687,-0.405
2026-05-22 16:57:32.407,1352591863,189407,2,0.75391,0.61816,0.2666,-2.763,3.458,0.977
2026-05-22 16:57:32.607,1352592063,189607,1,0.96387,0.00684,0.27148,-1.443,2.412,0.458
2026-05-22 16:57:32.607,1352592063,189607,2,0.76123,0.62891,0.28394,1.893,5.145,0.885
2026-05-22 16:57:32.807,1352592263,189807,1,0.96533,0.00415,0.27954,0.115,3.115,0.489
2026-05-22 16:57:32.807,1352592263,189807,2,0.76611,0.62231,0.302,-0.122,2.87,1.137
2026-05-22 16:57:33.007,1352592463,190007,1,0.97021,0.01929,0.27881,1.008,-0.069,0.504
2026-05-22 16:57:33.007,1352592463,190007,2,0.75586,0.62012,0.27466,-2.901,0.702,1.931
2026-05-22 16:57:33.207,1352592663,190207,1,0.98389,0.01465,0.27246,-1.13,0.649,-0.916
2026-05-22 16:57:33.207,1352592663,190207,2,0.76221,0.62231,0.27588,-1.573,0.557,1.58
2026-05-22 16:57:33.407,1352592863,190407,1,0.96606,0.01685,0.27563,-2.344,4.977,-0.962
2026-05-22 16:57:33.407,1352592863,190407,2,0.77002,0.62793,0.29175,-4.198,5.611,3.573
2026-05-22 16:57:33.607,1352593063,190607,1,0.9646,0.01221,0.27808,-1.42,14.198,-1.313
2026-05-22 16:57:33.607,1352593063,190607,2,0.79419,0.62817,0.35498,-5.481,16.008,6.366
2026-05-22 16:57:33.807,1352593263,190807,1,0.92773,0.01074,0.27026,-2.504,50.656,-4.672
2026-05-22 16:57:33.807,1352593263,190807,2,0.79468,0.56372,0.49268,-26.458,58.328,15.405
2026-05-22 16:57:34.007,1352593463,191007,1,0.39697,0.02246,0.31201,1.237,80.542,-3.198
2026-05-22 16:57:34.007,1352593463,191007,2,0.54419,0.42651,0.64307,-26.74,86.351,15.939
2026-05-22 16:57:34.207,1352593663,191207,1,0.37842,0.07446,0.72192,4.061,60.053,-0.267
2026-05-22 16:57:34.207,1352593663,191207,2,0.49585,0.29541,0.86084,-20.244,32.504,7.481
2026-05-22 16:57:34.407,1352593863,191407,1,0.41699,0.03564,0.87036,-11.771,-10.0,4.252
2026-05-22 16:57:34.407,1352593863,191407,2,0.65552,0.43335,1.02197,10.763,-10.641,-3.038
2026-05-22 16:57:34.607,1352594063,191607,1,0.70752,0.00806,0.9458,-12.863,-34.702,4.351
2026-05-22 16:57:34.607,1352594063,191607,2,0.948,0.61621,1.07275,67.748,-16.87,-3.855
2026-05-22 16:57:34.807,1352594263,191807,1,0.83398,-0.15356,0.8208,-17.695,-31.977,4.382
2026-05-22 16:57:34.807,1352594263,191807,2,0.96313,0.73853,0.7832,28.328,-16.511,0.687
2026-05-22 16:57:35.007,1352594463,192007,1,0.70703,-0.03711,0.5105,6.817,-12.855,-4.733
2026-05-22 16:57:35.007,1352594463,192007,2,0.80786,0.57861,0.65161,-10.015,-13.916,2.954
2026-05-22 16:57:35.207,1352594663,192207,1,0.927,-0.03613,0.53076,-6.519,-3.542,-3.137
2026-05-22 16:57:35.207,1352594663,192207,2,0.9375,0.68945,0.729,2.183,2.901,-4.061
2026-05-22 16:57:35.407,1352594863,192407,1,1.02661,0.00513,0.84619,-3.13,51.771,-6.336
2026-05-22 16:57:35.407,1352594863,192407,2,0.8147,0.59912,0.80347,-61.634,49.496,6.092
2026-05-22 16:57:35.607,1352595063,192607,1,0.49731,-0.05566,0.84668,2.84,30.847,-2.267
2026-05-22 16:57:35.607,1352595063,192607,2,0.64185,0.4812,0.99146,-15.626,16.802,-3.229
2026-05-22 16:57:35.807,1352595263,192807,1,0.40332,0.11377,0.88599,0.382,-6.748,2.672
2026-05-22 16:57:35.807,1352595263,192807,2,0.62695,0.4519,1.01904,0.29,-22.427,-2.176
2026-05-22 16:57:36.007,1352595463,193007,1,0.49829,0.04224,0.72705,0.885,-38.443,-4.519
2026-05-22 16:57:36.007,1352595463,193007,2,0.55615,0.4751,0.76074,21.214,-58.809,3.466
2026-05-22 16:57:36.207,1352595663,193207,1,0.47192,0.03931,0.42871,-7.069,-73.305,-1.786
2026-05-22 16:57:36.207,1352595663,193207,2,0.50122,0.46167,0.57739,30.046,-58.359,-12.908
2026-05-22 16:57:36.407,1352595863,193407,1,0.96313,0.09155,0.1958,-1.336,-54.969,3.427
2026-05-22 16:57:36.407,1352595863,193407,2,0.93408,0.59253,0.49219,-24.718,-23.496,1.656
2026-05-22 16:57:36.607,1352596063,193607,1,0.99243,-0.01465,0.26074,0.076,1.74,0.809
2026-05-22 16:57:36.607,1352596063,193607,2,0.82153,0.57739,0.42749,-22.832,5.481,4.252
2026-05-22 16:57:36.807,1352596263,193807,1,0.92456,0.01392,0.32788,-2.832,33.832,1.099
2026-05-22 16:57:36.807,1352596263,193807,2,0.83496,0.55688,0.47217,-20.107,36.382,7.519
2026-05-22 16:57:37.007,1352596463,194007,1,0.73926,0.09766,0.34595,3.328,74.939,-3.954
2026-05-22 16:57:37.007,1352596463,194007,2,0.76172,0.54248,0.54663,-54.069,69.756,17.893
2026-05-22 16:57:37.207,1352596663,194207,1,0.41724,0.02295,0.59131,0.336,97.122,-0.878
2026-05-22 16:57:37.207,1352596663,194207,2,0.66919,0.41968,0.96436,-41.908,110.16,17.008
2026-05-22 16:57:37.407,1352596863,194407,1,0.10522,0.03784,0.87036,2.176,74.954,3.237
2026-05-22 16:57:37.407,1352596863,194407,2,0.45313,0.26172,1.1665,-38.153,78.924,4.969
2026-05-22 16:57:37.607,1352597063,194607,1,-0.11572,0.07495,0.92456,-0.405,43.214,-4.45
2026-05-22 16:57:37.607,1352597063,194607,2,0.18115,0.07495,1.41602,-29.74,54.489,0.267
2026-05-22 16:57:37.807,1352597263,194807,1,-0.27563,0.06958,0.92676,6.374,47.695,-2.87
2026-05-22 16:57:37.807,1352597263,194807,2,0.05591,-0.00415,1.43823,-18.718,24.992,4.359
2026-05-22 16:57:38.007,1352597463,195007,1,-0.27466,0.05566,0.82373,-0.489,24.137,1.496
2026-05-22 16:57:38.007,1352597463,195007,2,-0.07788,-0.13037,1.56128,-11.603,6.855,2.519
2026-05-22 16:57:38.207,1352597663,195207,1,-0.37134,0.05713,0.7605,-3.626,-10.496,1.053
2026-05-22 16:57:38.207,1352597663,195207,2,0.11963,-0.01025,1.39624,-0.344,-12.359,2.695
2026-05-22 16:57:38.407,1352597863,195407,1,-0.42456,0.04932,0.93481,0.122,-23.45,6.198
2026-05-22 16:57:38.407,1352597863,195407,2,0.10327,0.03979,1.5,28.107,-27.153,-2.427
2026-05-22 16:57:38.607,1352598063,195607,1,-0.17212,0.02905,0.87231,0.519,-60.519,2.863
2026-05-22 16:57:38.607,1352598063,195607,2,0.2749,0.12085,1.36206,43.878,-49.176,-1.015
2026-05-22 16:57:38.807,1352598263,195807,1,-0.01099,0.06787,0.84521,-3.374,-71.397,2.802
2026-05-22 16:57:38.807,1352598263,195807,2,0.43774,0.29688,1.16187,51.16,-79.122,0.366
2026-05-22 16:57:39.007,1352598463,196007,1,0.24878,0.03125,0.75806,-2.321,-89.885,0.115
2026-05-22 16:57:39.007,1352598463,196007,2,0.65967,0.47974,0.77271,44.435,-94.588,-11.115
2026-05-22 16:57:39.207,1352598663,196207,1,0.63281,0.04175,0.47168,-2.466,-94.74,-1.366
2026-05-22 16:57:39.207,1352598663,196207,2,0.87598,0.58032,0.50488,27.603,-77.26,-16.374
2026-05-22 16:57:39.407,1352598863,196407,1,0.89478,0.02637,0.24292,-0.664,-78.122,2.221
2026-05-22 16:57:39.407,1352598863,196407,2,0.77466,0.61475,0.39355,44.031,-40.076,-17.183
2026-05-22 16:57:39.607,1352599063,196607,1,1.01099,0.04126,0.24072,0.053,-19.977,7.809
2026-05-22 16:57:39.607,1352599063,196607,2,0.7583,0.64038,0.29053,5.87,-14.092,1.069
2026-05-22 16:57:39.807,1352599263,196807,1,1.01074,-0.00391,0.22168,0.214,-4.58,0.214
2026-05-22 16:57:39.807,1352599263,196807,2,0.75439,0.63989,0.23755,0.504,-5.641,3.748
2026-05-22 16:57:40.007,1352599463,197007,1,1.0127,0.01953,0.19043,-5.618,-0.168,-2.962
2026-05-22 16:57:40.007,1352599463,197007,2,0.75317,0.62231,0.21143,-3.931,1.015,3.916
2026-05-22 16:57:40.207,1352599663,197207,1,1.00879,0.02148,0.20728,-2.397,3.435,0.214
2026-05-22 16:57:40.207,1352599663,197207,2,0.74829,0.61841,0.22168,-3.924,1.763,4.511
2026-05-22 16:57:40.407,1352599863,197407,1,0.98315,0.02563,0.23657,0.618,5.87,0.26
2026-05-22 16:57:40.407,1352599863,197407,2,0.75488,0.61108,0.24438,-2.458,5.489,2.733
2026-05-22 16:57:40.607,1352600063,197607,1,0.98145,0.02808,0.25952,0.55,4.702,2.962
2026-05-22 16:57:40.607,1352600063,197607,2,0.75684,0.61011,0.27612,-4.397,8.198,3.496
2026-05-22 16:57:40.807,1352600263,197807,1,0.96411,0.03174,0.26978,-0.527,3.763,0.466
2026-05-22 16:57:40.807,1352600263,197807,2,0.76831,0.61133,0.28394,-1.534,5.26,3.046
2026-05-22 16:57:41.007,1352600463,198007,1,0.96973,0.02051,0.25903,2.779,0.107,0.137
2026-05-22 16:57:41.007,1352600463,198007,2,0.75317,0.62158,0.29272,-1.84,2.748,1.679
2026-05-22 16:57:41.207,1352600663,198207,1,1.01025,0.01465,0.28613,-5.695,1.305,-1.481
2026-05-22 16:57:41.207,1352600663,198207,2,0.7771,0.6145,0.32007,-10.443,0.824,2.496
2026-05-22 16:57:41.407,1352600863,198407,1,0.94849,-0.01392,0.32227,-0.565,1.267,0.305
2026-05-22 16:57:41.407,1352600863,198407,2,0.59619,0.78857,0.40088,-64.061,-10.725,-43.893
2026-05-22 16:57:41.607,1352601063,198607,1,1.0813,-0.01392,0.32202,-6.015,-0.298,-10.542
2026-05-22 16:57:41.607,1352601063,198607,2,0.85278,0.72021,0.2207,-4.473,-8.29,8.573
2026-05-22 16:57:41.807,1352601263,198807,1,0.98901,0.0127,0.33594,-12.824,-1.221,3.74
2026-05-22 16:57:41.807,1352601263,198807,2,0.77686,0.646,0.32983,2.702,15.153,12.55
2026-05-22 16:57:42.007,1352601463,199007,1,0.94849,0.02808,0.29346,-1.87,-4.061,0.191
2026-05-22 16:57:42.007,1352601463,199007,2,0.79443,0.61279,0.33936,-3.573,2.107,3.328
2026-05-22 16:57:42.207,1352601663,199207,1,0.99097,0.04639,0.27173,-2.74,-3.145,-1.672
2026-05-22 16:57:42.207,1352601663,199207,2,0.74976,0.61255,0.32324,-3.137,3.275,2.046
2026-05-22 16:57:42.407,1352601863,199407,1,0.95166,0.05176,0.29565,-2.221,1.015,0.45
2026-05-22 16:57:42.407,1352601863,199407,2,0.75293,0.62866,0.3313,-3.466,-0.893,1.321
2026-05-22 16:57:42.607,1352602063,199607,1,0.96973,0.01318,0.28052,-2.924,-4.267,-1.931
2026-05-22 16:57:42.607,1352602063,199607,2,0.71875,0.60229,0.32788,-4.664,-9.351,-4.878
2026-05-22 16:57:42.807,1352602263,199807,1,1.00098,0.03711,0.25146,3.74,-1.679,1.405
2026-05-22 16:57:42.807,1352602263,199807,2,0.71753,0.70679,0.27344,29.824,-5.939,8.725
2026-05-22 16:57:43.007,1352602463,200007,1,1.0752,0.03101,0.18994,-0.702,-0.427,-1.397
2026-05-22 16:57:43.007,1352602463,200007,2,0.77368,0.60547,0.27344,8.985,15.389,-1.595
2026-05-22 16:57:43.207,1352602663,200207,1,0.98486,0.04321,0.26733,-1.053,8.588,1.527
2026-05-22 16:57:43.207,1352602663,200207,2,0.76685,0.60547,0.31543,-7.366,10.015,5.725
2026-05-22 16:57:43.407,1352602863,200407,1,0.97705,0.03223,0.26489,-3.053,10.794,0.389
2026-05-22 16:57:43.407,1352602863,200407,2,0.80103,0.59814,0.34546,-9.26,9.672,4.107
2026-05-22 16:57:43.607,1352603063,200607,1,0.94385,0.00952,0.28369,-3.71,34.534,-1.099
2026-05-22 16:57:43.607,1352603063,200607,2,0.83252,0.56665,0.45557,-21.206,45.504,10.84
2026-05-22 16:57:43.807,1352603263,200807,1,0.40747,0.01953,0.13403,-7.237,68.962,-4.389
2026-05-22 16:57:43.807,1352603263,200807,2,0.36426,0.27832,0.52441,-66.084,65.916,18.046
2026-05-22 16:57:44.007,1352603463,201007,1,0.4978,0.08154,0.55713,6.26,52.282,2.153
2026-05-22 16:57:44.007,1352603463,201007,2,0.59644,0.31812,0.79077,-12.153,58.191,6.061
2026-05-22 16:57:44.207,1352603663,201207,1,0.45679,0.12573,0.84009,-4.84,21.321,1.802
2026-05-22 16:57:44.207,1352603663,201207,2,0.64111,0.43115,0.97949,19.359,4.534,10.893
2026-05-22 16:57:44.407,1352603863,201407,1,0.59448,0.06079,1.04028,-32.809,-15.931,6.641
2026-05-22 16:57:44.407,1352603863,201407,2,0.86523,0.54907,1.08594,18.931,-11.863,9.878
2026-05-22 16:57:44.607,1352604063,201607,1,0.68872,-0.01904,0.84033,-4.641,-22.885,0.924
2026-05-22 16:57:44.607,1352604063,201607,2,0.78979,0.62964,0.94678,13.008,-27.55,0.634
2026-05-22 16:57:44.807,1352604263,201807,1,0.70117,-0.12866,0.64819,-6.344,-28.176,0.061
2026-05-22 16:57:44.807,1352604263,201807,2,0.78442,0.50732,0.80542,22.115,-7.527,-5.84
2026-05-22 16:57:45.007,1352604463,202007,1,0.83545,-0.08203,0.60352,4.595,3.137,-4.649
2026-05-22 16:57:45.007,1352604463,202007,2,0.88623,0.89868,0.81348,8.794,-17.565,-2.954
2026-05-22 16:57:45.207,1352604663,202207,1,0.77075,-0.04883,0.78149,20.733,36.618,-11.084
2026-05-22 16:57:45.207,1352604663,202207,2,0.82031,0.54272,0.89307,-60.153,26.351,4.45
2026-05-22 16:57:45.407,1352604863,202407,1,0.48462,-0.02759,0.87476,2.122,23.786,-2.84
2026-05-22 16:57:45.407,1352604863,202407,2,0.67114,0.44409,1.08179,11.168,19.076,-3.733
2026-05-22 16:57:45.607,1352605063,202607,1,0.40137,-0.02417,0.9043,-4.046,-20.908,3.931
2026-05-22 16:57:45.607,1352605063,202607,2,0.6438,0.35522,0.85059,16.198,-48.977,1.924
2026-05-22 16:57:45.807,1352605263,202807,1,0.5415,-0.04077,0.60229,5.137,-59.0,1.328
2026-05-22 16:57:45.807,1352605263,202807,2,0.52319,0.45972,0.62378,7.275,-78.74,-4.603
2026-05-22 16:57:46.007,1352605463,203007,1,0.59692,0.04907,0.2417,7.802,-97.855,1.122
2026-05-22 16:57:46.007,1352605463,203007,2,0.67139,0.49683,0.53882,61.359,-66.275,-16.275
2026-05-22 16:57:46.207,1352605663,203207,1,1.02515,0.04199,0.17212,-5.939,-19.557,6.939
2026-05-22 16:57:46.207,1352605663,203207,2,0.81128,0.63867,0.31372,24.046,12.16,-9.466
2026-05-22 16:57:46.407,1352605863,203407,1,0.92334,0.01929,0.32739,-8.443,9.366,0.137
2026-05-22 16:57:46.407,1352605863,203407,2,0.79956,0.61255,0.34424,9.015,7.962,3.069
2026-05-22 16:57:46.607,1352606063,203607,1,0.95068,0.00366,0.29492,1.664,16.115,0.977
2026-05-22 16:57:46.607,1352606063,203607,2,0.80469,0.60205,0.41016,-14.771,19.359,4.534
2026-05-22 16:57:46.807,1352606263,203807,1,0.78662,-0.01196,0.3291,-4.282,42.855,-5.069
2026-05-22 16:57:46.807,1352606263,203807,2,0.61768,0.42505,0.47974,-41.267,57.748,8.183
2026-05-22 16:57:47.007,1352606463,204007,1,0.47046,0.00562,0.52783,1.649,30.435,-4.634
2026-05-22 16:57:47.007,1352606463,204007,2,0.55151,0.34619,0.50464,-20.802,24.565,8.672
2026-05-22 16:57:47.207,1352606663,204207,1,0.64185,0.03516,0.49658,-7.87,-0.397,1.893
2026-05-22 16:57:47.207,1352606663,204207,2,0.71216,0.46558,0.62817,-12.023,-5.649,3.29
2026-05-22 16:57:47.407,1352606863,204407,1,0.88184,0.0376,0.56079,-3.779,-7.794,2.229
2026-05-22 16:57:47.407,1352606863,204407,2,0.94312,0.59473,0.78149,11.893,1.206,-0.672
2026-05-22 16:57:47.607,1352607063,204607,1,0.95898,-0.0813,0.78101,-4.992,1.427,-5.26
2026-05-22 16:57:47.607,1352607063,204607,2,0.95581,0.72534,0.75537,15.305,-4.13,-1.137
2026-05-22 16:57:47.807,1352607263,204807,1,0.83765,0.01831,0.56006,-8.489,2.557,-5.16
2026-05-22 16:57:47.807,1352607263,204807,2,1.01904,0.43335,0.69312,-24.252,-12.16,12.74
2026-05-22 16:57:48.007,1352607463,205007,1,0.80615,-0.08594,0.55884,15.443,10.237,0.214
2026-05-22 16:57:48.007,1352607463,205007,2,0.75757,0.50415,0.63574,9.313,20.908,-3.908
2026-05-22 16:57:48.207,1352607663,205207,1,0.80737,-0.03247,0.61914,-1.45,17.237,-6.115
2026-05-22 16:57:48.207,1352607663,205207,2,0.80347,0.59595,0.72998,0.313,16.122,-3.878
2026-05-22 16:57:48.407,1352607863,205407,1,0.84717,-0.00366,0.75562,9.489,29.71,1.099
2026-05-22 16:57:48.407,1352607863,205407,2,0.93701,0.69653,0.92554,-11.221,27.031,2.237
2026-05-22 16:57:48.607,1352608063,205607,1,0.69922,0.073,0.88574,16.87,33.87,-5.099
2026-05-22 16:57:48.607,1352608063,205607,2,0.75732,0.52295,0.90625,-24.634,15.489,-1.985
2026-05-22 16:57:48.807,1352608263,205807,1,0.53687,0.12549,0.82959,-3.008,-9.74,-2.038
2026-05-22 16:57:48.807,1352608263,205807,2,0.64868,0.47388,0.84326,-5.611,-26.817,-0.603
2026-05-22 16:57:49.007,1352608463,206007,1,0.56641,0.0708,0.59204,-11.84,-52.962,3.87
2026-05-22 16:57:49.007,1352608463,206007,2,0.64819,0.48291,0.72949,28.947,-52.382,-9.779
2026-05-22 16:57:49.207,1352608663,206207,1,0.72705,0.04883,0.34277,-4.435,-73.504,9.137
2026-05-22 16:57:49.207,1352608663,206207,2,0.66992,0.50952,0.51392,33.229,-53.885,-13.565
2026-05-22 16:57:49.407,1352608863,206407,1,0.69727,0.03003,0.16187,-5.145,-47.58,6.099
2026-05-22 16:57:49.407,1352608863,206407,2,0.54541,0.48926,0.34863,28.389,-48.023,-10.107
2026-05-22 16:57:49.607,1352609063,206607,1,1.03027,-0.00537,0.16333,2.214,-15.527,7.26
2026-05-22 16:57:49.607,1352609063,206607,2,0.78442,0.67749,0.30591,8.053,-7.534,-3.893
2026-05-22 16:57:49.807,1352609263,206807,1,1.01807,0.00562,0.16699,0.802,-5.626,2.473
2026-05-22 16:57:49.807,1352609263,206807,2,0.71484,0.65088,0.25684,-7.084,-9.511,-4.015
2026-05-22 16:57:50.007,1352609463,207007,1,1.02905,0.00342,0.17163,-2.87,3.427,-2.779
2026-05-22 16:57:50.007,1352609463,207007,2,0.72681,0.66992,0.24976,-8.557,0.244,2.389
2026-05-22 16:57:50.207,1352609663,207207,1,1.01196,0.02295,0.17847,-4.87,3.565,-0.687
2026-05-22 16:57:50.207,1352609663,207207,2,0.72144,0.65747,0.26929,-8.084,1.863,5.221
2026-05-22 16:57:50.407,1352609863,207407,1,1.00635,0.00024,0.19067,-1.672,-3.382,1.344
2026-05-22 16:57:50.407,1352609863,207407,2,0.70874,0.66528,0.25635,2.847,-0.557,0.908
2026-05-22 16:57:50.607,1352610063,207607,1,1.0144,-0.00171,0.18359,0.595,-0.595,0.229
2026-05-22 16:57:50.607,1352610063,207607,2,0.71509,0.65625,0.25928,-0.756,-1.29,-0.916
2026-05-22 16:57:50.807,1352610263,207807,1,1.03589,0.00439,0.15479,-0.16,1.344,-0.458
2026-05-22 16:57:50.807,1352610263,207807,2,0.71191,0.66187,0.2522,1.947,3.366,2.366
2026-05-22 16:57:51.007,1352610463,208007,1,1.01709,0.01392,0.17822,-1.321,4.702,-0.015
2026-05-22 16:57:51.007,1352610463,208007,2,0.71631,0.66187,0.24365,1.008,3.878,4.702
2026-05-22 16:57:51.207,1352610663,208207,1,1.01245,0.00903,0.18164,-4.718,8.023,-0.84
2026-05-22 16:57:51.207,1352610663,208207,2,0.75098,0.64453,0.26025,-11.237,4.718,5.298
2026-05-22 16:57:51.407,1352610863,208407,1,0.96143,0.00464,0.25806,-4.443,12.458,-1.702
2026-05-22 16:57:51.407,1352610863,208407,2,0.75928,0.64795,0.29858,-1.397,3.74,3.382
2026-05-22 16:57:51.607,1352611063,208607,1,1.04248,0.00903,0.12231,-1.336,61.267,-7.038
2026-05-22 16:57:51.607,1352611063,208607,2,0.84082,0.65063,0.33984,-40.656,67.573,33.359
2026-05-22 16:57:51.807,1352611263,208807,1,0.73218,-0.00293,0.29224,0.168,112.313,-6.55
2026-05-22 16:57:51.807,1352611263,208807,2,0.70239,0.50537,0.63208,-73.901,122.107,28.412
2026-05-22 16:57:52.007,1352611463,209007,1,0.18579,0.02856,0.60864,-4.374,135.878,-13.962
2026-05-22 16:57:52.007,1352611463,209007,2,0.60767,0.36035,0.90601,-77.183,126.496,5.267
2026-05-22 16:57:52.207,1352611663,209207,1,-0.35693,0.04639,0.95386,-17.885,106.985,-0.527
2026-05-22 16:57:52.207,1352611663,209207,2,0.24316,-0.01245,1.37939,-63.252,80.275,17.634
2026-05-22 16:57:52.407,1352611863,209407,1,-0.47485,0.08105,0.92798,4.786,43.359,-0.588
2026-05-22 16:57:52.407,1352611863,209407,2,0.00903,-0.02759,1.52368,-9.321,28.42,7.023
2026-05-22 16:57:52.607,1352612063,209607,1,-0.3894,0.08911,0.75415,9.13,10.29,-6.038
2026-05-22 16:57:52.607,1352612063,209607,2,0.04712,-0.02881,1.43433,-10.679,7.176,3.557
2026-05-22 16:57:52.807,1352612263,209807,1,-0.39307,0.07617,0.79175,-25.221,-4.702,4.038
2026-05-22 16:57:52.807,1352612263,209807,2,-0.01025,-0.03613,1.41016,-13.031,-3.328,5.595
2026-05-22 16:57:53.007,1352612463,210007,1,-0.42651,-0.01636,0.82373,-6.366,-13.748,-2.756
2026-05-22 16:57:53.007,1352612463,210007,2,0.05835,-0.08301,1.45703,7.229,-12.26,-3.847
2026-05-22 16:57:53.207,1352612663,210207,1,-0.40747,0.01733,0.93213,-3.504,-28.656,-0.237
2026-05-22 16:57:53.207,1352612663,210207,2,0.10376,-0.01831,1.49878,26.802,-28.893,-0.427
2026-05-22 16:57:53.407,1352612863,210407,1,-0.1582,0.09204,0.95532,-4.29,-42.496,-4.565
2026-05-22 16:57:53.407,1352612863,210407,2,0.2041,0.1582,1.40796,38.977,-53.771,0.763
2026-05-22 16:57:53.607,1352613063,210607,1,-0.16162,0.03857,0.89429,2.359,-71.527,2.466
2026-05-22 16:57:53.607,1352613063,210607,2,0.37793,0.26392,1.1355,58.092,-97.969,0.55
2026-05-22 16:57:53.807,1352613263,210807,1,0.36816,0.01758,0.61035,-12.947,-126.267,-2.252
2026-05-22 16:57:53.807,1352613263,210807,2,0.68457,0.45239,0.80249,40.656,-98.443,-13.504
2026-05-22 16:57:54.007,1352613463,211007,1,0.68408,-0.02783,0.30371,2.191,-95.466,-10.557
2026-05-22 16:57:54.007,1352613463,211007,2,0.84644,0.54761,0.52515,12.885,-78.893,-22.527
2026-05-22 16:57:54.207,1352613663,211207,1,0.99316,0.01807,0.16602,-5.191,-50.412,0.786
2026-05-22 16:57:54.207,1352613663,211207,2,0.85254,0.59302,0.35596,-1.374,-27.725,-6.947
2026-05-22 16:57:54.407,1352613863,211407,1,1.01685,0.02393,0.14917,-1.664,-5.092,1.153
2026-05-22 16:57:54.407,1352613863,211407,2,0.81006,0.62427,0.33301,-31.069,-4.122,6.229
2026-05-22 16:57:54.607,1352614063,211607,1,0.9668,0.00903,0.20679,-1.595,28.504,-0.153
2026-05-22 16:57:54.607,1352614063,211607,2,0.71362,0.55908,0.35645,-21.603,28.389,6.672
2026-05-22 16:57:54.807,1352614263,211807,1,0.47266,-0.02856,0.28662,5.771,48.496,-2.053
2026-05-22 16:57:54.807,1352614263,211807,2,0.4375,0.33179,0.50488,-15.817,38.786,3.076
2026-05-22 16:57:55.007,1352614463,212007,1,0.72559,0.0105,0.30469,-4.802,17.443,0.763
2026-05-22 16:57:55.007,1352614463,212007,2,0.68359,0.44727,0.56421,-3.244,28.832,6.321
2026-05-22 16:57:55.207,1352614663,212207,1,0.83838,0.01636,0.67261,-8.74,5.405,5.221
2026-05-22 16:57:55.207,1352614663,212207,2,0.91626,0.61206,0.83423,9.931,10.183,-1.344
2026-05-22 16:57:55.407,1352614863,212407,1,0.9502,-0.05444,0.75122,2.962,-13.092,3.718
2026-05-22 16:57:55.407,1352614863,212407,2,1.02563,0.82202,0.85107,18.405,3.412,-5.58
2026-05-22 16:57:55.607,1352615063,212607,1,1.01929,-0.02319,0.59888,14.763,-12.656,-3.092
2026-05-22 16:57:55.607,1352615063,212607,2,0.97241,0.66821,0.71436,-5.489,9.573,-8.076
2026-05-22 16:57:55.807,1352615263,212807,1,0.83472,0.00244,0.47192,-18.466,-12.359,3.176
2026-05-22 16:57:55.807,1352615263,212807,2,0.74341,0.70825,0.6897,10.214,4.603,5.641
2026-05-22 16:57:56.007,1352615463,213007,1,0.73169,-0.00757,0.58423,-5.534,3.55,0.382
2026-05-22 16:57:56.007,1352615463,213007,2,0.7229,0.5625,0.72534,3.565,6.29,3.832
2026-05-22 16:57:56.207,1352615663,213207,1,0.76343,-0.02734,0.53979,-2.321,7.695,1.901
2026-05-22 16:57:56.207,1352615663,213207,2,0.71777,0.60669,0.70581,3.359,5.382,1.489
2026-05-22 16:57:56.407,1352615863,213407,1,0.74463,-0.05225,0.59033,-9.573,7.756,3.275
2026-05-22 16:57:56.407,1352615863,213407,2,0.77539,0.53833,0.72705,-0.168,3.427,6.405
2026-05-22 16:57:56.607,1352616063,213607,1,0.85156,-0.04077,0.6748,0.756,16.595,1.939
2026-05-22 16:57:56.607,1352616063,213607,2,1.15747,0.81543,0.91528,-0.221,18.061,-1.573
2026-05-22 16:57:56.807,1352616263,213807,1,0.77441,-0.03247,0.88208,17.817,40.359,-5.137
2026-05-22 16:57:56.807,1352616263,213807,2,0.73999,0.48633,0.90112,-41.504,40.885,2.412
2026-05-22 16:57:57.007,1352616463,214007,1,0.4668,0.10059,0.82373,11.137,18.496,-3.282
2026-05-22 16:57:57.007,1352616463,214007,2,0.57324,0.44214,0.96704,12.45,-0.55,-2.71
2026-05-22 16:57:57.207,1352616663,214207,1,0.45874,0.08447,0.75928,-2.176,-25.573,4.267
2026-05-22 16:57:57.207,1352616663,214207,2,0.66333,0.44165,0.90332,15.282,-44.84,-11.87
2026-05-22 16:57:57.407,1352616863,214407,1,0.48047,0.08374,0.55347,-1.954,-58.931,5.405
2026-05-22 16:57:57.407,1352616863,214407,2,0.57373,0.48828,0.67627,30.023,-55.87,-3.076
2026-05-22 16:57:57.607,1352617063,214607,1,0.62476,0.06006,0.28394,-14.412,-55.824,7.015
2026-05-22 16:57:57.607,1352617063,214607,2,0.60693,0.50806,0.51831,5.664,-50.786,-6.565
2026-05-22 16:57:57.807,1352617263,214807,1,0.9165,0.01367,0.24536,-10.42,-33.786,-3.206
2026-05-22 16:57:57.807,1352617263,214807,2,0.77979,0.63159,0.36694,5.511,-22.679,-1.122
2026-05-22 16:57:58.007,1352617463,215007,1,0.96729,0.00586,0.29688,-0.397,-10.366,-2.718
2026-05-22 16:57:58.007,1352617463,215007,2,0.7644,0.64282,0.35864,5.084,-7.954,-0.267
2026-05-22 16:57:58.207,1352617663,215207,1,0.96362,0.04858,0.27539,,-0.038,-3.176
2026-05-22 16:57:58.207,1352617663,215207,2,0.76147,0.63354,0.33643,-2.931,-1.26,1.237
2026-05-22 16:57:58.407,1352617863,215407,1,0.97534,0.03857,0.28784,-3.008,0.191,-0.099
2026-05-22 16:57:58.407,1352617863,215407,2,0.77075,0.63306,0.34058,-1.534,-0.649,1.45
2026-05-22 16:57:58.607,1352618063,215607,1,0.96582,0.03784,0.27881,-0.023,-1.229,2.74
2026-05-22 16:57:58.607,1352618063,215607,2,0.76367,0.62671,0.34375,0.55,2.122,0.611
2026-05-22 16:57:58.807,1352618263,215807,1,0.97778,0.03149,0.27637,0.718,0.061,2.779
2026-05-22 16:57:58.807,1352618263,215807,2,0.74512,0.63306,0.32153,0.885,2.153,0.847
2026-05-22 16:57:59.007,1352618463,216007,1,0.97534,0.02881,0.23682,-2.649,2.13,-0.305
2026-05-22 16:57:59.007,1352618463,216007,2,0.77246,0.6311,0.31543,2.71,0.565,1.313
2026-05-22 16:57:59.207,1352618663,216207,1,1.0061,0.04517,0.26807,-0.145,21.107,-7.313
2026-05-22 16:57:59.207,1352618663,216207,2,0.79736,0.66284,0.37427,-8.038,25.672,8.061
2026-05-22 16:57:59.407,1352618863,216407,1,0.92065,0.06421,0.19336,-3.542,67.45,-6.771
2026-05-22 16:57:59.407,1352618863,216407,2,0.79321,0.60889,0.47803,-46.847,85.473,23.427
2026-05-22 16:57:59.607,1352619063,216607,1,0.52783,0.07397,0.33228,0.832,150.13,-6.221
2026-05-22 16:57:59.607,1352619063,216607,2,0.67383,0.48096,0.64233,-76.092,129.191,31.916
2026-05-22 16:57:59.807,1352619263,216807,1,-0.00317,0.03418,0.83203,-7.031,137.893,0.527
2026-05-22 16:57:59.807,1352619263,216807,2,0.39258,0.24927,1.11572,-59.718,117.298,21.779
2026-05-22 16:58:00.007,1352619463,217007,1,-0.58081,0.00439,0.97144,-6.954,81.977,7.687
2026-05-22 16:58:00.007,1352619463,217007,2,0.01978,-0.04443,1.56543,-38.244,67.969,11.954
2026-05-22 16:58:00.207,1352619663,217207,1,-0.55762,0.02393,0.83984,2.244,11.626,2.229
2026-05-22 16:58:00.207,1352619663,217207,2,-0.04712,-0.09619,1.448,-4.435,22.71,3.725
2026-05-22 16:58:00.407,1352619863,217407,1,-0.51538,0.01318,0.85938,-13.153,-13.565,-1.687
2026-05-22 16:58:00.407,1352619863,217407,2,-0.03296,-0.07007,1.45923,-1.947,-16.962,-1.71
2026-05-22 16:58:00.607,1352620063,217607,1,-0.3313,0.05591,0.89624,18.137,-26.298,-4.321
2026-05-22 16:58:00.607,1352620063,217607,2,0.0459,-0.04932,1.47119,21.458,-26.214,-2.481
2026-05-22 16:58:00.807,1352620263,217807,1,-0.22681,0.04272,0.91943,0.992,-46.779,5.275
2026-05-22 16:58:00.807,1352620263,217807,2,0.12842,0.17188,1.43481,33.0,-44.885,-3.344
2026-05-22 16:58:01.007,1352620463,218007,1,-0.20972,0.04297,0.89722,0.214,-56.092,-1.931
2026-05-22 16:58:01.007,1352620463,218007,2,0.2981,0.22192,1.23267,52.832,-90.023,-8.0
2026-05-22 16:58:01.207,1352620663,218207,1,0.05005,0.01685,0.74219,-10.527,-121.832,-9.634
2026-05-22 16:58:01.207,1352620663,218207,2,0.61108,0.40015,0.85864,56.557,-130.588,-19.168
2026-05-22 16:58:01.407,1352620863,218407,1,0.63428,0.03125,0.26245,-5.344,-125.893,-0.969
2026-05-22 16:58:01.407,1352620863,218407,2,0.82397,0.58716,0.51367,37.038,-87.305,-18.481
2026-05-22 16:58:01.607,1352621063,218607,1,0.98096,0.01758,0.26343,5.046,-53.198,-1.595
2026-05-22 16:58:01.607,1352621063,218607,2,0.78711,0.60742,0.37939,33.588,-21.053,-9.061
2026-05-22 16:58:01.807,1352621263,218807,1,1.00073,0.04907,0.1853,-0.74,-14.916,4.641
2026-05-22 16:58:01.807,1352621263,218807,2,0.78857,0.67456,0.27319,8.695,3.359,-0.374
2026-05-22 16:58:02.007,1352621463,219007,1,1.01831,0.02832,0.2019,-5.237,19.534,0.16
2026-05-22 16:58:02.007,1352621463,219007,2,0.79712,0.63452,0.33594,-20.061,17.069,6.229
2026-05-22 16:58:02.207,1352621663,219207,1,0.89966,0.0498,0.21265,-5.313,74.55,-1.244
2026-05-22 16:58:02.207,1352621663,219207,2,0.77173,0.6062,0.54785,-33.893,75.359,17.42
2026-05-22 16:58:02.407,1352621863,219407,1,0.50049,-0.02368,0.4917,-4.336,109.145,2.878
2026-05-22 16:58:02.407,1352621863,219407,2,0.75195,0.37183,0.8147,-78.794,90.611,30.763
2026-05-22 16:58:02.607,1352622063,219607,1,0.16455,0.02563,0.75342,7.489,114.893,1.267
2026-05-22 16:58:02.607,1352622063,219607,2,0.4856,0.28516,1.06104,-64.412,92.916,6.725
2026-05-22 16:58:02.807,1352622263,219807,1,-0.10864,0.0564,0.94922,-2.061,68.695,-1.45
2026-05-22 16:58:02.807,1352622263,219807,2,0.35767,0.20825,1.41479,-43.412,50.366,0.656
2026-05-22 16:58:03.007,1352622463,220007,1,-0.27417,0.04883,0.90259,1.672,42.061,1.221
2026-05-22 16:58:03.007,1352622463,220007,2,0.18848,0.03809,1.37842,-20.405,33.863,8.412
2026-05-22 16:58:03.207,1352622663,220207,1,-0.25977,0.06689,0.80078,6.634,27.084,7.947
