datetime,epoch_ms,ts_millis,mpu_id,ax,ay,az,gx,gy,gz
2026-05-22 16:44:06.334,1351785790,7334,1,0.7644,0.00903,0.56079,-1.504,-0.031,-1.55
2026-05-22 16:44:06.334,1351785790,7334,2,0.88721,0.27612,0.11963,-1.519,0.168,1.504
2026-05-22 16:44:06.534,1351785990,7534,1,0.77808,0.0061,0.55542,-1.649,-0.099,0.206
2026-05-22 16:44:06.534,1351785990,7534,2,0.88672,0.28442,0.12646,-0.137,0.153,0.344
2026-05-22 16:44:06.734,1351786190,7734,1,0.77246,0.0105,0.55615,-2.29,0.802,-0.855
2026-05-22 16:44:06.734,1351786190,7734,2,0.89453,0.27808,0.12524,-2.069,1.382,1.641
2026-05-22 16:44:06.934,1351786390,7934,1,0.77417,0.01538,0.55396,-1.695,0.672,-0.351
2026-05-22 16:44:06.934,1351786390,7934,2,0.8894,0.27637,0.12256,-0.496,0.992,1.435
2026-05-22 16:44:07.134,1351786590,8134,1,0.76611,0.01538,0.55859,-2.015,0.153,-1.221
2026-05-22 16:44:07.134,1351786590,8134,2,0.88403,0.28149,0.11865,-1.382,0.42,1.466
2026-05-22 16:44:07.334,1351786790,8334,1,0.76929,0.02075,0.56055,-1.328,0.962,-0.679
2026-05-22 16:44:07.334,1351786790,8334,2,0.88599,0.28076,0.11572,-0.267,1.313,1.031
2026-05-22 16:44:07.534,1351786990,8534,1,0.7605,0.02002,0.55493,-1.229,1.015,
2026-05-22 16:44:07.534,1351786990,8534,2,0.88721,0.28589,0.11621,-0.634,1.374,1.076
2026-05-22 16:44:07.734,1351787190,8734,1,0.76831,0.01807,0.56055,-2.443,0.779,-1.076
2026-05-22 16:44:07.734,1351787190,8734,2,0.88892,0.2854,0.11719,-2.198,1.137,1.885
2026-05-22 16:44:07.934,1351787390,8934,1,0.76025,0.00879,0.56494,-1.863,0.412,-0.389
2026-05-22 16:44:07.934,1351787390,8934,2,0.89038,0.26685,0.12549,-1.405,1.176,1.573
2026-05-22 16:44:08.134,1351787590,9134,1,0.76318,0.01245,0.56641,-2.008,0.901,0.542
2026-05-22 16:44:08.134,1351787590,9134,2,0.89111,0.28027,0.11279,0.053,1.641,0.779
2026-05-22 16:44:08.334,1351787790,9334,1,0.7644,0.00977,0.5708,-1.511,0.023,0.389
2026-05-22 16:44:08.334,1351787790,9334,2,0.89331,0.27515,0.11792,-1.13,1.58,1.29
2026-05-22 16:44:08.534,1351787990,9534,1,0.7688,0.00977,0.56055,-2.053,0.115,-0.176
2026-05-22 16:44:08.534,1351787990,9534,2,0.88892,0.27783,0.12061,-1.328,2.305,0.718
2026-05-22 16:44:08.734,1351788190,9734,1,0.7644,-0.02759,0.5769,-5.008,-0.794,-5.427
2026-05-22 16:44:08.734,1351788190,9734,2,0.89258,0.2644,0.09229,-7.931,0.672,-1.008
2026-05-22 16:44:08.934,1351788390,9934,1,0.76807,0.08472,0.54321,16.153,2.763,7.26
2026-05-22 16:44:08.934,1351788390,9934,2,0.8877,0.33789,0.14575,2.87,10.305,-8.099
2026-05-22 16:44:09.134,1351788590,10134,1,0.74097,0.1062,0.58594,3.397,16.176,13.626
2026-05-22 16:44:09.134,1351788590,10134,2,0.90088,0.3479,0.17627,-3.405,11.351,10.183
2026-05-22 16:44:09.334,1351788790,10334,1,0.68091,0.0127,0.61206,-20.733,10.168,13.603
2026-05-22 16:44:09.334,1351788790,10334,2,0.92749,0.24121,0.20776,-6.863,5.237,18.191
2026-05-22 16:44:09.534,1351788990,10534,1,0.63599,-0.07349,0.62427,-5.557,4.008,28.634
2026-05-22 16:44:09.534,1351788990,10534,2,0.90625,0.25439,0.18262,17.336,-3.55,4.885
2026-05-22 16:44:09.734,1351789190,10734,1,0.68677,-0.1394,0.62988,-10.527,-4.634,10.015
2026-05-22 16:44:09.734,1351789190,10734,2,0.9209,0.18042,0.16479,1.435,-6.626,16.427
2026-05-22 16:44:09.934,1351789390,10934,1,0.69263,-0.18872,0.60571,12.153,-3.412,16.229
2026-05-22 16:44:09.934,1351789390,10934,2,0.95361,0.16431,0.16235,8.969,-1.786,-1.756
2026-05-22 16:44:10.134,1351789590,11134,1,0.7478,-0.17578,0.55005,-11.092,-9.87,2.26
2026-05-22 16:44:10.134,1351789590,11134,2,0.90991,0.17529,0.11548,7.893,-7.702,0.008
2026-05-22 16:44:10.334,1351789790,11334,1,0.75073,-0.15845,0.56152,-6.107,-7.969,0.817
2026-05-22 16:44:10.334,1351789790,11334,2,0.89551,0.19849,0.10425,7.939,-4.725,-0.099
2026-05-22 16:44:10.534,1351789990,11534,1,0.74243,-0.20874,0.56226,-2.458,-2.55,-2.519
2026-05-22 16:44:10.534,1351789990,11534,2,0.88599,0.17432,0.07568,-4.87,-6.099,5.55
2026-05-22 16:44:10.734,1351790190,11734,1,0.77637,-0.19995,0.53271,0.885,-4.42,1.153
2026-05-22 16:44:10.734,1351790190,11734,2,0.88721,0.19751,0.06104,-2.366,-1.435,3.74
2026-05-22 16:44:10.934,1351790390,11934,1,0.76929,-0.20679,0.53149,-10.145,-1.267,-11.527
2026-05-22 16:44:10.934,1351790390,11934,2,0.89771,0.14038,0.05225,-15.496,0.206,4.084
2026-05-22 16:44:11.134,1351790590,12134,1,0.77124,-0.18115,0.53442,-11.534,3.267,-17.282
2026-05-22 16:44:11.134,1351790590,12134,2,0.91406,0.14551,0.05225,-21.634,3.42,2.893
2026-05-22 16:44:11.334,1351790790,12334,1,0.74146,-0.16846,0.5957,-9.794,-0.252,-18.55
2026-05-22 16:44:11.334,1351790790,12334,2,0.86523,0.19336,0.06494,-19.267,-9.084,-4.626
2026-05-22 16:44:11.534,1351790990,12534,1,0.7229,-0.14648,0.53711,0.412,-21.443,-28.023
2026-05-22 16:44:11.534,1351790990,12534,2,0.87061,0.18408,0.04565,-19.344,-25.298,-16.847
2026-05-22 16:44:11.734,1351791190,12734,1,0.98999,0.04443,0.33691,-3.412,-15.947,-23.282
2026-05-22 16:44:11.734,1351791190,12734,2,0.84985,0.30225,-0.1377,-16.74,-0.466,14.985
2026-05-22 16:44:11.934,1351791390,12934,1,0.93701,-0.00146,0.39087,11.802,20.962,4.527
2026-05-22 16:44:11.934,1351791390,12934,2,0.89331,0.37524,-0.02783,-7.092,35.427,-7.092
2026-05-22 16:44:12.134,1351791590,13134,1,0.75757,0.07837,0.51147,-19.031,42.382,-17.45
2026-05-22 16:44:12.134,1351791590,13134,2,0.82129,0.40234,0.05518,-19.092,34.954,12.756
2026-05-22 16:44:12.334,1351791790,13334,1,0.68066,0.01904,0.59253,-8.565,20.863,-15.137
2026-05-22 16:44:12.334,1351791790,13334,2,0.8396,0.30835,0.13745,-13.687,10.901,4.359
2026-05-22 16:44:12.534,1351791990,13534,1,0.68604,0.03345,0.59937,-7.26,2.382,3.649
2026-05-22 16:44:12.534,1351791990,13534,2,0.9104,0.38574,0.21143,16.206,7.305,-1.649
2026-05-22 16:44:12.734,1351792190,13734,1,0.66357,-0.01538,0.62183,-3.313,9.008,-1.527
2026-05-22 16:44:12.734,1351792190,13734,2,0.89868,0.34204,0.24585,-10.168,11.45,3.725
2026-05-22 16:44:12.934,1351792390,13934,1,0.61353,-0.0127,0.66602,-2.221,6.031,-6.168
2026-05-22 16:44:12.934,1351792390,13934,2,0.85962,0.33398,0.16846,-0.58,3.26,-0.145
2026-05-22 16:44:13.134,1351792590,14134,1,0.68188,-0.03003,0.57202,10.649,4.008,5.908
2026-05-22 16:44:13.134,1351792590,14134,2,0.89844,0.30151,0.2644,-0.405,-1.275,-10.458
2026-05-22 16:44:13.334,1351792790,14334,1,0.63525,0.07788,0.67578,-2.481,-0.198,3.565
2026-05-22 16:44:13.334,1351792790,14334,2,0.91528,0.36206,0.24219,14.069,1.107,-0.779
2026-05-22 16:44:13.534,1351792990,14534,1,0.62329,0.04297,0.68018,12.893,-9.015,8.397
2026-05-22 16:44:13.534,1351792990,14534,2,0.85913,0.37231,0.25879,13.748,-7.092,-7.565
2026-05-22 16:44:13.734,1351793190,14734,1,0.69556,0.06641,0.62158,-12.435,-1.908,-0.481
2026-05-22 16:44:13.734,1351793190,14734,2,0.90967,0.33813,0.25,5.29,-0.069,3.504
2026-05-22 16:44:13.934,1351793390,14934,1,0.67432,0.06323,0.65234,-2.679,-3.58,-6.099
2026-05-22 16:44:13.934,1351793390,14934,2,0.89575,0.35596,0.22412,1.771,-5.611,3.16
2026-05-22 16:44:14.134,1351793590,15134,1,0.64404,0.09692,0.6062,-17.847,2.015,-7.405
2026-05-22 16:44:14.134,1351793590,15134,2,0.93359,0.31543,0.20679,-25.908,-3.382,17.763
2026-05-22 16:44:14.334,1351793790,15334,1,0.63892,0.00464,0.65259,-2.588,4.145,6.305
2026-05-22 16:44:14.334,1351793790,15334,2,0.91553,0.27539,0.17896,6.679,2.084,2.527
2026-05-22 16:44:14.534,1351793990,15534,1,0.61987,0.02856,0.65112,9.023,3.336,9.679
2026-05-22 16:44:14.534,1351793990,15534,2,0.90308,0.34253,0.2561,20.443,3.885,-1.466
2026-05-22 16:44:14.734,1351794190,15734,1,0.61182,-0.0061,0.67603,-0.061,1.214,-2.786
2026-05-22 16:44:14.734,1351794190,15734,2,0.8938,0.25635,0.24072,-16.389,-4.076,5.313
2026-05-22 16:44:14.934,1351794390,15934,1,0.64429,-0.00269,0.67041,2.122,1.229,-0.885
2026-05-22 16:44:14.934,1351794390,15934,2,0.91504,0.2998,0.2168,5.855,-0.87,-2.855
2026-05-22 16:44:15.134,1351794590,16134,1,0.6731,0.06445,0.65259,-2.947,-1.053,-0.878
2026-05-22 16:44:15.134,1351794590,16134,2,0.90942,0.30615,0.20313,-1.87,2.847,5.992
2026-05-22 16:44:15.334,1351794790,16334,1,0.64917,0.02759,0.65381,-0.405,-2.397,0.183
2026-05-22 16:44:15.334,1351794790,16334,2,0.91235,0.27808,0.20605,1.198,1.344,2.076
2026-05-22 16:44:15.534,1351794990,16534,1,0.66382,0.01221,0.65527,0.618,0.473,2.863
2026-05-22 16:44:15.534,1351794990,16534,2,0.91919,0.28418,0.19897,1.137,-0.496,-0.534
2026-05-22 16:44:15.734,1351795190,16734,1,0.68335,0.03271,0.6416,3.099,1.344,2.366
2026-05-22 16:44:15.734,1351795190,16734,2,0.90503,0.27612,0.20117,1.321,3.107,-2.023
2026-05-22 16:44:15.934,1351795390,16934,1,0.65845,0.06079,0.65503,-3.0,-0.221,-0.183
2026-05-22 16:44:15.934,1351795390,16934,2,0.90308,0.29077,0.20093,1.71,2.969,1.748
2026-05-22 16:44:16.134,1351795590,17134,1,0.65137,0.04858,0.63745,-3.099,-1.076,0.489
2026-05-22 16:44:16.134,1351795590,17134,2,0.91138,0.30249,0.22534,-3.382,0.023,3.275
2026-05-22 16:44:16.334,1351795790,17334,1,0.66089,0.03564,0.64478,-4.481,2.031,-1.374
2026-05-22 16:44:16.334,1351795790,17334,2,0.91772,0.27026,0.20215,-4.977,1.763,2.275
2026-05-22 16:44:16.534,1351795990,17534,1,0.66138,0.02588,0.63525,4.45,3.13,4.26
2026-05-22 16:44:16.534,1351795990,17534,2,0.90771,0.30615,0.18677,5.038,2.206,-3.786
2026-05-22 16:44:16.734,1351796190,17734,1,0.67603,0.07031,0.65674,-6.763,-4.038,-2.748
2026-05-22 16:44:16.734,1351796190,17734,2,0.89648,0.30591,0.2229,-3.16,0.214,3.237
2026-05-22 16:44:16.934,1351796390,17934,1,0.66675,0.04175,0.63501,-2.0,0.267,-2.099
2026-05-22 16:44:16.934,1351796390,17934,2,0.91919,0.29468,0.19312,-4.305,0.313,2.023
2026-05-22 16:44:17.134,1351796590,18134,1,0.65991,0.02979,0.64258,-1.725,-0.282,1.275
2026-05-22 16:44:17.134,1351796590,18134,2,0.9082,0.29419,0.20483,3.824,1.542,-0.603
2026-05-22 16:44:17.334,1351796790,18334,1,0.68164,0.04272,0.63794,-1.046,-0.695,-0.427
2026-05-22 16:44:17.334,1351796790,18334,2,0.91406,0.30396,0.21777,-3.015,0.099,2.046
2026-05-22 16:44:17.534,1351796990,18534,1,0.66064,0.02271,0.62451,0.069,1.145,0.74
2026-05-22 16:44:17.534,1351796990,18534,2,0.90698,0.30078,0.20044,0.115,-0.916,0.962
2026-05-22 16:44:17.734,1351797190,18734,1,0.66284,0.03027,0.6377,-4.275,0.466,-0.176
2026-05-22 16:44:17.734,1351797190,18734,2,0.90991,0.29517,0.1897,-0.023,-0.496,1.214
2026-05-22 16:44:17.934,1351797390,18934,1,0.68188,0.0249,0.62964,-1.687,-1.87,1.076
2026-05-22 16:44:17.934,1351797390,18934,2,0.90869,0.30664,0.20068,-1.221,1.382,0.908
2026-05-22 16:44:18.134,1351797590,19134,1,0.66895,0.03809,0.64429,-2.282,3.985,-0.305
2026-05-22 16:44:18.134,1351797590,19134,2,0.90063,0.28564,0.19824,0.817,3.664,-0.305
2026-05-22 16:44:18.334,1351797790,19334,1,0.67651,0.03101,0.63135,-0.092,-6.71,1.939
2026-05-22 16:44:18.334,1351797790,19334,2,0.89868,0.30225,0.21338,5.298,1.198,-0.611
2026-05-22 16:44:18.534,1351797990,19534,1,0.66626,0.02979,0.6377,-2.382,1.42,3.924
2026-05-22 16:44:18.534,1351797990,19534,2,0.90259,0.30103,0.20972,-0.168,1.443,2.069
2026-05-22 16:44:18.734,1351798190,19734,1,0.68604,0.01465,0.63037,0.29,-0.359,0.977
2026-05-22 16:44:18.734,1351798190,19734,2,0.90332,0.30005,0.19116,-0.527,2.198,1.313
2026-05-22 16:44:18.934,1351798390,19934,1,0.68848,0.02808,0.64038,-4.0,2.565,-2.122
2026-05-22 16:44:18.934,1351798390,19934,2,0.90625,0.29883,0.20923,-5.908,3.985,4.26
2026-05-22 16:44:19.134,1351798590,20134,1,0.65869,0.03687,0.63599,0.695,-4.656,2.588
2026-05-22 16:44:19.134,1351798590,20134,2,0.90723,0.2959,0.21143,6.107,-1.29,0.977
2026-05-22 16:44:19.334,1351798790,20334,1,0.68677,0.00928,0.61084,1.458,1.527,3.038
2026-05-22 16:44:19.334,1351798790,20334,2,0.91797,0.2959,0.22974,-3.122,1.427,0.45
2026-05-22 16:44:19.534,1351798990,20534,1,0.67651,0.021,0.64697,0.092,0.84,0.496
2026-05-22 16:44:19.534,1351798990,20534,2,0.89624,0.31665,0.19116,-2.855,-0.45,0.481
2026-05-22 16:44:19.734,1351799190,20734,1,0.69092,0.03125,0.62061,0.916,0.672,-1.351
2026-05-22 16:44:19.734,1351799190,20734,2,0.91699,0.3125,0.19727,-0.542,3.176,1.29
2026-05-22 16:44:19.934,1351799390,20934,1,0.66138,0.02319,0.63965,-2.695,-1.84,-2.916
2026-05-22 16:44:19.934,1351799390,20934,2,0.92456,0.27661,0.2085,-7.351,0.183,3.916
2026-05-22 16:44:20.134,1351799590,21134,1,0.66431,0.03394,0.63525,-4.397,2.366,-1.214
2026-05-22 16:44:20.134,1351799590,21134,2,0.91064,0.2937,0.21899,-1.794,-0.244,3.076
2026-05-22 16:44:20.334,1351799790,21334,1,0.67578,0.03076,0.63745,-2.344,2.878,1.038
2026-05-22 16:44:20.334,1351799790,21334,2,0.9165,0.27734,0.22095,-4.13,1.916,2.382
2026-05-22 16:44:20.534,1351799990,21534,1,0.68188,0.01001,0.62158,2.962,2.832,1.649
2026-05-22 16:44:20.534,1351799990,21534,2,0.91309,0.28979,0.21606,1.382,1.206,-1.16
2026-05-22 16:44:20.734,1351800190,21734,1,0.66333,0.01831,0.64771,-1.794,-0.786,-0.809
2026-05-22 16:44:20.734,1351800190,21734,2,0.91846,0.28931,0.22119,-0.412,0.29,-0.282
2026-05-22 16:44:20.934,1351800390,21934,1,0.67188,0.02466,0.62598,-1.321,1.87,-0.672
2026-05-22 16:44:20.934,1351800390,21934,2,0.91748,0.30078,0.21069,1.504,0.206,0.206
2026-05-22 16:44:21.134,1351800590,22134,1,0.65601,0.00928,0.63989,-2.389,-2.802,-1.733
2026-05-22 16:44:21.134,1351800590,22134,2,0.9165,0.30518,0.21826,2.954,0.565,-0.611
2026-05-22 16:44:21.334,1351800790,22334,1,0.68506,0.01782,0.65161,0.435,-5.046,0.977
2026-05-22 16:44:21.334,1351800790,22334,2,0.90625,0.28857,0.21753,-0.183,0.733,1.519
2026-05-22 16:44:21.534,1351800990,22534,1,0.67993,0.03101,0.62964,-1.115,1.885,0.863
2026-05-22 16:44:21.534,1351800990,22534,2,0.89966,0.29663,0.21362,1.557,3.321,-1.031
2026-05-22 16:44:21.734,1351801190,22734,1,0.66504,0.02539,0.64844,-3.076,0.969,-0.58
2026-05-22 16:44:21.734,1351801190,22734,2,0.90552,0.30762,0.20874,-0.634,0.939,1.366
2026-05-22 16:44:21.934,1351801390,22934,1,0.66992,0.01953,0.6543,-2.878,-0.069,-1.084
2026-05-22 16:44:21.934,1351801390,22934,2,0.90869,0.29053,0.2019,-2.122,-0.656,1.282
2026-05-22 16:44:22.134,1351801590,23134,1,0.67139,0.01245,0.64868,-2.458,0.802,-0.947
2026-05-22 16:44:22.134,1351801590,23134,2,0.91235,0.29883,0.20776,-1.832,2.557,1.023
2026-05-22 16:44:22.334,1351801790,23334,1,0.66162,0.0354,0.64844,-0.244,2.466,-0.58
2026-05-22 16:44:22.334,1351801790,23334,2,0.91309,0.30249,0.22827,-2.443,2.038,2.664
2026-05-22 16:44:22.534,1351801990,23534,1,0.67065,0.02246,0.65503,-0.74,1.611,-3.863
2026-05-22 16:44:22.534,1351801990,23534,2,0.9104,0.28613,0.2356,-3.023,1.473,2.252
2026-05-22 16:44:22.792,1351802248,23792,1,0.65649,0.04004,0.6582,-2.489,-0.115,0.107
2026-05-22 16:44:22.792,1351802248,23792,2,0.9209,0.28394,0.22827,-3.87,1.069,2.557
2026-05-22 16:44:22.992,1351802448,23992,1,0.66309,0.03516,0.63818,-1.985,1.183,0.534
2026-05-22 16:44:22.992,1351802448,23992,2,0.91431,0.30054,0.21997,0.511,0.603,1.0
2026-05-22 16:44:23.192,1351802648,24192,1,0.6543,0.02466,0.65039,-2.794,-0.023,-0.275
2026-05-22 16:44:23.192,1351802648,24192,2,0.92554,0.2915,0.21777,-2.435,0.786,2.237
2026-05-22 16:44:23.392,1351802848,24392,1,0.6748,0.02979,0.65112,-0.557,2.656,0.84
2026-05-22 16:44:23.392,1351802848,24392,2,0.9165,0.28955,0.21753,-1.519,0.275,1.282
2026-05-22 16:44:23.592,1351803048,24592,1,0.66284,0.0249,0.63843,-3.695,-0.26,0.427
2026-05-22 16:44:23.592,1351803048,24592,2,0.91846,0.29126,0.22559,1.481,0.916,0.168
2026-05-22 16:44:23.792,1351803248,24792,1,0.6604,0.01587,0.64453,-1.496,-0.153,0.237
2026-05-22 16:44:23.792,1351803248,24792,2,0.91699,0.28687,0.20996,-1.672,0.099,1.252
2026-05-22 16:44:23.992,1351803448,24992,1,0.66895,0.01514,0.63892,-1.573,0.023,0.26
2026-05-22 16:44:23.992,1351803448,24992,2,0.91162,0.29517,0.2063,1.947,2.328,0.214
2026-05-22 16:44:24.192,1351803648,25192,1,0.66357,0.02393,0.64307,-1.55,-0.023,0.725
2026-05-22 16:44:24.192,1351803648,25192,2,0.91016,0.29346,0.20581,1.252,1.931,0.618
2026-05-22 16:44:24.392,1351803848,25392,1,0.66138,0.02002,0.64526,-2.74,-0.947,-1.336
2026-05-22 16:44:24.392,1351803848,25392,2,0.92676,0.30151,0.21338,-2.145,0.015,3.771
2026-05-22 16:44:24.592,1351804048,25592,1,0.67065,0.01196,0.63379,-1.115,-1.321,-2.954
2026-05-22 16:44:24.592,1351804048,25592,2,0.92163,0.27222,0.2041,-1.977,0.092,1.237
2026-05-22 16:44:24.792,1351804248,25792,1,0.66455,0.02197,0.65015,-2.916,0.908,-0.023
2026-05-22 16:44:24.792,1351804248,25792,2,0.91113,0.28833,0.22363,2.053,2.321,0.122
2026-05-22 16:44:24.992,1351804448,25992,1,0.68262,0.02026,0.62695,0.527,1.191,1.397
2026-05-22 16:44:24.992,1351804448,25992,2,0.90918,0.29077,0.22754,-3.901,3.107,1.992
2026-05-22 16:44:25.192,1351804648,26192,1,0.66431,0.01294,0.64893,-2.122,1.26,-1.534
2026-05-22 16:44:25.192,1351804648,26192,2,0.91528,0.28906,0.22217,-0.779,1.985,1.198
2026-05-22 16:44:25.392,1351804848,26392,1,0.6665,0.021,0.64893,-0.557,0.298,0.191
2026-05-22 16:44:25.392,1351804848,26392,2,0.91846,0.28857,0.23584,-1.206,0.122,1.038
2026-05-22 16:44:25.592,1351805048,26592,1,0.66016,0.03271,0.64844,-2.809,1.435,-1.786
2026-05-22 16:44:25.592,1351805048,26592,2,0.92139,0.28564,0.23657,-4.885,1.084,2.63
2026-05-22 16:44:25.792,1351805248,26792,1,0.6687,0.02979,0.64819,-1.137,0.008,0.137
2026-05-22 16:44:25.792,1351805248,26792,2,0.91919,0.28711,0.22656,-1.359,0.634,2.031
2026-05-22 16:44:25.992,1351805448,26992,1,0.66821,0.02393,0.64258,-1.084,-0.504,0.618
2026-05-22 16:44:25.992,1351805448,26992,2,0.91553,0.27441,0.23267,-0.458,1.053,0.504
2026-05-22 16:44:26.192,1351805648,27192,1,0.66162,0.0188,0.64478,-1.206,-0.519,0.992
2026-05-22 16:44:26.192,1351805648,27192,2,0.91187,0.27612,0.22559,2.511,-0.16,-0.351
2026-05-22 16:44:26.392,1351805848,27392,1,0.66699,0.0415,0.64063,-0.405,2.053,1.832
2026-05-22 16:44:26.392,1351805848,27392,2,0.91479,0.28784,0.22144,-4.679,1.527,2.893
2026-05-22 16:44:26.592,1351806048,27592,1,0.66504,0.02417,0.63965,-3.107,0.237,-1.863
2026-05-22 16:44:26.592,1351806048,27592,2,0.91772,0.29175,0.22339,-1.359,0.718,1.336
2026-05-22 16:44:26.792,1351806248,27792,1,0.66406,0.02417,0.64209,-0.496,2.74,0.328
2026-05-22 16:44:26.792,1351806248,27792,2,0.90771,0.28418,0.22827,-3.229,3.458,2.183
2026-05-22 16:44:26.992,1351806448,27992,1,0.65991,0.02368,0.64819,-0.359,2.656,0.863
2026-05-22 16:44:26.992,1351806448,27992,2,0.91138,0.3042,0.23096,3.74,0.29,-0.427
2026-05-22 16:44:27.192,1351806648,28192,1,0.65747,0.02539,0.64819,-3.313,-1.0,0.031
2026-05-22 16:44:27.192,1351806648,28192,2,0.91895,0.28882,0.23364,-4.687,0.908,3.328
2026-05-22 16:44:27.392,1351806848,28392,1,0.65454,0.01489,0.67017,-2.557,0.214,0.824
2026-05-22 16:44:27.392,1351806848,28392,2,0.91431,0.28735,0.22192,-1.198,0.702,2.336
2026-05-22 16:44:27.592,1351807048,28592,1,0.67041,0.00879,0.6333,0.733,1.198,2.321
2026-05-22 16:44:27.592,1351807048,28592,2,0.91162,0.29126,0.20801,2.58,0.863,-0.26
2026-05-22 16:44:27.792,1351807248,28792,1,0.66211,0.01221,0.62524,-1.626,1.42,0.87
2026-05-22 16:44:27.792,1351807248,28792,2,0.91626,0.29102,0.20654,1.634,0.527,-0.038
2026-05-22 16:44:27.992,1351807448,28992,1,0.66357,0.0271,0.65332,-2.725,0.679,-0.504
2026-05-22 16:44:27.992,1351807448,28992,2,0.91455,0.2981,0.21558,-0.977,1.313,1.84
2026-05-22 16:44:28.192,1351807648,29192,1,0.64575,0.01367,0.65259,-2.611,-2.107,-2.557
2026-05-22 16:44:28.192,1351807648,29192,2,0.9126,0.2793,0.22656,-4.099,-0.183,2.122
2026-05-22 16:44:28.392,1351807848,29392,1,0.65942,0.01489,0.64819,-0.656,1.855,1.29
2026-05-22 16:44:28.392,1351807848,29392,2,0.90918,0.29272,0.21558,3.397,1.618,0.023
2026-05-22 16:44:28.592,1351808048,29592,1,0.6665,0.0188,0.6438,-0.176,-0.198,1.557
2026-05-22 16:44:28.592,1351808048,29592,2,0.91797,0.28931,0.21973,0.641,1.435,0.557
2026-05-22 16:44:28.792,1351808248,29792,1,0.65747,0.02466,0.65649,-1.679,0.092,-0.557
2026-05-22 16:44:28.792,1351808248,29792,2,0.91162,0.29126,0.22314,-1.137,0.397,1.076
2026-05-22 16:44:28.992,1351808448,29992,1,0.66333,0.02368,0.64893,-1.687,-0.237,0.511
2026-05-22 16:44:28.992,1351808448,29992,2,0.9187,0.28687,0.21338,-0.328,0.588,1.664
2026-05-22 16:44:29.192,1351808648,30192,1,0.66748,0.01489,0.65576,-1.504,-0.198,0.008
2026-05-22 16:44:29.192,1351808648,30192,2,0.91357,0.29297,0.2063,1.168,1.359,1.0
2026-05-22 16:44:29.392,1351808848,30392,1,0.67163,0.03223,0.65186,-2.038,1.855,1.55
2026-05-22 16:44:29.392,1351808848,30392,2,0.9104,0.28931,0.21021,-0.015,0.435,0.45
2026-05-22 16:44:29.592,1351809048,30592,1,0.66284,0.02222,0.6438,-2.412,-0.107,-0.443
2026-05-22 16:44:29.592,1351809048,30592,2,0.89233,0.29785,0.18701,1.038,-0.534,-0.435
2026-05-22 16:44:29.792,1351809248,30792,1,0.67773,0.03345,0.63354,-5.099,-5.634,-1.321
2026-05-22 16:44:29.792,1351809248,30792,2,0.90674,0.30786,0.20044,-2.137,-7.382,-0.29
2026-05-22 16:44:29.992,1351809448,30992,1,0.698,0.01343,0.61035,-3.107,-0.87,-2.672
2026-05-22 16:44:29.992,1351809448,30992,2,0.90771,0.27954,0.17944,-3.214,1.511,1.947
2026-05-22 16:44:30.192,1351809648,31192,1,0.69263,0.0144,0.62256,-1.099,-1.031,1.015
2026-05-22 16:44:30.192,1351809648,31192,2,0.91089,0.29443,0.17212,5.427,1.046,-0.374
2026-05-22 16:44:30.392,1351809848,31392,1,0.76709,0.04199,0.66602,-13.679,0.435,-2.473
2026-05-22 16:44:30.392,1351809848,31392,2,0.89087,0.27881,0.18164,-10.878,0.397,6.771
2026-05-22 16:44:30.592,1351810048,31592,1,0.69971,0.01025,0.60083,-1.344,2.656,0.473
2026-05-22 16:44:30.592,1351810048,31592,2,0.9126,0.25708,0.22949,4.092,1.099,-1.198
2026-05-22 16:44:30.792,1351810248,31792,1,0.69678,0.02271,0.62891,1.565,4.908,1.779
2026-05-22 16:44:30.792,1351810248,31792,2,0.91748,0.2998,0.18945,6.115,3.336,-1.817
2026-05-22 16:44:30.992,1351810448,31992,1,0.6936,0.02319,0.64307,-0.412,1.29,-2.153
2026-05-22 16:44:30.992,1351810448,31992,2,0.89404,0.30176,0.18896,-7.641,1.901,3.321
2026-05-22 16:44:31.192,1351810648,32192,1,0.68311,0.00854,0.63647,-0.695,4.107,0.695
2026-05-22 16:44:31.192,1351810648,32192,2,0.9104,0.2937,0.20093,2.122,3.237,-0.656
2026-05-22 16:44:31.392,1351810848,32392,1,0.67236,0.03003,0.6333,-2.221,1.145,-1.618
2026-05-22 16:44:31.392,1351810848,32392,2,0.91699,0.2959,0.2041,-4.824,1.969,1.855
2026-05-22 16:44:31.592,1351811048,32592,1,0.68506,0.01685,0.62549,-0.962,-0.634,-0.412
2026-05-22 16:44:31.592,1351811048,32592,2,0.90747,0.29492,0.19922,0.313,2.137,0.45
2026-05-22 16:44:31.792,1351811248,32792,1,0.67529,0.03101,0.64331,-2.244,1.351,-1.786
2026-05-22 16:44:31.792,1351811248,32792,2,0.89819,0.30103,0.20605,-4.786,1.282,3.305
2026-05-22 16:44:31.992,1351811448,32992,1,0.67896,0.02246,0.63257,-2.885,1.092,-1.611
2026-05-22 16:44:31.992,1351811448,32992,2,0.90625,0.29517,0.20898,-2.641,1.053,2.405
2026-05-22 16:44:32.192,1351811648,33192,1,0.68652,0.03369,0.63428,-0.053,0.779,1.618
2026-05-22 16:44:32.192,1351811648,33192,2,0.90967,0.30811,0.21631,-3.282,1.687,2.542
2026-05-22 16:44:32.392,1351811848,33392,1,0.6748,0.02832,0.62622,-2.672,-0.397,-2.336
2026-05-22 16:44:32.392,1351811848,33392,2,0.90576,0.28613,0.20532,-3.351,1.519,1.656
2026-05-22 16:44:32.592,1351812048,33592,1,0.66016,0.01685,0.6521,-4.74,0.168,-0.679
2026-05-22 16:44:32.592,1351812048,33592,2,0.89673,0.29199,0.21826,4.481,-0.244,0.771
2026-05-22 16:44:32.792,1351812248,33792,1,0.65723,0.02588,0.65015,-0.931,1.466,1.985
2026-05-22 16:44:32.792,1351812248,33792,2,0.90796,0.29785,0.1748,-3.153,0.733,1.298
2026-05-22 16:44:32.992,1351812448,33992,1,0.66284,0.02539,0.64893,-1.076,-0.427,-1.145
2026-05-22 16:44:32.992,1351812448,33992,2,0.9104,0.28955,0.19702,0.885,1.122,-0.443
2026-05-22 16:44:33.192,1351812648,34192,1,0.68799,0.0293,0.62451,-2.763,-1.519,0.366
2026-05-22 16:44:33.192,1351812648,34192,2,0.90234,0.30786,0.2041,-1.664,1.0,2.046
2026-05-22 16:44:33.392,1351812848,34392,1,0.68359,0.02271,0.65454,-6.588,2.695,-2.87
2026-05-22 16:44:33.392,1351812848,34392,2,0.90991,0.2915,0.22339,-8.092,2.061,5.038
2026-05-22 16:44:33.592,1351813048,34592,1,0.68164,0.02759,0.64087,-2.618,2.863,-0.519
2026-05-22 16:44:33.592,1351813048,34592,2,0.92114,0.28174,0.20923,-2.931,2.641,1.977
2026-05-22 16:44:33.792,1351813248,34792,1,0.66772,0.01733,0.65015,-2.763,1.908,-0.687
2026-05-22 16:44:33.792,1351813248,34792,2,0.91724,0.30029,0.2207,-0.809,2.908,1.282
2026-05-22 16:44:33.992,1351813448,34992,1,0.67651,0.01538,0.64478,-3.611,4.58,-0.611
2026-05-22 16:44:33.992,1351813448,34992,2,0.9104,0.29883,0.21118,-4.565,4.305,2.237
2026-05-22 16:44:34.192,1351813648,35192,1,0.6272,0.00684,0.67383,-1.779,1.496,-0.901
2026-05-22 16:44:34.192,1351813648,35192,2,0.93408,0.28345,0.2251,-3.702,0.679,1.397
2026-05-22 16:44:34.392,1351813848,35392,1,0.65967,0.00366,0.65845,-0.527,-2.275,2.435
2026-05-22 16:44:34.392,1351813848,35392,2,0.90942,0.29443,0.25073,2.908,-0.137,0.26
2026-05-22 16:44:34.592,1351814048,35592,1,0.65063,0.00879,0.65625,-2.374,-1.718,-2.748
2026-05-22 16:44:34.592,1351814048,35592,2,0.91113,0.2832,0.23779,-3.809,-0.672,1.885
2026-05-22 16:44:34.792,1351814248,35792,1,0.67139,-0.00781,0.64063,1.382,2.664,2.023
2026-05-22 16:44:34.792,1351814248,35792,2,0.92578,0.28564,0.22632,1.809,3.038,-1.786
2026-05-22 16:44:34.992,1351814448,35992,1,0.65796,0.00806,0.65186,-3.26,2.221,-1.115
2026-05-22 16:44:34.992,1351814448,35992,2,0.92407,0.29932,0.22852,-2.794,3.626,0.908
2026-05-22 16:44:35.192,1351814648,36192,1,0.63062,0.01099,0.6792,-4.893,5.405,-0.718
2026-05-22 16:44:35.192,1351814648,36192,2,0.90796,0.29004,0.24023,-6.153,3.489,4.55
2026-05-22 16:44:35.392,1351814848,36392,1,0.63892,0.04321,0.66382,2.534,5.481,5.634
2026-05-22 16:44:35.392,1351814848,36392,2,0.92871,0.32397,0.26611,-10.221,6.214,6.832
2026-05-22 16:44:35.592,1351815048,36592,1,0.67065,0.01514,0.61499,-1.229,23.824,-2.008
2026-05-22 16:44:35.592,1351815048,36592,2,0.99316,0.28394,0.28809,-8.626,30.397,7.092
2026-05-22 16:44:35.792,1351815248,36792,1,0.8208,-0.00977,1.0459,-1.489,45.878,4.053
2026-05-22 16:44:35.792,1351815248,36792,2,1.71338,0.25952,0.68774,-9.969,98.954,26.092
2026-05-22 16:44:35.992,1351815448,36992,1,0.11011,-0.06934,0.85962,26.244,49.824,31.473
2026-05-22 16:44:35.992,1351815448,36992,2,0.76978,0.30005,0.71509,46.672,60.115,-21.252
2026-05-22 16:44:36.192,1351815648,37192,1,0.02075,0.05225,0.88867,7.061,22.137,7.756
2026-05-22 16:44:36.192,1351815648,37192,2,0.7605,0.33301,0.88232,18.771,17.977,-0.046
2026-05-22 16:44:36.392,1351815848,37392,1,0.02686,0.02954,0.88867,-11.282,-20.511,4.313
2026-05-22 16:44:36.392,1351815848,37392,2,0.67871,0.30151,0.71777,1.061,-46.183,1.176
2026-05-22 16:44:36.592,1351816048,37592,1,0.14819,-0.03149,0.63379,-16.718,-72.42,-9.122
2026-05-22 16:44:36.592,1351816048,37592,2,0.70313,0.21338,0.55444,-5.588,-89.137,0.649
2026-05-22 16:44:36.792,1351816248,37792,1,0.53589,-0.05664,0.4917,-18.695,-63.771,-13.42
2026-05-22 16:44:36.792,1351816248,37792,2,0.89478,0.20386,0.33521,-18.42,-55.649,12.519
2026-05-22 16:44:36.992,1351816448,37992,1,0.75342,-0.12891,0.54956,-6.466,-31.0,-11.534
2026-05-22 16:44:36.992,1351816448,37992,2,0.92188,0.24561,0.17334,-15.107,-26.824,-2.267
2026-05-22 16:44:37.192,1351816648,38192,1,0.73413,-0.15234,0.54102,-3.542,-11.153,-19.237
2026-05-22 16:44:37.192,1351816648,38192,2,0.77808,0.27222,0.01782,-22.107,-25.824,-5.626
2026-05-22 16:44:37.392,1351816848,38392,1,0.91211,0.06299,0.84766,-11.893,-28.878,-30.466
2026-05-22 16:44:37.392,1351816848,38392,2,1.15088,0.20776,0.1709,-28.794,-12.229,9.824
2026-05-22 16:44:37.592,1351817048,38592,1,0.78296,0.01636,0.53564,11.015,-9.496,9.71
2026-05-22 16:44:37.592,1351817048,38592,2,0.94922,0.3645,0.20605,68.504,33.206,-71.664
2026-05-22 16:44:37.792,1351817248,38792,1,0.86621,0.10083,0.44507,23.405,-4.84,14.412
2026-05-22 16:44:37.792,1351817248,38792,2,0.80688,0.4624,0.05518,36.374,9.206,-33.099
2026-05-22 16:44:37.992,1351817448,38992,1,0.84326,0.15063,0.37109,-18.298,3.916,-9.641
2026-05-22 16:44:37.992,1351817448,38992,2,0.64551,0.49438,-0.08618,-36.901,-23.603,10.618
2026-05-22 16:44:38.192,1351817648,39192,1,0.9541,0.1416,0.38232,-51.13,-5.466,-28.053
2026-05-22 16:44:38.192,1351817648,39192,2,0.7583,0.49048,-0.08472,-53.725,-27.924,53.214
2026-05-22 16:44:38.392,1351817848,39392,1,0.77979,-0.1311,0.44189,-12.115,-13.748,8.786
2026-05-22 16:44:38.392,1351817848,39392,2,0.521,0.44751,0.36255,84.687,32.26,-73.809
2026-05-22 16:44:38.592,1351818048,39592,1,0.79395,-0.10571,0.49707,-17.282,-6.748,-32.031
2026-05-22 16:44:38.592,1351818048,39592,2,0.77954,0.2644,-0.06519,15.794,-0.618,-0.992
2026-05-22 16:44:38.792,1351818248,39792,1,0.88794,-0.10742,0.40503,-14.718,5.115,-18.565
2026-05-22 16:44:38.792,1351818248,39792,2,0.82178,0.28662,-0.09277,9.977,6.71,-17.191
2026-05-22 16:44:38.992,1351818448,39992,1,0.90649,-0.04468,0.36255,27.313,-5.084,5.313
2026-05-22 16:44:38.992,1351818448,39992,2,0.78882,0.36597,-0.09766,58.679,1.664,-47.092
2026-05-22 16:44:39.192,1351818648,40192,1,0.58887,0.06763,0.32813,17.542,1.824,3.672
2026-05-22 16:44:39.192,1351818648,40192,2,0.85327,0.37427,0.20703,43.832,28.733,4.183
2026-05-22 16:44:39.392,1351818848,40392,1,0.77612,0.19482,0.44678,41.763,10.076,32.29
2026-05-22 16:44:39.392,1351818848,40392,2,0.67236,0.47388,0.07666,29.992,15.763,-36.427
2026-05-22 16:44:39.592,1351819048,40592,1,0.86768,0.28931,0.42188,7.466,8.511,7.939
2026-05-22 16:44:39.592,1351819048,40592,2,0.69067,0.58496,0.00439,7.305,-1.908,-0.885
2026-05-22 16:44:39.792,1351819248,40792,1,0.87451,0.24121,0.38135,-45.824,-3.298,-10.145
2026-05-22 16:44:39.792,1351819248,40792,2,0.55615,0.5647,-0.07202,-27.802,-37.702,30.55
2026-05-22 16:44:39.992,1351819448,40992,1,1.04395,-0.2168,0.54126,-23.405,9.397,-7.382
2026-05-22 16:44:39.992,1351819448,40992,2,0.52124,0.47778,0.0979,73.275,40.55,-31.641
2026-05-22 16:44:40.192,1351819648,41192,1,0.72803,-0.06128,0.65527,-32.519,26.931,-5.45
2026-05-22 16:44:40.192,1351819648,41192,2,0.78052,0.32422,0.01904,40.176,8.74,35.0
2026-05-22 16:44:40.392,1351819848,41392,1,0.75439,-0.18481,0.55249,-20.756,1.924,4.969
2026-05-22 16:44:40.392,1351819848,41392,2,0.9104,0.25024,0.10522,39.557,6.954,-11.954
2026-05-22 16:44:40.592,1351820048,41592,1,0.82007,-0.10474,0.47046,3.0,-2.489,-0.885
2026-05-22 16:44:40.592,1351820048,41592,2,0.85986,0.28955,0.00171,23.053,5.252,-15.656
2026-05-22 16:44:40.792,1351820248,41792,1,0.84082,-0.13452,0.45117,4.626,0.267,-4.252
2026-05-22 16:44:40.792,1351820248,41792,2,0.82227,0.25464,-0.0022,0.908,3.725,-17.229
2026-05-22 16:44:40.992,1351820448,41992,1,0.8667,-0.11694,0.43848,17.534,-6.565,-5.214
2026-05-22 16:44:40.992,1351820448,41992,2,0.81665,0.30664,-0.03052,13.198,5.023,-24.611
2026-05-22 16:44:41.192,1351820648,42192,1,1.10352,0.03662,0.54907,7.565,-19.046,-3.504
2026-05-22 16:44:41.192,1351820648,42192,2,0.76465,0.37866,0.06519,-33.763,-9.206,12.344
2026-05-22 16:44:41.392,1351820848,42392,1,0.75098,0.09595,0.43896,-48.565,-8.84,-40.237
2026-05-22 16:44:41.392,1351820848,42392,2,0.89478,0.427,0.23535,-50.336,-23.733,36.74
2026-05-22 16:44:41.592,1351821048,42592,1,0.86035,0.13062,0.45142,-60.069,-10.557,-50.29
2026-05-22 16:44:41.592,1351821048,42592,2,0.79077,0.46826,0.0127,-127.992,-36.267,57.55
2026-05-22 16:44:41.900,1351821356,42900,1,0.88379,0.10132,0.38477,-94.252,0.046,-67.672
2026-05-22 16:44:41.900,1351821356,42900,2,0.71143,0.4563,0.00391,-80.656,-33.565,38.679
2026-05-22 16:44:42.100,1351821556,43100,1,0.84717,0.20361,0.41772,-92.267,-25.481,-58.466
2026-05-22 16:44:42.100,1351821556,43100,2,1.1897,0.06201,-0.00391,-110.931,-33.092,84.87
2026-05-22 16:44:42.300,1351821756,43300,1,0.91162,-0.03687,0.35205,-100.618,0.977,-43.443
2026-05-22 16:44:42.300,1351821756,43300,2,0.80078,0.25366,0.03369,-111.038,-22.389,65.748
2026-05-22 16:44:42.500,1351821956,43500,1,0.85034,-0.32471,0.52637,-83.221,13.099,-46.092
2026-05-22 16:44:42.500,1351821956,43500,2,0.8418,0.16455,-0.04541,-59.565,-5.031,36.153
2026-05-22 16:44:42.700,1351822156,43700,1,0.90674,-0.21631,0.41162,-47.794,-2.87,-30.382
2026-05-22 16:44:42.700,1351822156,43700,2,0.91553,0.16162,-0.0166,-52.496,-0.29,28.863
2026-05-22 16:44:42.900,1351822356,43900,1,0.83789,-0.22192,0.44067,-23.244,15.008,-28.115
2026-05-22 16:44:42.900,1351822356,43900,2,0.86279,0.177,-0.04419,-25.74,7.023,4.008
2026-05-22 16:44:43.100,1351822556,44100,1,0.79004,-0.21582,0.45435,19.954,-0.542,-1.962
2026-05-22 16:44:43.100,1351822556,44100,2,0.82544,0.28638,0.00293,38.107,4.786,-59.992
2026-05-22 16:44:43.328,1351822784,44328,1,0.84082,0.08887,0.36621,18.237,-17.992,-22.328
2026-05-22 16:44:43.328,1351822784,44328,2,0.84058,0.39697,0.08447,-50.58,-7.298,21.031
2026-05-22 16:44:43.528,1351822984,44528,1,0.86353,0.11157,0.45361,-19.206,-10.237,-33.672
2026-05-22 16:44:43.528,1351822984,44528,2,0.81909,0.49097,0.13159,-52.527,-16.504,10.924
2026-05-22 16:44:43.728,1351823184,44728,1,0.86255,0.23315,0.49268,-41.397,-6.198,-54.924
2026-05-22 16:44:43.728,1351823184,44728,2,0.79956,0.57397,0.12134,-62.977,-24.794,17.664
2026-05-22 16:44:43.928,1351823384,44928,1,0.83984,0.33447,0.40894,-39.847,-4.824,-36.87
2026-05-22 16:44:43.928,1351823384,44928,2,0.69604,0.5564,0.04517,-33.405,-24.267,25.71
2026-05-22 16:44:44.128,1351823584,45128,1,0.79077,0.29834,0.43726,-33.267,-24.237,-17.695
2026-05-22 16:44:44.128,1351823584,45128,2,0.85913,0.46851,-0.03394,-14.244,-41.771,23.435
2026-05-22 16:44:44.328,1351823784,45328,1,0.91992,0.0769,0.32422,-29.786,-22.802,21.359
2026-05-22 16:44:44.328,1351823784,45328,2,0.84717,0.35693,0.04712,-17.176,-9.16,-7.29
2026-05-22 16:44:44.528,1351823984,45528,1,0.84302,0.02979,0.39502,-23.908,15.542,-0.542
2026-05-22 16:44:44.528,1351823984,45528,2,0.70605,0.47607,0.04199,-14.824,0.656,-9.366
2026-05-22 16:44:44.728,1351824184,45728,1,0.89209,-0.04565,0.48755,-2.244,6.977,-11.137
2026-05-22 16:44:44.728,1351824184,45728,2,0.7981,0.3501,-0.06714,8.366,-1.069,4.664
2026-05-22 16:44:44.928,1351824384,45928,1,0.86938,0.02637,0.41406,7.763,-2.947,11.458
2026-05-22 16:44:44.928,1351824384,45928,2,0.8147,0.47876,0.01416,7.122,-2.29,-6.687
2026-05-22 16:44:45.128,1351824584,46128,1,0.88403,0.05786,0.41455,-20.817,0.397,-10.557
2026-05-22 16:44:45.128,1351824584,46128,2,0.77026,0.48315,0.0481,-25.298,-12.305,20.573
2026-05-22 16:44:45.328,1351824784,46328,1,0.86108,0.0166,0.44067,-33.282,-0.687,-15.649
2026-05-22 16:44:45.328,1351824784,46328,2,0.77905,0.40723,0.00195,-26.183,-13.412,22.901
2026-05-22 16:44:45.528,1351824984,46528,1,0.91064,-0.05786,0.396,-25.168,7.626,-6.641
2026-05-22 16:44:45.528,1351824984,46528,2,0.80518,0.40967,-0.0166,-16.206,-0.389,16.916
2026-05-22 16:44:45.728,1351825184,46728,1,0.82471,-0.03638,0.44434,-3.061,1.481,2.145
2026-05-22 16:44:45.728,1351825184,46728,2,0.81641,0.38403,0.03613,1.191,-1.351,1.282
2026-05-22 16:44:45.928,1351825384,46928,1,0.87256,-0.0293,0.40918,-8.061,-2.389,-6.634
2026-05-22 16:44:45.928,1351825384,46928,2,0.80884,0.38916,-0.0061,-13.534,-3.824,7.794
2026-05-22 16:44:46.128,1351825584,47128,1,0.93677,-0.04541,0.41846,-2.748,-1.221,-1.313
2026-05-22 16:44:46.128,1351825584,47128,2,0.81445,0.37476,-0.01196,-2.756,3.382,0.435
2026-05-22 16:44:46.328,1351825784,47328,1,0.90332,-0.0437,0.41211,3.573,5.122,6.565
2026-05-22 16:44:46.328,1351825784,47328,2,0.83765,0.37305,0.02637,5.298,9.954,5.099
2026-05-22 16:44:46.528,1351825984,47528,1,0.89063,-0.06372,0.43481,-2.794,17.046,8.29
2026-05-22 16:44:46.528,1351825984,47528,2,0.82764,0.3501,-0.0022,-4.527,8.137,10.206
2026-05-22 16:44:46.728,1351826184,47728,1,0.81787,-0.09888,0.46924,-15.008,5.489,-12.565
2026-05-22 16:44:46.728,1351826184,47728,2,0.84912,0.32397,0.0564,-29.359,-2.29,17.939
2026-05-22 16:44:46.928,1351826384,47928,1,0.90918,-0.13159,0.5354,-7.038,-13.412,-15.237
2026-05-22 16:44:46.928,1351826384,47928,2,0.90308,0.41553,0.19092,7.656,1.107,-12.916
2026-05-22 16:44:47.128,1351826584,48128,1,0.83618,0.1311,0.44214,13.305,-0.626,-22.725
2026-05-22 16:44:47.128,1351826584,48128,2,0.89648,0.53955,0.08594,29.992,23.634,-24.321
2026-05-22 16:44:47.328,1351826784,48328,1,0.79028,0.2876,0.41113,0.649,-2.443,4.916
2026-05-22 16:44:47.328,1351826784,48328,2,0.72534,0.56055,0.08789,23.153,-0.26,-14.672
2026-05-22 16:44:47.528,1351826984,48528,1,0.83423,0.24512,0.39307,-2.244,-7.137,19.275
2026-05-22 16:44:47.528,1351826984,48528,2,0.72192,0.61499,0.13965,17.855,1.672,3.076
2026-05-22 16:44:47.731,1351827187,48730,1,1.25146,-0.03052,0.50439,22.916,10.336,24.595
2026-05-22 16:44:47.731,1351827187,48730,2,0.62671,0.35791,-0.11304,-28.053,-10.031,-6.137
2026-05-22 16:44:47.930,1351827386,48930,1,0.87354,-0.06226,0.45801,16.481,14.748,17.954
2026-05-22 16:44:47.930,1351827386,48930,2,0.79785,0.21289,-0.00171,-23.344,-11.893,62.382
2026-05-22 16:44:48.130,1351827586,49130,1,0.88281,-0.20483,0.47729,-22.924,0.038,20.374
2026-05-22 16:44:48.130,1351827586,49130,2,0.86401,0.22461,0.01465,-6.42,-13.137,15.855
2026-05-22 16:44:48.330,1351827786,49330,1,0.86084,-0.18945,0.43042,20.244,-1.046,12.191
2026-05-22 16:44:48.330,1351827786,49330,2,0.86157,0.28418,0.02441,11.809,14.076,-25.817
2026-05-22 16:44:48.530,1351827986,49530,1,0.84497,-0.146,0.39185,-3.779,0.183,-18.008
2026-05-22 16:44:48.530,1351827986,49530,2,0.78662,0.32202,-0.0105,-23.42,-8.855,-5.489
2026-05-22 16:44:48.730,1351828186,49730,1,0.8855,-0.15161,0.38184,-32.229,-16.71,-48.84
2026-05-22 16:44:48.730,1351828186,49730,2,0.7478,0.29248,-0.11816,-49.527,-37.947,2.962
2026-05-22 16:44:48.930,1351828386,49930,1,1.0603,0.13062,0.35034,-85.374,-28.595,-72.634
2026-05-22 16:44:48.930,1351828386,49930,2,0.68213,0.35181,0.14697,-121.115,-62.931,84.71
2026-05-22 16:44:49.130,1351828586,50130,1,1.04272,0.20093,0.48926,-103.557,-1.962,-80.473
2026-05-22 16:44:49.130,1351828586,50130,2,0.76587,0.47168,-0.03418,-182.015,-51.107,86.481
2026-05-22 16:44:49.330,1351828786,50330,1,0.95264,0.13794,0.29297,-127.252,-6.519,-73.992
2026-05-22 16:44:49.330,1351828786,50330,2,0.7644,0.41943,-0.11011,-156.389,-56.008,91.611
2026-05-22 16:44:49.530,1351828986,50530,1,0.82813,0.10303,0.36792,-89.191,-11.214,-53.282
2026-05-22 16:44:49.530,1351828986,50530,2,0.68604,0.45557,-0.02612,-67.489,-46.878,29.947
2026-05-22 16:44:49.730,1351829186,50730,1,0.90308,0.02319,0.34351,-73.107,-20.542,-34.038
2026-05-22 16:44:49.730,1351829186,50730,2,0.81201,0.19507,0.09375,-60.496,-52.641,19.084
2026-05-22 16:44:49.930,1351829386,50930,1,0.94751,-0.19238,0.44775,-133.328,29.16,-75.069
2026-05-22 16:44:49.930,1351829386,50930,2,0.8291,0.27295,-0.21924,-127.611,-33.084,46.466
2026-05-22 16:44:50.130,1351829586,51130,1,0.8291,-0.14331,0.36353,-78.145,-4.664,-71.87
2026-05-22 16:44:50.130,1351829586,51130,2,0.77271,0.26489,-0.1001,-47.603,-17.641,9.962
2026-05-22 16:44:50.330,1351829786,51330,1,0.79248,0.14624,0.44092,-68.824,-5.282,-73.107
2026-05-22 16:44:50.330,1351829786,51330,2,0.65454,0.22559,-0.01172,-111.321,-58.542,47.977
2026-05-22 16:44:50.530,1351829986,51530,1,0.82593,0.14746,0.51318,-14.206,-7.496,-21.87
2026-05-22 16:44:50.530,1351829986,51530,2,0.85083,0.41211,0.12524,-26.458,-5.252,18.885
2026-05-22 16:44:50.730,1351830186,51730,1,0.8623,0.22412,0.43433,12.427,7.351,-2.42
2026-05-22 16:44:50.730,1351830186,51730,2,0.77832,0.55786,0.15356,-6.58,0.176,-6.679
2026-05-22 16:44:50.027,1351829483,52027,1,0.86279,0.1543,0.44629,-15.031,10.992,-11.947
2026-05-22 16:44:50.027,1351829483,52027,2,0.85962,0.48633,0.21289,-8.183,10.954,4.084
2026-05-22 16:44:51.377,1351830833,52377,1,0.75073,0.27686,0.54395,-2.237,-2.534,17.366
2026-05-22 16:44:51.377,1351830833,52377,2,0.86865,0.38794,0.26123,47.885,4.015,-23.115
2026-05-22 16:44:51.640,1351831096,52640,1,0.8479,0.07861,0.49121,-10.061,-8.122,19.092
2026-05-22 16:44:51.640,1351831096,52640,2,0.84253,0.42358,0.05542,-10.84,-17.198,9.069
2026-05-22 16:44:51.840,1351831296,52840,1,0.91504,-0.03589,0.56592,-26.031,8.573,-12.763
2026-05-22 16:44:51.840,1351831296,52840,2,0.8147,0.41821,-0.12842,-34.099,-18.916,-6.817
2026-05-22 16:44:52.040,1351831496,53040,1,0.85693,0.01587,0.43115,-19.809,7.481,-18.763
2026-05-22 16:44:52.040,1351831496,53040,2,0.83618,0.34912,0.08691,-16.229,5.122,12.122
2026-05-22 16:44:52.240,1351831696,53240,1,0.81396,-0.06616,0.56348,-2.603,-8.779,-16.107
2026-05-22 16:44:52.240,1351831696,53240,2,0.80615,0.31177,-0.03198,1.206,-2.931,-10.42
2026-05-22 16:44:52.440,1351831896,53440,1,0.96094,0.08179,0.66553,8.321,-7.626,15.55
2026-05-22 16:44:52.440,1351831896,53440,2,0.76733,0.4375,0.0752,-17.42,-19.328,-45.069
2026-05-22 16:44:52.640,1351832096,53640,1,0.86499,0.073,0.45825,1.794,-8.336,12.855
2026-05-22 16:44:52.640,1351832096,53640,2,0.74683,0.46655,0.09985,17.244,3.252,-9.153
2026-05-22 16:44:52.840,1351832296,53840,1,0.87744,0.08008,0.40649,7.649,-1.397,13.527
2026-05-22 16:44:52.840,1351832296,53840,2,0.73364,0.5708,-0.02368,0.748,-7.573,-2.71
2026-05-22 16:44:53.040,1351832496,54040,1,0.91333,0.06641,0.40015,2.878,-7.779,2.718
2026-05-22 16:44:53.040,1351832496,54040,2,0.69043,0.51318,-0.00684,-19.992,-6.802,-2.802
2026-05-22 16:44:53.240,1351832696,54240,1,0.93457,0.04517,0.42432,-9.763,16.252,-3.656
2026-05-22 16:44:53.240,1351832696,54240,2,0.80835,0.57129,0.04565,-3.0,11.763,14.466
2026-05-22 16:44:53.440,1351832896,54440,1,0.86768,0.0791,0.38867,-7.374,6.183,7.664
2026-05-22 16:44:53.440,1351832896,54440,2,0.75366,0.53003,0.05713,75.092,13.733,-10.557
2026-05-22 16:44:53.640,1351833096,54640,1,0.87402,0.0144,0.4104,-3.336,1.573,1.87
2026-05-22 16:44:53.640,1351833096,54640,2,0.71729,0.48169,-0.08691,7.298,-0.42,-1.328
2026-05-22 16:44:53.840,1351833296,54840,1,0.90918,0.05518,0.38599,-7.359,-2.573,-7.099
2026-05-22 16:44:53.840,1351833296,54840,2,0.72412,0.4707,-0.07959,-25.885,-10.191,11.099
2026-05-22 16:44:54.040,1351833496,55040,1,0.87256,0.10327,0.37598,-11.427,8.466,-9.328
2026-05-22 16:44:54.040,1351833496,55040,2,0.80225,0.46875,0.01831,-12.122,-0.71,15.718
2026-05-22 16:44:54.240,1351833696,55240,1,0.88037,0.04028,0.40942,-10.84,1.817,-0.916
2026-05-22 16:44:54.240,1351833696,55240,2,0.75879,0.48242,0.02637,36.153,15.191,-29.168
2026-05-22 16:44:54.440,1351833896,55440,1,0.93018,0.05615,0.3999,-11.939,1.344,-3.542
2026-05-22 16:44:54.440,1351833896,55440,2,0.74731,0.5,-0.00366,2.679,4.137,-1.71
2026-05-22 16:44:54.640,1351834096,55640,1,0.89795,0.06445,0.39966,-10.405,10.397,-5.481
2026-05-22 16:44:54.640,1351834096,55640,2,0.77515,0.44238,0.07178,-37.603,5.565,19.969
2026-05-22 16:44:54.840,1351834296,55840,1,0.87476,0.06689,0.49438,-24.107,19.771,-7.763
2026-05-22 16:44:54.840,1351834296,55840,2,0.81836,0.4502,0.06836,-30.214,2.771,30.168
2026-05-22 16:44:55.040,1351834496,56040,1,0.78979,-0.10596,0.54224,-2.023,-2.42,3.473
2026-05-22 16:44:55.040,1351834496,56040,2,0.78955,0.38672,0.00073,27.389,-5.908,-19.718
2026-05-22 16:44:55.240,1351834696,56240,1,0.86377,-0.01465,0.47876,-3.511,-7.298,1.305
2026-05-22 16:44:55.240,1351834696,56240,2,0.8125,0.39429,0.06372,0.794,-1.534,3.473
2026-05-22 16:44:55.440,1351834896,56440,1,0.87622,-0.03979,0.45825,-0.29,-8.42,1.229
2026-05-22 16:44:55.440,1351834896,56440,2,0.79028,0.42139,-0.00098,6.008,-9.107,-8.023
2026-05-22 16:44:55.640,1351835096,56640,1,0.88232,-0.01416,0.43091,0.198,-1.733,-0.496
2026-05-22 16:44:55.640,1351835096,56640,2,0.80518,0.42163,0.0083,-2.214,2.168,1.344
2026-05-22 16:44:55.840,1351835296,56840,1,0.86792,-0.01636,0.42798,3.176,0.595,5.962
2026-05-22 16:44:55.840,1351835296,56840,2,0.77759,0.38818,0.00659,5.183,5.267,-0.618
2026-05-22 16:44:56.040,1351835496,57040,1,0.92554,-0.06494,0.45313,-12.168,13.046,0.756
2026-05-22 16:44:56.040,1351835496,57040,2,0.83032,0.41187,-0.00122,-28.618,13.26,28.794
2026-05-22 16:44:56.271,1351835727,57270,1,0.8916,-0.10107,0.44946,6.405,20.74,-6.0
2026-05-22 16:44:56.271,1351835727,57270,2,0.94678,0.34546,0.13428,6.84,50.092,9.046
2026-05-22 16:44:56.470,1351835926,57470,1,0.8479,-0.06592,0.40381,14.595,66.275,1.214
2026-05-22 16:44:56.470,1351835926,57470,2,1.00952,0.30103,0.29956,12.588,82.046,19.336
2026-05-22 16:44:56.670,1351836126,57670,1,0.21533,0.04004,0.65674,11.939,115.237,13.198
2026-05-22 16:44:56.670,1351836126,57670,2,0.95703,0.34497,0.48535,95.298,138.985,5.275
2026-05-22 16:44:56.870,1351836326,57870,1,-0.0332,0.24146,0.83618,4.298,87.504,-2.359
2026-05-22 16:44:56.870,1351836326,57870,2,0.77222,0.39038,0.95459,18.885,96.45,11.45
2026-05-22 16:44:57.070,1351836526,58070,1,-0.38062,0.18774,1.05933,-14.802,28.786,-8.229
2026-05-22 16:44:57.070,1351836526,58070,2,0.6189,0.30127,1.20728,-8.916,11.267,8.893
2026-05-22 16:44:57.270,1351836726,58270,1,-0.25391,0.10205,0.96631,-2.588,-51.573,2.756
2026-05-22 16:44:57.270,1351836726,58270,2,0.70654,0.2854,1.02197,11.679,-68.74,-0.076
2026-05-22 16:44:57.470,1351836926,58470,1,0.06958,0.10645,0.7832,-1.511,-87.137,1.786
2026-05-22 16:44:57.470,1351836926,58470,2,0.84546,0.33081,0.72217,6.634,-97.618,-5.183
2026-05-22 16:44:57.670,1351837126,58670,1,0.41064,0.05005,0.6333,-3.947,-87.557,-0.198
2026-05-22 16:44:57.670,1351837126,58670,2,0.92578,0.28369,0.41943,-9.863,-90.42,-10.275
2026-05-22 16:44:57.870,1351837326,58870,1,0.65234,0.02734,0.53052,-17.313,-46.771,1.969
2026-05-22 16:44:57.870,1351837326,58870,2,0.89136,0.29712,0.26929,-10.29,-48.275,-1.588
2026-05-22 16:44:58.070,1351837526,59070,1,0.98315,-0.05786,0.45166,-18.229,8.389,-11.969
2026-05-22 16:44:58.070,1351837526,59070,2,0.9563,0.38037,0.01904,-23.397,4.885,25.901
2026-05-22 16:44:58.270,1351837726,59270,1,0.70264,-0.05566,0.52368,-2.099,51.588,-3.802
2026-05-22 16:44:58.270,1351837726,59270,2,0.88916,0.19434,0.21582,-25.527,45.885,12.038
2026-05-22 16:44:58.470,1351837926,59470,1,0.40552,0.12817,0.65967,11.55,78.16,0.107
2026-05-22 16:44:58.470,1351837926,59470,2,0.99365,0.24829,0.61597,57.565,53.496,47.977
2026-05-22 16:44:58.670,1351838126,59670,1,0.11011,0.14063,0.8689,7.237,62.908,28.725
2026-05-22 16:44:58.670,1351838126,59670,2,0.91309,0.43994,0.78589,-13.534,54.893,12.412
2026-05-22 16:44:58.870,1351838326,59870,1,-0.02246,0.20068,0.72705,-8.122,36.985,-10.053
2026-05-22 16:44:58.870,1351838326,59870,2,0.72534,0.42554,0.9397,-41.878,30.13,12.061
2026-05-22 16:44:59.070,1351838526,60070,1,-0.22021,-0.10327,0.93701,-11.16,34.481,-0.534
2026-05-22 16:44:59.070,1351838526,60070,2,0.7439,0.26855,1.02905,34.87,35.389,-20.267
2026-05-22 16:44:59.270,1351838726,60270,1,-0.18579,-0.021,0.83057,-5.282,4.252,6.672
2026-05-22 16:44:59.270,1351838726,60270,2,0.78882,0.11304,1.00464,-3.076,5.74,5.351
2026-05-22 16:44:59.470,1351838926,60470,1,-0.19653,-0.02075,0.81226,3.328,5.229,10.389
2026-05-22 16:44:59.470,1351838926,60470,2,0.74634,0.17773,1.02588,4.748,3.122,6.687
2026-05-22 16:44:59.670,1351839126,60670,1,-0.19556,-0.03101,0.80396,-9.153,-0.053,1.916
2026-05-22 16:44:59.670,1351839126,60670,2,0.76611,0.15698,1.00098,-1.58,4.931,6.901
2026-05-22 16:44:59.870,1351839326,60870,1,-0.04834,-0.01636,0.51025,-6.237,18.855,2.389
2026-05-22 16:44:59.870,1351839326,60870,2,0.59717,0.15771,0.92432,-6.313,71.176,16.023
2026-05-22 16:45:00.070,1351839526,61070,1,-0.31152,-0.12256,0.69165,-12.603,50.679,5.328
2026-05-22 16:45:00.070,1351839526,61070,2,0.5791,0.08618,1.27026,-31.008,78.611,5.534
2026-05-22 16:45:00.270,1351839726,61270,1,-0.66504,-0.08057,0.95483,-0.214,30.473,1.863
2026-05-22 16:45:00.270,1351839726,61270,2,0.33008,0.08716,1.47119,-4.985,23.893,0.855
2026-05-22 16:45:00.470,1351839926,61470,1,-0.47388,-0.04102,0.56885,3.382,-10.71,-4.366
2026-05-22 16:45:00.470,1351839926,61470,2,0.29541,0.09644,1.3103,1.687,16.26,-1.824
2026-05-22 16:45:00.670,1351840126,61670,1,-0.55103,-0.09302,0.72461,-9.84,15.962,-9.198
2026-05-22 16:45:00.670,1351840126,61670,2,0.25391,-0.01929,1.42944,-21.328,11.214,5.0
2026-05-22 16:45:00.870,1351840326,61870,1,-0.57642,-0.0542,0.72437,6.099,-8.824,-1.061
2026-05-22 16:45:00.870,1351840326,61870,2,0.24951,0.02588,1.42236,1.26,-6.55,-1.626
2026-05-22 16:45:01.070,1351840526,62070,1,-0.47437,-0.06494,0.62988,5.267,-5.611,2.366
2026-05-22 16:45:01.070,1351840526,62070,2,0.27441,0.04883,1.36743,8.031,2.046,-1.641
2026-05-22 16:45:01.270,1351840726,62270,1,-0.51318,-0.1084,0.67188,-2.618,4.015,0.443
2026-05-22 16:45:01.270,1351840726,62270,2,0.25513,0.00293,1.37256,-3.046,0.153,2.656
2026-05-22 16:45:01.570,1351841026,62570,1,-0.47705,-0.08618,0.65845,-2.618,-0.84,0.595
2026-05-22 16:45:01.570,1351841026,62570,2,0.24561,0.01343,1.37402,-2.458,2.771,2.45
2026-05-22 16:45:01.770,1351841226,62770,1,-0.49707,-0.08301,0.66992,-2.046,2.389,0.435
2026-05-22 16:45:01.770,1351841226,62770,2,0.24731,0.01099,1.38086,-2.947,2.519,1.809
2026-05-22 16:45:01.970,1351841426,62970,1,-0.49634,-0.07544,0.66235,-2.489,3.382,0.176
2026-05-22 16:45:01.970,1351841426,62970,2,0.21265,0.02173,1.37402,-1.611,1.649,1.672
2026-05-22 16:45:02.170,1351841626,63170,1,-0.5188,-0.09106,0.67944,-10.733,3.794,0.282
2026-05-22 16:45:02.170,1351841626,63170,2,0.229,0.0105,1.40308,2.275,-0.366,3.786
2026-05-22 16:45:02.370,1351841826,63370,1,-0.62378,-0.11743,0.72778,-5.718,-18.405,3.58
2026-05-22 16:45:02.370,1351841826,63370,2,0.27393,0.06226,1.34204,0.336,-30.305,0.45
2026-05-22 16:45:02.570,1351842026,63570,1,-0.61353,-0.12427,0.88599,-20.351,-2.084,1.756
2026-05-22 16:45:02.570,1351842026,63570,2,0.42505,0.04297,1.37793,6.092,-49.641,-0.359
2026-05-22 16:45:02.770,1351842226,63770,1,-0.50903,-0.10132,0.83936,4.427,-50.733,-1.771
2026-05-22 16:45:02.770,1351842226,63770,2,0.54053,0.14722,1.19922,1.702,-80.702,-10.832
2026-05-22 16:45:02.970,1351842426,63970,1,-0.18091,-0.12598,0.78101,9.153,-89.374,-7.55
2026-05-22 16:45:02.970,1351842426,63970,2,0.77466,0.21875,0.92212,26.756,-92.015,-21.962
2026-05-22 16:45:03.170,1351842626,64170,1,0.14941,-0.06714,0.7146,9.824,-92.275,-2.649
2026-05-22 16:45:03.170,1351842626,64170,2,0.85254,0.33374,0.64038,17.962,-77.565,-7.817
2026-05-22 16:45:03.370,1351842826,64370,1,0.47559,0.03931,0.65601,5.321,-68.824,-12.519
2026-05-22 16:45:03.370,1351842826,64370,2,0.90698,0.44189,0.41309,13.565,-69.557,0.252
2026-05-22 16:45:03.570,1351843026,64570,1,0.70435,0.05688,0.521,-0.672,-52.382,-13.733
2026-05-22 16:45:03.570,1351843026,64570,2,0.87524,0.42212,0.18359,-2.0,-34.435,4.023
2026-05-22 16:45:03.770,1351843226,64770,1,0.76685,0.03247,0.52026,-2.885,-18.153,-6.565
2026-05-22 16:45:03.770,1351843226,64770,2,0.88135,0.38403,0.19531,14.939,4.153,-4.763
2026-05-22 16:45:03.970,1351843426,64970,1,0.7229,0.04907,0.59058,-3.0,2.153,0.748
2026-05-22 16:45:03.970,1351843426,64970,2,0.91968,0.38013,0.21802,-1.84,1.771,4.878
2026-05-22 16:45:04.170,1351843626,65170,1,0.74463,0.05029,0.56934,-7.328,-2.107,-0.832
2026-05-22 16:45:04.170,1351843626,65170,2,0.88599,0.35962,0.17554,-3.061,-5.45,6.931
2026-05-22 16:45:04.370,1351843826,65370,1,0.80273,0.05225,0.52051,0.031,-1.679,1.382
2026-05-22 16:45:04.370,1351843826,65370,2,0.87354,0.35498,0.19409,-12.71,1.855,7.771
2026-05-22 16:45:04.570,1351844026,65570,1,0.7666,0.05566,0.55762,1.008,1.26,2.237
2026-05-22 16:45:04.570,1351844026,65570,2,0.88281,0.36743,0.18359,3.046,1.069,-0.817
2026-05-22 16:45:04.770,1351844226,65770,1,0.77686,0.04126,0.55542,-1.366,9.237,1.427
2026-05-22 16:45:04.770,1351844226,65770,2,0.90332,0.38086,0.17554,-10.832,9.45,2.687
2026-05-22 16:45:04.970,1351844426,65970,1,0.82471,0.0459,0.45996,-3.038,36.58,-1.13
2026-05-22 16:45:04.970,1351844426,65970,2,0.91431,0.33179,0.22412,-44.534,41.962,15.29
2026-05-22 16:45:05.170,1351844626,66170,1,0.49219,0.04468,0.65479,-5.443,82.672,-1.802
2026-05-22 16:45:05.170,1351844626,66170,2,0.91406,0.31079,0.52124,-1.023,75.962,9.435
2026-05-22 16:45:05.370,1351844826,66370,1,0.09082,0.0293,0.78223,-9.847,108.069,7.756
2026-05-22 16:45:05.370,1351844826,66370,2,0.84668,0.32593,0.85596,25.702,102.786,11.206
2026-05-22 16:45:05.570,1351845026,66570,1,-0.1748,-0.04468,0.77197,-14.832,74.13,7.664
2026-05-22 16:45:05.570,1351845026,66570,2,0.5957,0.19995,1.1521,-15.771,78.313,16.092
2026-05-22 16:45:05.784,1351845240,66784,1,-0.39819,-0.10669,0.80981,-14.321,29.733,8.382
2026-05-22 16:45:05.784,1351845240,66784,2,0.49023,0.20801,1.2854,2.916,45.038,10.099
2026-05-22 16:45:05.984,1351845440,66984,1,-0.43506,-0.07202,0.81641,-3.763,1.374,0.656
2026-05-22 16:45:05.984,1351845440,66984,2,0.3606,0.07397,1.24316,-10.771,8.618,9.534
2026-05-22 16:45:06.184,1351845640,67184,1,-0.29834,0.00708,0.67993,16.702,-7.817,-6.397
2026-05-22 16:45:06.184,1351845640,67184,2,0.51343,0.17041,1.32251,-11.427,-2.481,-5.664
2026-05-22 16:45:06.384,1351845840,67384,1,-0.44971,-0.07764,0.85742,9.191,-11.679,-9.244
2026-05-22 16:45:06.384,1351845840,67384,2,0.33374,0.08594,1.06445,32.672,-51.397,-23.702
2026-05-22 16:45:06.584,1351846040,67584,1,-0.08911,-0.02783,0.89868,-14.458,-19.519,-3.71
2026-05-22 16:45:06.584,1351846040,67584,2,0.96313,0.21973,1.43262,18.55,-8.542,-1.664
2026-05-22 16:45:06.784,1351846240,67784,1,-0.27466,-0.13721,1.0437,-11.74,25.252,0.779
2026-05-22 16:45:06.784,1351846240,67784,2,0.70093,0.18604,1.26147,-11.351,29.229,7.466
2026-05-22 16:45:06.984,1351846440,67984,1,-0.33301,-0.07886,0.74829,13.076,15.405,10.595
2026-05-22 16:45:06.984,1351846440,67984,2,0.48486,0.19873,1.31323,-4.786,30.519,2.45
2026-05-22 16:45:07.184,1351846640,68184,1,-0.32129,0.00146,0.79443,3.405,12.305,-3.366
2026-05-22 16:45:07.184,1351846640,68184,2,0.40601,0.10303,1.28052,-13.481,29.855,-3.687
2026-05-22 16:45:07.384,1351846840,68384,1,-0.51343,-0.04858,0.83887,2.092,8.504,6.412
2026-05-22 16:45:07.384,1351846840,68384,2,0.30664,-0.07178,1.33301,-2.626,-20.13,13.344
2026-05-22 16:45:07.584,1351847040,68584,1,-0.47949,0.00952,0.7207,-14.855,-44.099,54.221
2026-05-22 16:45:07.584,1351847040,68584,2,0.40234,0.28027,1.13477,78.336,-62.458,37.756
2026-05-22 16:45:07.784,1351847240,68784,1,-0.26123,0.00659,0.74414,-10.099,-95.947,24.84
2026-05-22 16:45:07.784,1351847240,68784,2,0.68091,0.31738,0.95752,22.344,-114.496,11.099
2026-05-22 16:45:07.984,1351847440,68984,1,0.17822,0.0498,0.72168,-17.924,-110.611,-1.771
2026-05-22 16:45:07.984,1351847440,68984,2,1.11914,0.00854,0.82129,24.038,-99.832,14.725
2026-05-22 16:45:08.184,1351847640,69184,1,0.79053,-0.19604,0.47437,8.779,-90.74,10.382
2026-05-22 16:45:08.184,1351847640,69184,2,0.88818,0.24707,0.03638,-25.427,-53.87,-18.13
2026-05-22 16:45:08.384,1351847840,69384,1,0.81079,-0.09229,0.4585,-19.794,-37.176,-35.0
2026-05-22 16:45:08.384,1351847840,69384,2,0.76221,0.31445,0.03247,-34.405,-48.733,0.359
2026-05-22 16:45:08.584,1351848040,69584,1,0.83789,0.0127,0.40405,-26.305,-12.053,-24.336
2026-05-22 16:45:08.584,1351848040,69584,2,0.86768,0.42725,0.12964,-29.45,-15.031,18.298
2026-05-22 16:45:08.784,1351848240,69784,1,0.84521,-0.00537,0.42725,4.229,-11.626,6.695
2026-05-22 16:45:08.784,1351848240,69784,2,0.74512,0.46558,-0.06299,9.473,-6.137,-12.382
2026-05-22 16:45:08.984,1351848440,69984,1,0.91089,0.02368,0.43091,-3.405,-9.374,-3.664
2026-05-22 16:45:08.984,1351848440,69984,2,0.77197,0.44092,-0.03564,12.313,-2.183,-1.29
2026-05-22 16:45:09.184,1351848640,70184,1,0.89307,-0.0144,0.39917,-10.863,-0.504,-3.84
2026-05-22 16:45:09.184,1351848640,70184,2,0.75464,0.3916,-0.08838,-6.786,-4.145,5.916
2026-05-22 16:45:09.384,1351848840,70384,1,0.8938,-0.00049,0.4021,-10.115,4.466,-5.511
2026-05-22 16:45:09.384,1351848840,70384,2,0.77954,0.39355,-0.06885,-16.275,6.305,17.229
2026-05-22 16:45:09.584,1351849040,70584,1,0.86987,-0.04907,0.45508,-12.0,12.756,3.427
2026-05-22 16:45:09.584,1351849040,70584,2,0.80078,0.34277,-0.03442,-7.214,11.817,19.718
2026-05-22 16:45:09.784,1351849240,70784,1,0.86523,-0.05835,0.48193,-20.053,16.824,0.58
2026-05-22 16:45:09.784,1351849240,70784,2,0.85376,0.34717,0.07153,-15.115,17.504,20.328
2026-05-22 16:45:09.984,1351849440,70984,1,0.75293,-0.23267,0.54785,-5.824,3.763,-0.053
2026-05-22 16:45:09.984,1351849440,70984,2,0.84644,0.21167,0.01367,22.977,-1.458,-10.962
2026-05-22 16:45:10.184,1351849640,71184,1,0.82861,-0.15845,0.42871,7.504,-21.397,2.244
2026-05-22 16:45:10.184,1351849640,71184,2,0.9707,0.43457,-0.05054,5.115,-17.115,-13.84
2026-05-22 16:45:10.419,1351849875,71419,1,0.8252,-0.03174,0.39258,-21.0,-5.641,-35.359
2026-05-22 16:45:10.419,1351849875,71419,2,0.80371,0.33423,-0.21484,-43.824,-11.634,12.29
2026-05-22 16:45:10.619,1351850075,71619,1,0.8999,-0.00513,0.3772,13.435,1.137,-2.443
2026-05-22 16:45:10.619,1351850075,71619,2,0.84888,0.29346,0.03516,-13.16,14.069,-3.298
2026-05-22 16:45:10.819,1351850275,71819,1,0.87231,-0.00513,0.38623,29.947,16.099,16.13
2026-05-22 16:45:10.819,1351850275,71819,2,0.85181,0.26611,0.10815,38.519,40.74,3.237
2026-05-22 16:45:10.019,1351849475,72019,1,0.85425,0.11279,0.59521,41.603,26.023,37.74
2026-05-22 16:45:10.019,1351849475,72019,2,0.88599,0.42456,0.0293,46.626,9.916,-8.374
2026-05-22 16:45:11.219,1351850675,72219,1,0.79639,0.14087,0.49951,4.573,-7.84,2.992
2026-05-22 16:45:11.219,1351850675,72219,2,0.82959,0.44604,0.11548,-11.817,-11.74,-4.252
2026-05-22 16:45:11.419,1351850875,72419,1,0.8374,0.07715,0.4646,-4.427,-9.427,-18.237
2026-05-22 16:45:11.419,1351850875,72419,2,0.85278,0.35913,0.07642,-10.977,-10.214,-2.687
2026-05-22 16:45:11.619,1351851075,72619,1,0.84961,0.10767,0.46802,-5.885,-4.412,-13.191
2026-05-22 16:45:11.619,1351851075,72619,2,0.85498,0.35962,0.06348,-1.618,-1.969,-0.977
2026-05-22 16:45:11.819,1351851275,72819,1,0.82983,0.10986,0.46436,-6.176,-0.565,-7.817
2026-05-22 16:45:11.819,1351851275,72819,2,0.82031,0.35596,0.05884,-2.221,-0.053,3.176
2026-05-22 16:45:11.019,1351850475,73019,1,0.83374,0.11597,0.45825,-11.702,-3.634,-8.29
2026-05-22 16:45:11.019,1351850475,73019,2,0.83203,0.3457,0.03345,-9.275,-5.42,5.985
2026-05-22 16:45:12.219,1351851675,73219,1,0.84277,0.10425,0.45947,-11.534,-4.244,-5.168
2026-05-22 16:45:12.219,1351851675,73219,2,0.84668,0.31665,0.04102,-7.634,-4.443,0.84
2026-05-22 16:45:12.419,1351851875,73419,1,0.85498,0.12036,0.45313,5.672,1.397,2.168
2026-05-22 16:45:12.419,1351851875,73419,2,0.83667,0.34912,0.02271,5.542,6.42,-5.229
2026-05-22 16:45:12.619,1351852075,73619,1,0.84546,0.15405,0.45483,2.802,4.718,-0.214
2026-05-22 16:45:12.619,1351852075,73619,2,0.82739,0.36182,0.03491,-0.832,4.611,-0.16
2026-05-22 16:45:12.819,1351852275,73819,1,0.83374,0.13013,0.48438,-0.901,0.466,0.901
2026-05-22 16:45:12.819,1351852275,73819,2,0.83838,0.36182,0.05518,1.26,3.237,-2.679
2026-05-22 16:45:12.019,1351851475,74019,1,0.83374,0.15576,0.48364,-3.527,2.038,-2.954
2026-05-22 16:45:12.019,1351851475,74019,2,0.83691,0.36987,0.05957,-4.504,2.015,1.824
2026-05-22 16:45:13.219,1351852675,74219,1,0.80908,0.1543,0.49365,-2.863,2.939,-3.374
2026-05-22 16:45:13.219,1351852675,74219,2,0.8457,0.36401,0.06689,-5.198,3.74,0.893
2026-05-22 16:45:13.419,1351852875,74419,1,0.8147,0.14819,0.47437,0.672,2.687,-0.962
2026-05-22 16:45:13.419,1351852875,74419,2,0.84106,0.37769,0.0769,-1.542,4.45,-0.458
2026-05-22 16:45:13.619,1351853075,74619,1,0.79736,0.15479,0.46533,0.229,1.275,-0.802
2026-05-22 16:45:13.619,1351853075,74619,2,0.84155,0.38037,0.07813,1.191,1.053,-0.489
2026-05-22 16:45:13.819,1351853275,74819,1,0.81006,0.17139,0.48682,-2.061,-0.87,-0.344
2026-05-22 16:45:13.819,1351853275,74819,2,0.83838,0.3623,0.07373,-2.389,-1.847,2.588
2026-05-22 16:45:13.019,1351852475,75019,1,0.82031,0.15381,0.46948,-0.794,-1.176,0.885
2026-05-22 16:45:13.019,1351852475,75019,2,0.84448,0.38159,0.0896,0.336,0.321,0.618
2026-05-22 16:45:14.219,1351853675,75219,1,0.81226,0.15601,0.4707,-1.038,-0.817,-0.038
2026-05-22 16:45:14.219,1351853675,75219,2,0.83374,0.38501,0.06348,-1.916,0.511,1.87
2026-05-22 16:45:14.419,1351853875,75419,1,0.81982,0.16724,0.47852,-3.145,-0.74,-0.26
2026-05-22 16:45:14.419,1351853875,75419,2,0.83813,0.39478,0.07251,-1.206,0.908,2.885
2026-05-22 16:45:14.619,1351854075,75619,1,0.81519,0.18042,0.47876,-2.664,-1.015,0.115
2026-05-22 16:45:14.619,1351854075,75619,2,0.83545,0.37622,0.07788,-0.992,0.962,2.321
2026-05-22 16:45:14.819,1351854275,75819,1,0.82715,0.18555,0.48413,2.26,-1.046,3.305
2026-05-22 16:45:14.819,1351854275,75819,2,0.82373,0.39526,0.05664,5.634,1.481,5.374
2026-05-22 16:45:14.019,1351853475,76019,1,0.80029,0.18262,0.49194,-8.634,-5.489,-5.176
2026-05-22 16:45:14.019,1351853475,76019,2,0.82593,0.37891,0.04565,-5.779,-11.389,5.252
2026-05-22 16:45:15.219,1351854675,76219,1,0.85474,0.19312,0.43872,-7.221,-5.229,-2.71
2026-05-22 16:45:15.219,1351854675,76219,2,0.81689,0.39648,0.0271,-1.763,-5.366,4.023
2026-05-22 16:45:15.419,1351854875,76419,1,0.86328,0.19629,0.44678,-9.672,-4.748,-3.725
2026-05-22 16:45:15.419,1351854875,76419,2,0.83936,0.39111,0.00708,-7.267,-4.809,3.519
2026-05-22 16:45:15.619,1351855075,76619,1,0.84937,0.12207,0.43408,-11.069,-1.832,3.229
2026-05-22 16:45:15.619,1351855075,76619,2,0.83032,0.34009,0.0127,-14.458,-3.664,-0.763
2026-05-22 16:45:15.819,1351855275,76819,1,0.86304,0.07764,0.43286,-19.267,-1.916,1.076
2026-05-22 16:45:15.819,1351855275,76819,2,0.81006,0.35693,0.01831,-19.374,-7.031,2.053
2026-05-22 16:45:15.019,1351854475,77019,1,0.87036,0.06152,0.41943,-19.855,2.244,-5.863
2026-05-22 16:45:15.019,1351854475,77019,2,0.80542,0.37817,0.03711,-28.191,-2.87,10.221
2026-05-22 16:45:16.219,1351855675,77219,1,0.86182,0.00952,0.46899,-9.687,4.069,-1.87
2026-05-22 16:45:16.219,1351855675,77219,2,0.79614,0.35596,0.01709,-7.244,0.672,9.611
2026-05-22 16:45:16.419,1351855875,77419,1,0.86377,0.00562,0.4397,4.924,-4.198,11.473
2026-05-22 16:45:16.419,1351855875,77419,2,0.82153,0.36475,0.01392,13.824,0.206,1.595
2026-05-22 16:45:16.619,1351856075,77619,1,0.87598,-0.00854,0.43921,6.076,1.29,13.641
2026-05-22 16:45:16.619,1351856075,77619,2,0.81641,0.34937,0.00146,12.786,4.344,-1.992
2026-05-22 16:45:16.819,1351856275,77819,1,0.86646,-0.03101,0.43237,7.237,1.534,13.618
2026-05-22 16:45:16.819,1351856275,77819,2,0.81152,0.36646,-0.01294,10.496,4.031,-4.58
2026-05-22 16:45:16.019,1351855475,78019,1,0.8855,-0.01172,0.43286,-0.359,-0.489,3.908
2026-05-22 16:45:16.019,1351855475,78019,2,0.81982,0.38159,0.00317,-3.725,3.023,1.634
2026-05-22 16:45:17.219,1351856675,78219,1,0.85645,-0.02856,0.45215,-9.008,0.718,-3.847
2026-05-22 16:45:17.219,1351856675,78219,2,0.81177,0.35913,-0.01514,-2.947,-1.412,2.901
2026-05-22 16:45:17.419,1351856875,78419,1,0.88135,-0.03174,0.44238,-3.954,-0.397,-2.45
2026-05-22 16:45:17.419,1351856875,78419,2,0.81104,0.36475,-0.00488,-3.008,-0.107,3.092
2026-05-22 16:45:17.619,1351857075,78619,1,0.87036,-0.00854,0.43945,-3.947,-0.443,-3.947
2026-05-22 16:45:17.619,1351857075,78619,2,0.81274,0.36621,-0.01025,-4.427,-0.87,3.0
2026-05-22 16:45:17.819,1351857275,78819,1,0.88232,-0.01465,0.44043,-2.473,-0.092,-2.733
2026-05-22 16:45:17.819,1351857275,78819,2,0.80884,0.36011,-0.00635,-2.802,0.359,0.992
2026-05-22 16:45:17.019,1351856475,79019,1,0.87695,-0.01147,0.43262,0.214,0.672,0.511
2026-05-22 16:45:17.019,1351856475,79019,2,0.80884,0.3562,0.00073,-2.718,2.893,1.855
2026-05-22 16:45:18.219,1351857675,79219,1,0.87158,-0.01416,0.43042,-1.099,1.107,1.748
2026-05-22 16:45:18.219,1351857675,79219,2,0.81274,0.35938,-0.00146,0.282,3.221,0.618
2026-05-22 16:45:18.419,1351857875,79419,1,0.86987,-0.01929,0.44653,-0.275,1.0,1.985
2026-05-22 16:45:18.419,1351857875,79419,2,0.81079,0.35938,0.00269,-0.901,1.603,1.374
2026-05-22 16:45:18.619,1351858075,79619,1,0.87817,-0.01172,0.44556,-2.198,0.313,0.626
2026-05-22 16:45:18.619,1351858075,79619,2,0.81738,0.35303,0.00732,-1.84,0.542,1.786
2026-05-22 16:45:18.819,1351858275,79819,1,0.86694,-0.03223,0.4458,-3.473,-0.046,-0.282
2026-05-22 16:45:18.819,1351858275,79819,2,0.81982,0.3606,0.00562,-0.542,0.015,1.504
2026-05-22 16:45:18.019,1351857475,80019,1,0.8689,-0.02271,0.44165,-2.389,0.084,-1.153
2026-05-22 16:45:18.019,1351857475,80019,2,0.80273,0.35962,0.00366,0.214,1.802,-0.473
2026-05-22 16:45:19.256,1351858712,80256,1,0.88184,-0.01367,0.44141,-0.687,0.901,-1.0
2026-05-22 16:45:19.256,1351858712,80256,2,0.80249,0.36841,0.00464,-0.985,2.458,0.443
2026-05-22 16:45:19.456,1351858912,80456,1,0.875,-0.00928,0.44604,0.351,0.328,-0.153
2026-05-22 16:45:19.456,1351858912,80456,2,0.80884,0.36987,0.01489,-0.87,2.527,0.695
2026-05-22 16:45:19.656,1351859112,80656,1,0.87158,-0.01294,0.43506,-0.74,0.443,-0.153
2026-05-22 16:45:19.656,1351859112,80656,2,0.81177,0.36084,0.00903,-0.626,3.046,1.702
2026-05-22 16:45:19.856,1351859312,80856,1,0.86328,-0.00903,0.44556,-2.031,-0.183,0.725
2026-05-22 16:45:19.856,1351859312,80856,2,0.81665,0.36694,0.0083,1.573,0.466,0.321
2026-05-22 16:45:20.056,1351859512,81056,1,0.86377,-0.01001,0.44849,-1.908,-0.511,1.061
2026-05-22 16:45:20.056,1351859512,81056,2,0.81152,0.35913,-0.00537,0.595,0.183,1.168
2026-05-22 16:45:20.256,1351859712,81256,1,0.87305,-0.02002,0.44482,-1.481,-0.908,0.58
2026-05-22 16:45:20.256,1351859712,81256,2,0.81348,0.36963,0.00073,-0.405,-0.084,2.382
2026-05-22 16:45:20.456,1351859912,81456,1,0.88525,-0.01611,0.43628,-0.031,-1.229,-0.214
2026-05-22 16:45:20.456,1351859912,81456,2,0.81592,0.36816,-0.00464,-0.595,1.634,0.382
2026-05-22 16:45:20.656,1351860112,81656,1,0.88525,-0.01001,0.42822,-0.107,0.29,-0.344
2026-05-22 16:45:20.656,1351860112,81656,2,0.81885,0.36377,-0.00708,-2.008,1.664,1.351
2026-05-22 16:45:20.856,1351860312,81856,1,0.88452,-0.00659,0.43604,-1.168,,-0.794
2026-05-22 16:45:20.856,1351860312,81856,2,0.81836,0.3584,-0.00024,-3.672,-0.74,2.145
2026-05-22 16:45:21.056,1351860512,82056,1,0.88184,-0.01123,0.43677,-2.099,0.29,-0.168
2026-05-22 16:45:21.056,1351860512,82056,2,0.81519,0.35938,-0.00708,-0.061,0.008,0.664
2026-05-22 16:45:21.256,1351860712,82256,1,0.88159,-0.0083,0.43604,-2.076,0.328,-0.244
2026-05-22 16:45:21.256,1351860712,82256,2,0.80908,0.3623,-0.00024,0.122,0.893,0.55
2026-05-22 16:45:21.456,1351860912,82456,1,0.87524,-0.00195,0.43774,-2.153,0.977,0.389
2026-05-22 16:45:21.456,1351860912,82456,2,0.81006,0.3667,0.00244,-0.229,2.84,0.298
2026-05-22 16:45:21.656,1351861112,82656,1,0.87646,-0.00317,0.43359,-1.481,1.656,-0.099
2026-05-22 16:45:21.656,1351861112,82656,2,0.81079,0.37012,,-1.13,1.908,1.427
2026-05-22 16:45:21.856,1351861312,82856,1,0.87354,-0.00171,0.44263,-1.374,1.305,-0.115
2026-05-22 16:45:21.856,1351861312,82856,2,0.80688,0.36646,0.00537,-2.214,2.321,2.031
2026-05-22 16:45:22.056,1351861512,83056,1,0.86792,-0.0127,0.43262,-1.122,1.443,-0.023
2026-05-22 16:45:22.056,1351861512,83056,2,0.81543,0.37231,0.00854,-0.664,2.099,1.031
2026-05-22 16:45:22.256,1351861712,83256,1,0.86646,-0.00464,0.44897,-1.466,0.901,0.221
2026-05-22 16:45:22.256,1351861712,83256,2,0.82031,0.37109,0.00659,-1.313,1.221,1.718
2026-05-22 16:45:22.456,1351861912,83456,1,0.86694,0.00586,0.44751,-2.405,1.244,0.198
2026-05-22 16:45:22.456,1351861912,83456,2,0.81958,0.37354,0.0083,-0.939,2.771,1.168
2026-05-22 16:45:22.656,1351862112,83656,1,0.86816,0.00391,0.45654,-2.565,1.16,-0.794
2026-05-22 16:45:22.656,1351862112,83656,2,0.81543,0.36694,0.00732,-3.053,0.916,1.817
2026-05-22 16:45:22.856,1351862312,83856,1,0.87183,-0.0061,0.45044,-1.824,0.122,-0.374
2026-05-22 16:45:22.856,1351862312,83856,2,0.82056,0.36914,0.01367,-0.908,0.855,1.427
2026-05-22 16:45:23.056,1351862512,84056,1,0.8645,-0.00439,0.45825,-3.267,0.023,-0.412
2026-05-22 16:45:23.056,1351862512,84056,2,0.81519,0.36719,0.01294,-1.595,-1.489,1.748
2026-05-22 16:45:23.256,1351862712,84256,1,0.87134,-0.00781,0.45435,-1.221,-0.435,0.885
2026-05-22 16:45:23.256,1351862712,84256,2,0.81372,0.36963,0.00586,0.466,-0.214,0.786
2026-05-22 16:45:23.456,1351862912,84456,1,0.87402,-0.01099,0.44336,-1.748,-0.603,-0.031
2026-05-22 16:45:23.456,1351862912,84456,2,0.81836,0.35986,0.01074,-1.122,0.626,1.374
2026-05-22 16:45:23.656,1351863112,84656,1,0.87183,-0.0083,0.43384,-1.557,-0.122,0.168
2026-05-22 16:45:23.656,1351863112,84656,2,0.8208,0.36523,0.01343,0.473,2.74,0.267
2026-05-22 16:45:23.856,1351863312,84856,1,0.8728,-0.00073,0.4436,-1.176,1.466,0.061
2026-05-22 16:45:23.856,1351863312,84856,2,0.81274,0.36621,0.00879,-2.542,2.824,2.214
2026-05-22 16:45:24.056,1351863512,85056,1,0.87793,0.00195,0.43921,-2.275,2.053,-0.374
2026-05-22 16:45:24.056,1351863512,85056,2,0.82251,0.38696,0.00342,-3.733,4.641,3.573
2026-05-22 16:45:24.256,1351863712,85256,1,0.84888,-0.01392,0.43799,-3.908,0.603,-1.992
2026-05-22 16:45:24.256,1351863712,85256,2,0.82397,0.35596,0.03979,-2.504,1.672,-1.855
2026-05-22 16:45:24.456,1351863912,85456,1,0.87305,-0.03076,0.48096,-4.137,2.176,7.511
2026-05-22 16:45:24.456,1351863912,85456,2,0.8252,0.35059,0.01685,8.634,4.885,1.74
2026-05-22 16:45:24.656,1351864112,85656,1,0.88818,-0.07764,0.43848,6.099,1.634,14.008
2026-05-22 16:45:24.656,1351864112,85656,2,0.81567,0.36719,-0.0166,11.672,11.344,-5.885
2026-05-22 16:45:24.856,1351864312,85856,1,0.89282,-0.09912,0.4353,16.298,11.489,5.046
2026-05-22 16:45:24.856,1351864312,85856,2,0.82056,0.36987,-0.01392,3.977,22.863,-8.679
2026-05-22 16:45:25.056,1351864512,86056,1,0.84497,-0.04248,0.44531,17.466,1.046,-2.901
2026-05-22 16:45:25.056,1351864512,86056,2,0.88062,0.51221,0.02856,0.565,15.992,-9.183
2026-05-22 16:45:25.256,1351864712,86256,1,0.75366,0.06665,0.51563,-18.153,2.0,-43.084
2026-05-22 16:45:25.256,1351864712,86256,2,0.87036,0.34424,0.07495,-59.328,-19.359,42.84
2026-05-22 16:45:25.456,1351864912,86456,1,0.77954,0.02759,0.53906,19.58,8.122,-3.137
2026-05-22 16:45:25.456,1351864912,86456,2,0.86328,0.30542,0.16992,15.672,4.977,-16.557
2026-05-22 16:45:25.656,1351865112,86656,1,0.79053,0.30615,0.56006,40.344,13.603,25.466
2026-05-22 16:45:25.656,1351865112,86656,2,0.8291,0.53174,0.14111,21.489,16.061,-20.74
2026-05-22 16:45:25.856,1351865312,86856,1,0.74927,0.32349,0.49048,19.397,9.511,21.344
2026-05-22 16:45:25.856,1351865312,86856,2,0.73169,0.58813,0.12891,12.527,9.786,-6.221
2026-05-22 16:45:26.056,1351865512,87056,1,0.74072,0.3064,0.52393,-30.695,-20.634,-12.519
2026-05-22 16:45:26.056,1351865512,87056,2,0.81274,0.51855,0.13599,-37.985,-37.939,29.282
2026-05-22 16:45:26.256,1351865712,87256,1,0.85352,0.13696,0.4231,-22.634,-24.481,6.794
2026-05-22 16:45:26.256,1351865712,87256,2,0.88452,0.44312,0.13037,-44.878,-32.885,7.611
2026-05-22 16:45:26.456,1351865912,87456,1,0.896,0.05103,0.39795,-18.275,-10.817,4.679
2026-05-22 16:45:26.456,1351865912,87456,2,0.80225,0.45068,0.05762,-21.26,-13.641,9.046
2026-05-22 16:45:26.656,1351866112,87656,1,0.90454,0.0332,0.41724,-34.824,9.916,-11.748
2026-05-22 16:45:26.656,1351866112,87656,2,0.83398,0.48608,0.02588,-38.214,1.489,27.931
2026-05-22 16:45:26.856,1351866312,87856,1,0.8584,-0.06934,0.46655,-26.702,8.649,-16.595
2026-05-22 16:45:26.856,1351866312,87856,2,0.79175,0.32568,-0.03955,-23.153,-7.641,23.718
2026-05-22 16:45:27.056,1351866512,88056,1,0.99634,-0.05371,0.45215,-21.252,-6.634,3.351
2026-05-22 16:45:27.056,1351866512,88056,2,0.85693,0.40967,0.06372,3.42,9.458,-4.023
2026-05-22 16:45:27.256,1351866712,88256,1,0.84277,-0.04492,0.44067,-8.29,-2.824,-8.053
2026-05-22 16:45:27.256,1351866712,88256,2,0.78613,0.33789,0.01196,-7.328,-5.634,9.786
2026-05-22 16:45:27.456,1351866912,88456,1,0.9104,-0.05688,0.43774,-4.885,-10.573,-2.137
2026-05-22 16:45:27.456,1351866912,88456,2,0.80884,0.37817,-0.00586,5.435,-4.382,0.504
2026-05-22 16:45:27.656,1351867112,88656,1,0.89185,-0.03516,0.3855,-3.962,-6.42,-0.656
2026-05-22 16:45:27.656,1351867112,88656,2,0.81152,0.36743,-0.05371,2.527,4.183,-3.573
2026-05-22 16:45:27.856,1351867312,88856,1,0.91943,-0.052,0.37109,1.176,1.252,11.954
2026-05-22 16:45:27.856,1351867312,88856,2,0.79785,0.35303,-0.01392,20.672,17.092,-5.191
2026-05-22 16:45:28.056,1351867512,89056,1,0.91431,-0.06299,0.36694,9.076,2.748,9.863
2026-05-22 16:45:28.056,1351867512,89056,2,0.76392,0.37695,-0.02759,-20.252,4.0,5.802
2026-05-22 16:45:28.289,1351867745,89289,1,0.86621,-0.04614,0.40747,-26.443,11.16,-15.618
2026-05-22 16:45:28.289,1351867745,89289,2,0.81689,0.34912,-0.02246,-22.435,-2.71,8.221
2026-05-22 16:45:28.608,1351868064,89608,1,0.85986,-0.04517,0.44238,13.687,-5.565,11.718
2026-05-22 16:45:28.608,1351868064,89608,2,0.85645,0.36377,0.03809,1.565,2.122,1.824
2026-05-22 16:45:28.808,1351868264,89808,1,0.87305,-0.06201,0.43628,-0.443,-0.267,2.573
2026-05-22 16:45:28.808,1351868264,89808,2,0.82373,0.36206,0.00513,-10.183,2.328,2.458
2026-05-22 16:45:28.008,1351867464,90008,1,0.89478,-0.08569,0.4248,-1.672,0.588,-2.611
2026-05-22 16:45:28.008,1351867464,90008,2,0.82666,0.32324,-0.02979,-2.473,3.298,2.969
2026-05-22 16:45:29.208,1351868664,90208,1,0.88843,-0.08569,0.42358,0.115,7.511,-4.885
2026-05-22 16:45:29.208,1351868664,90208,2,0.84009,0.31616,0.00537,-4.87,10.382,0.145
2026-05-22 16:45:29.408,1351868864,90408,1,0.85205,-0.10059,0.47559,3.542,9.58,-3.527
2026-05-22 16:45:29.408,1351868864,90408,2,0.83301,0.39233,0.02148,-3.046,10.626,-1.313
2026-05-22 16:45:29.608,1351869064,90608,1,0.81738,-0.02515,0.479,6.748,4.534,-10.71
2026-05-22 16:45:29.608,1351869064,90608,2,0.85327,0.38037,0.05981,1.313,3.893,1.168
2026-05-22 16:45:29.808,1351869264,90808,1,0.81714,0.0022,0.46875,18.962,10.145,-9.298
2026-05-22 16:45:29.808,1351869264,90808,2,0.92285,0.30884,0.15088,24.137,36.481,-5.244
2026-05-22 16:45:29.008,1351868464,91008,1,0.70581,0.23242,0.62476,34.786,36.817,15.931
2026-05-22 16:45:29.008,1351868464,91008,2,0.78955,0.51709,0.17261,14.786,26.344,-20.061
2026-05-22 16:45:30.208,1351869664,91208,1,0.65381,0.32031,0.5791,-0.519,8.733,-2.863
2026-05-22 16:45:30.208,1351869664,91208,2,0.78516,0.56274,0.25537,0.076,2.023,5.214
2026-05-22 16:45:30.408,1351869864,91408,1,0.66846,0.16284,0.55566,-0.908,4.817,11.328
2026-05-22 16:45:30.408,1351869864,91408,2,0.80444,0.51221,0.24927,25.565,20.336,-11.863
2026-05-22 16:45:30.608,1351870064,91608,1,0.78223,0.14429,0.52075,-29.466,40.038,-10.679
2026-05-22 16:45:30.608,1351870064,91608,2,0.87378,0.3313,0.30786,-59.504,36.008,36.198
2026-05-22 16:45:30.808,1351870264,91808,1,0.30957,0.01196,0.51611,-9.176,72.496,-9.748
2026-05-22 16:45:30.808,1351870264,91808,2,0.82617,0.17871,0.51465,-4.214,67.206,26.649
2026-05-22 16:45:30.008,1351869464,92008,1,0.08154,0.00635,0.54785,-16.84,71.832,-0.687
2026-05-22 16:45:30.008,1351869464,92008,2,0.69507,0.15503,0.85571,57.069,59.901,6.824
2026-05-22 16:45:31.208,1351870664,92208,1,-0.09082,0.04614,0.94434,-10.13,20.313,4.824
2026-05-22 16:45:31.208,1351870664,92208,2,0.73291,0.17871,0.77393,3.183,11.183,3.122
2026-05-22 16:45:31.408,1351870864,92408,1,0.02441,0.02271,1.02124,3.038,-30.298,4.771
2026-05-22 16:45:31.408,1351870864,92408,2,0.85864,0.23364,0.89087,55.794,-19.336,1.481
2026-05-22 16:45:31.608,1351871064,92608,1,0.23438,-0.06689,1.1228,12.573,-80.664,11.046
2026-05-22 16:45:31.608,1351871064,92608,2,1.39746,0.45264,0.66895,60.374,-88.466,-15.313
2026-05-22 16:45:31.808,1351871264,92808,1,0.54199,0.02417,0.7417,-11.794,-3.794,-17.626
2026-05-22 16:45:31.808,1351871264,92808,2,0.74561,0.30078,0.48462,-20.069,7.802,5.443
2026-05-22 16:45:31.008,1351870464,93008,1,0.4314,-0.0437,0.6709,0.511,-25.206,-5.939
2026-05-22 16:45:31.008,1351870464,93008,2,1.13062,0.3103,0.4585,16.412,-30.916,-2.947
2026-05-22 16:45:32.208,1351871664,93208,1,0.46362,-0.00659,0.65015,2.962,11.817,9.107
2026-05-22 16:45:32.208,1351871664,93208,2,0.67725,0.36011,0.33008,12.0,4.336,-0.45
2026-05-22 16:45:32.408,1351871864,93408,1,0.49536,-0.00415,0.81909,-4.969,-10.099,-8.763
2026-05-22 16:45:32.408,1351871864,93408,2,1.2041,0.40869,0.5,6.832,-8.55,-1.305
2026-05-22 16:45:32.608,1351872064,93608,1,0.41504,-0.00879,0.58569,1.664,8.817,0.603
2026-05-22 16:45:32.608,1351872064,93608,2,0.77783,0.28125,0.41626,-4.664,2.718,-0.198
2026-05-22 16:45:32.808,1351872264,93808,1,0.52368,-0.01172,0.80957,2.252,5.679,1.511
2026-05-22 16:45:32.808,1351872264,93808,2,0.89502,0.31641,0.43628,-6.718,7.656,0.542
2026-05-22 16:45:32.008,1351871464,94008,1,0.47852,0.00317,0.7522,-4.634,13.885,0.344
2026-05-22 16:45:32.008,1351871464,94008,2,1.29321,0.38379,0.48633,21.031,19.84,-3.626
2026-05-22 16:45:33.208,1351872664,94208,1,0.52539,0.0271,1.28906,-6.916,86.557,7.206
2026-05-22 16:45:33.208,1351872664,94208,2,1.22656,0.28052,0.68872,-60.16,90.893,24.962
2026-05-22 16:45:33.408,1351872864,94408,1,0.01367,-0.00879,0.65869,-18.855,66.725,-5.046
2026-05-22 16:45:33.408,1351872864,94408,2,0.56152,0.23511,0.79639,-63.618,46.649,27.817
2026-05-22 16:45:33.608,1351873064,94608,1,-0.04102,-0.06616,0.45581,-18.015,41.573,-8.313
2026-05-22 16:45:33.608,1351873064,94608,2,0.47095,0.125,1.00952,7.969,50.473,-9.702
2026-05-22 16:45:33.808,1351873264,94808,1,-0.30273,-0.08765,0.80933,0.26,45.672,-1.733
2026-05-22 16:45:33.808,1351873264,94808,2,0.42944,0.1311,1.15063,-17.481,12.626,-4.29
2026-05-22 16:45:33.008,1351872464,95008,1,-0.31006,-0.13281,0.68506,-1.321,0.656,0.756
2026-05-22 16:45:33.008,1351872464,95008,2,0.53491,0.12671,1.17603,7.015,-7.176,-2.45
2026-05-22 16:45:34.208,1351873664,95208,1,-0.29565,-0.06665,0.75439,0.794,-8.344,-9.557
2026-05-22 16:45:34.208,1351873664,95208,2,0.75928,0.06689,1.26147,-10.733,-8.763,6.031
2026-05-22 16:45:34.408,1351873864,95408,1,-0.3501,-0.05664,0.86377,-2.313,1.267,-4.466
2026-05-22 16:45:34.408,1351873864,95408,2,0.68628,0.13379,1.23706,-7.053,0.634,4.45
2026-05-22 16:45:34.608,1351874064,95608,1,-0.29443,-0.08765,0.74463,-10.55,-0.397,-4.137
2026-05-22 16:45:34.608,1351874064,95608,2,0.54761,0.12915,1.12598,-0.901,2.45,3.786
2026-05-22 16:45:34.808,1351874264,95808,1,-0.27954,-0.17554,0.75488,-7.443,-6.405,-7.382
2026-05-22 16:45:34.808,1351874264,95808,2,0.63599,0.0459,1.14307,0.626,-5.206,3.924
2026-05-22 16:45:34.008,1351873464,96008,1,-0.26489,-0.12573,0.68701,-8.656,-18.061,-4.473
2026-05-22 16:45:34.008,1351873464,96008,2,0.479,0.06909,0.97437,4.42,-22.069,6.687
2026-05-22 16:45:35.208,1351874664,96208,1,-0.18481,-0.18799,0.61084,2.595,-47.427,0.679
2026-05-22 16:45:35.208,1351874664,96208,2,0.52759,0.00659,0.7771,21.481,-63.298,-3.183
2026-05-22 16:45:35.408,1351874864,96408,1,-0.01855,-0.1272,0.87012,10.053,-85.763,-1.366
2026-05-22 16:45:35.408,1351874864,96408,2,0.89941,0.19458,0.65454,46.336,-107.351,-10.817
2026-05-22 16:45:35.608,1351875064,96608,1,1.56909,-0.19556,1.78735,19.435,-31.481,14.779
2026-05-22 16:45:35.608,1351875064,96608,2,1.31519,0.42236,0.45679,-10.641,-6.718,-13.916
2026-05-22 16:45:35.808,1351875264,96808,1,0.30127,-0.0376,0.34399,-19.527,-18.374,-24.504
2026-05-22 16:45:35.808,1351875264,96808,2,1.13477,0.17822,0.48438,1.634,-49.145,-5.191
2026-05-22 16:45:35.008,1351874464,97008,1,0.65649,-0.03882,0.82349,13.458,1.389,1.496
2026-05-22 16:45:35.008,1351874464,97008,2,0.68457,0.19287,0.33276,-7.153,10.87,-1.29
2026-05-22 16:45:36.208,1351875664,97208,1,0.60425,-0.01978,0.77344,0.595,-5.221,-4.878
2026-05-22 16:45:36.208,1351875664,97208,2,1.33154,0.3623,0.38989,4.099,0.74,-0.351
2026-05-22 16:45:36.408,1351875864,97408,1,0.43506,-0.04883,0.59717,2.145,11.557,0.099
2026-05-22 16:45:36.408,1351875864,97408,2,0.86328,0.27759,0.39063,20.916,0.779,-10.137
2026-05-22 16:45:36.608,1351876064,97608,1,0.55908,-0.04956,0.79688,16.855,4.405,12.427
2026-05-22 16:45:36.608,1351876064,97608,2,0.93286,0.30396,0.37231,6.573,11.893,-9.015
2026-05-22 16:45:36.808,1351876264,97808,1,0.51563,0.01025,0.76196,-0.725,10.916,-0.855
2026-05-22 16:45:36.808,1351876264,97808,2,0.95679,0.34644,0.40186,-3.641,9.053,-0.359
2026-05-22 16:45:36.008,1351875464,98008,1,0.44897,,0.75659,-1.557,8.046,0.916
2026-05-22 16:45:36.008,1351875464,98008,2,0.9458,0.32715,0.45996,-5.985,8.573,2.191
2026-05-22 16:45:37.208,1351876664,98208,1,0.44507,0.01245,0.75781,8.122,14.618,4.244
2026-05-22 16:45:37.208,1351876664,98208,2,0.92896,0.3313,0.45288,1.29,14.092,-0.679
2026-05-22 16:45:37.408,1351876864,98408,1,0.43677,0.05151,0.78076,1.252,21.847,-11.374
2026-05-22 16:45:37.408,1351876864,98408,2,0.98096,0.39868,0.50854,-18.115,31.878,6.832
2026-05-22 16:45:37.608,1351877064,98608,1,0.31665,0.10205,1.05225,-2.137,97.519,-6.962
2026-05-22 16:45:37.608,1351877064,98608,2,1.04126,0.32275,0.96753,-39.359,124.221,-1.992
2026-05-22 16:45:37.808,1351877264,98808,1,-0.35742,0.00098,0.90381,-23.473,105.504,-5.412
2026-05-22 16:45:37.808,1351877264,98808,2,0.50293,0.17969,1.14771,-16.023,94.542,15.84
2026-05-22 16:45:37.008,1351876464,99008,1,-0.59961,-0.01538,0.67798,-15.336,65.84,14.511
2026-05-22 16:45:37.008,1351876464,99008,2,0.27612,0.08862,1.13989,12.855,17.389,-9.176
2026-05-22 16:45:38.208,1351877664,99208,1,-0.53516,0.03564,0.5127,14.878,-19.008,21.389
2026-05-22 16:45:38.208,1351877664,99208,2,0.26245,0.15283,1.12256,39.092,-15.893,-22.397
2026-05-22 16:45:38.408,1351877864,99408,1,-0.41968,0.06055,0.51196,-1.42,-22.634,-17.298
2026-05-22 16:45:38.408,1351877864,99408,2,0.44043,0.25659,1.1709,12.504,-19.405,-7.802
2026-05-22 16:45:38.608,1351878064,99608,1,-0.41089,0.06592,0.69238,20.061,-5.328,-16.366
2026-05-22 16:45:38.608,1351878064,99608,2,0.51001,0.23193,1.2207,-11.84,-11.099,-10.885
2026-05-22 16:45:38.808,1351878264,99808,1,-0.49609,0.12744,0.74854,5.45,-10.305,-17.122
2026-05-22 16:45:38.808,1351878264,99808,2,0.54199,0.21606,1.22705,2.527,-30.023,-1.855
2026-05-22 16:45:38.008,1351877464,100008,1,-0.43481,0.1062,0.86621,10.084,-59.87,17.038
2026-05-22 16:45:38.008,1351877464,100008,2,0.64429,0.27197,1.08569,31.336,-69.489,-2.351
2026-05-22 16:45:39.208,1351878664,100208,1,-0.0813,0.13452,0.75366,4.649,-84.641,34.954
2026-05-22 16:45:39.208,1351878664,100208,2,0.81079,0.3457,0.79932,50.191,-85.183,0.603
2026-05-22 16:45:39.408,1351878864,100408,1,0.27319,0.19336,0.67651,17.366,-99.366,45.298
2026-05-22 16:45:39.408,1351878864,100408,2,0.82446,0.56323,0.34204,64.832,-94.771,-12.137
2026-05-22 16:45:39.608,1351879064,100608,1,0.60522,0.19946,0.53516,-5.687,-65.519,9.641
2026-05-22 16:45:39.608,1351879064,100608,2,1.00415,0.49536,0.25098,4.733,-49.435,11.198
2026-05-22 16:45:39.808,1351879264,100808,1,0.66553,0.02734,0.57153,6.496,-16.0,20.489
2026-05-22 16:45:39.808,1351879264,100808,2,0.82104,0.479,0.11279,31.206,-16.634,-21.405
2026-05-22 16:45:39.008,1351878464,101008,1,0.78882,0.10156,0.58398,-16.489,-2.794,-2.282
2026-05-22 16:45:39.008,1351878464,101008,2,0.74365,0.48145,0.05444,-25.771,-7.74,9.511
2026-05-22 16:45:40.238,1351879694,101238,1,0.71704,0.12012,0.5459,-24.962,-1.191,-19.16
2026-05-22 16:45:40.238,1351879694,101238,2,0.8811,0.24414,0.08545,-72.45,-24.023,25.176
2026-05-22 16:45:40.438,1351879894,101438,1,0.73022,-0.01685,0.5459,-38.962,13.656,-46.282
2026-05-22 16:45:40.438,1351879894,101438,2,0.76123,0.19702,-0.01221,-161.542,-18.237,76.985
2026-05-22 16:45:40.638,1351880094,101638,1,0.78394,0.03467,0.58276,-21.069,-17.832,-21.977
2026-05-22 16:45:40.638,1351880094,101638,2,0.99927,0.35327,0.19116,30.786,-14.802,-2.183
2026-05-22 16:45:40.838,1351880294,101838,1,0.70508,0.03418,0.59204,-7.794,19.458,-3.397
2026-05-22 16:45:40.838,1351880294,101838,2,0.71045,0.2168,0.15381,22.069,15.733,-14.122
2026-05-22 16:45:41.038,1351880494,102038,1,0.67603,0.02905,0.61157,14.931,2.649,19.542
2026-05-22 16:45:41.038,1351880494,102038,2,0.43286,0.20459,0.22729,27.557,31.214,-3.405
2026-05-22 16:45:41.238,1351880694,102238,1,0.83008,0.10059,0.66382,7.069,-14.42,25.695
2026-05-22 16:45:41.238,1351880694,102238,2,1.14917,0.08374,0.35742,52.069,6.679,6.908
2026-05-22 16:45:41.438,1351880894,102438,1,0.67651,0.05713,0.58765,6.252,2.779,16.45
2026-05-22 16:45:41.438,1351880894,102438,2,0.93164,0.29468,0.18506,66.595,-2.321,-38.87
2026-05-22 16:45:41.638,1351881094,102638,1,0.7749,0.01147,0.5271,-16.122,-15.924,7.374
2026-05-22 16:45:41.638,1351881094,102638,2,0.88184,0.35522,0.10229,18.504,-9.931,-13.511
2026-05-22 16:45:41.880,1351881336,102880,1,0.83936,0.04785,0.50391,10.176,-5.191,6.595
2026-05-22 16:45:41.880,1351881336,102880,2,0.85156,0.3855,0.10229,-38.695,-15.038,13.458
2026-05-22 16:45:42.152,1351881608,103152,1,0.84253,0.0293,0.49829,1.588,-0.931,-0.389
2026-05-22 16:45:42.152,1351881608,103152,2,0.81128,0.39673,0.0813,-22.55,-1.115,-1.153
2026-05-22 16:45:42.352,1351881808,103352,1,0.84424,0.06274,0.47681,3.328,-1.176,-2.687
2026-05-22 16:45:42.352,1351881808,103352,2,0.82275,0.38965,0.15088,-9.939,3.916,-7.733
2026-05-22 16:45:42.552,1351882008,103552,1,0.90381,0.02271,0.46094,-3.374,-1.45,0.427
2026-05-22 16:45:42.552,1351882008,103552,2,0.80591,0.41382,-0.06494,29.725,26.122,-3.435
2026-05-22 16:45:42.752,1351882208,103752,1,0.82373,0.02075,0.49219,-5.382,4.718,-1.557
2026-05-22 16:45:42.752,1351882208,103752,2,0.81226,0.44019,0.01563,27.519,16.053,0.137
2026-05-22 16:45:42.952,1351882408,103952,1,0.82715,0.02148,0.51465,-5.641,4.061,-1.466
2026-05-22 16:45:42.952,1351882408,103952,2,0.84497,0.39746,0.09082,3.832,5.519,3.939
2026-05-22 16:45:43.152,1351882608,104152,1,0.83862,0.02344,0.4978,-2.977,2.176,0.198
2026-05-22 16:45:43.152,1351882608,104152,2,0.96021,0.26953,0.32983,-99.023,-5.771,0.634
2026-05-22 16:45:43.352,1351882808,104352,1,0.81519,0.07153,0.49634,3.733,-7.382,-0.969
2026-05-22 16:45:43.352,1351882808,104352,2,0.81128,0.58667,0.1123,26.618,12.573,17.092
2026-05-22 16:45:43.552,1351883008,104552,1,0.78296,0.07397,0.48535,2.176,-0.87,5.267
2026-05-22 16:45:43.552,1351883008,104552,2,0.88867,0.41943,0.2146,-5.366,-14.145,2.809
2026-05-22 16:45:43.752,1351883208,104752,1,0.83667,0.04688,0.57349,1.603,-10.359,6.954
2026-05-22 16:45:43.752,1351883208,104752,2,0.81274,0.37207,0.06152,12.695,2.053,4.779
2026-05-22 16:45:43.952,1351883408,104952,1,0.72046,-0.00171,0.52979,-7.527,5.534,-5.29
2026-05-22 16:45:43.952,1351883408,104952,2,0.7998,0.45337,0.01904,11.458,-5.519,2.809
2026-05-22 16:45:44.152,1351883608,105152,1,0.88965,-0.04199,0.45605,-4.031,-10.855,-3.26
2026-05-22 16:45:44.152,1351883608,105152,2,0.83276,0.39331,0.01563,-1.275,-14.443,-7.748
2026-05-22 16:45:44.352,1351883808,105352,1,0.80176,0.02441,0.4624,-8.382,0.191,-13.389
2026-05-22 16:45:44.352,1351883808,105352,2,0.79346,0.41309,0.00049,-1.191,-10.107,7.069
2026-05-22 16:45:44.552,1351884008,105552,1,0.90332,0.01636,0.44971,14.023,0.565,0.924
2026-05-22 16:45:44.552,1351884008,105552,2,0.80786,0.45239,0.06738,9.405,13.221,-7.351
2026-05-22 16:45:44.752,1351884208,105752,1,0.87646,0.07739,0.43701,25.405,20.992,6.183
2026-05-22 16:45:44.752,1351884208,105752,2,0.84058,0.42456,0.07715,18.74,37.137,-4.214
2026-05-22 16:45:44.952,1351884408,105952,1,0.74683,0.229,0.52051,36.786,33.55,17.206
2026-05-22 16:45:44.952,1351884408,105952,2,0.80981,0.58618,0.17603,40.26,45.176,-14.634
2026-05-22 16:45:45.152,1351884608,106152,1,0.6748,0.36401,0.54932,-3.229,-4.771,2.954
2026-05-22 16:45:45.152,1351884608,106152,2,0.75903,0.55396,0.23755,10.847,-14.176,2.687
2026-05-22 16:45:45.352,1351884808,106352,1,0.8562,0.14746,0.56543,-20.244,-25.794,-9.122
2026-05-22 16:45:45.352,1351884808,106352,2,0.7937,0.47656,0.16772,-18.305,-28.405,12.924
2026-05-22 16:45:45.552,1351885008,106552,1,0.83838,0.16455,0.46631,-18.107,-10.412,-8.534
2026-05-22 16:45:45.552,1351885008,106552,2,0.82471,0.42993,0.11084,-25.351,-11.817,10.435
2026-05-22 16:45:45.752,1351885208,106752,1,0.84204,0.03296,0.47266,-14.122,-2.183,-0.366
2026-05-22 16:45:45.752,1351885208,106752,2,0.8501,0.44897,0.104,-15.542,0.603,4.046
2026-05-22 16:45:45.952,1351885408,106952,1,0.8396,0.0437,0.51587,-14.756,9.382,-7.313
2026-05-22 16:45:45.952,1351885408,106952,2,0.86255,0.40137,0.09448,-5.305,4.16,12.336
2026-05-22 16:45:46.152,1351885608,107152,1,0.82788,-0.05127,0.51196,-8.336,-4.305,4.832
2026-05-22 16:45:46.152,1351885608,107152,2,0.83594,0.35645,0.04443,14.344,-6.473,-6.748
2026-05-22 16:45:46.352,1351885808,107352,1,0.87524,-0.03345,0.45093,15.008,-11.336,18.069
2026-05-22 16:45:46.352,1351885808,107352,2,0.83301,0.43945,0.03198,18.244,-3.145,-15.153
2026-05-22 16:45:46.552,1351886008,107552,1,0.79443,-0.02051,0.48877,-1.206,-13.168,1.435
2026-05-22 16:45:46.552,1351886008,107552,2,0.771,0.46777,0.03223,15.824,-7.282,-7.099
2026-05-22 16:45:46.752,1351886208,107752,1,0.92261,0.06128,0.38892,-3.489,-15.168,-15.489
2026-05-22 16:45:46.752,1351886208,107752,2,0.77686,0.47803,0.04419,-9.321,-10.855,0.954
2026-05-22 16:45:46.952,1351886408,107952,1,0.93042,0.06519,0.37964,-3.855,7.565,-4.878
2026-05-22 16:45:46.952,1351886408,107952,2,0.80566,0.42139,0.03662,-2.481,18.45,22.13
2026-05-22 16:45:47.152,1351886608,108152,1,0.87012,0.03418,0.41553,10.076,8.55,7.168
2026-05-22 16:45:47.152,1351886608,108152,2,0.83838,0.36719,0.06812,9.817,16.328,5.847
2026-05-22 16:45:47.352,1351886808,108352,1,0.81543,0.0061,0.47656,13.748,16.634,21.076
2026-05-22 16:45:47.352,1351886808,108352,2,0.84619,0.37866,0.09497,22.214,22.466,-8.282
2026-05-22 16:45:47.552,1351887008,108552,1,0.83179,0.09619,0.49609,21.878,4.252,11.183
2026-05-22 16:45:47.552,1351887008,108552,2,0.8291,0.49268,0.16187,19.74,7.649,-20.58
2026-05-22 16:45:47.752,1351887208,108752,1,0.81616,0.18408,0.49414,5.595,2.527,-12.924
2026-05-22 16:45:47.752,1351887208,108752,2,0.80225,0.47314,0.13501,-5.519,-6.389,-3.786
2026-05-22 16:45:47.952,1351887408,108952,1,0.78882,0.23682,0.45361,-5.397,-4.863,-11.351
2026-05-22 16:45:47.952,1351887408,108952,2,0.7583,0.53735,0.11475,-22.053,-15.015,10.733
2026-05-22 16:45:48.152,1351887608,109152,1,0.8291,0.22876,0.45679,-29.176,-11.511,-17.397
2026-05-22 16:45:48.152,1351887608,109152,2,0.79395,0.49683,0.10254,-24.275,-26.427,18.015
2026-05-22 16:45:48.352,1351887808,109352,1,0.83691,0.15479,0.44507,-21.069,-11.641,-3.351
2026-05-22 16:45:48.352,1351887808,109352,2,0.81152,0.43872,0.10938,-8.412,-3.374,2.817
2026-05-22 16:45:48.552,1351888008,109552,1,0.86108,0.09058,0.43384,0.969,-1.344,11.405
2026-05-22 16:45:48.552,1351888008,109552,2,0.7959,0.42847,0.05005,3.153,-1.313,-1.71
2026-05-22 16:45:48.752,1351888208,109752,1,0.87427,0.05933,0.43604,-8.084,-3.069,4.046
2026-05-22 16:45:48.752,1351888208,109752,2,0.7832,0.44873,0.08398,-11.092,-6.489,1.153
2026-05-22 16:45:48.952,1351888408,109952,1,0.86621,0.02417,0.44238,-15.092,3.916,-5.863
2026-05-22 16:45:48.952,1351888408,109952,2,0.76147,0.4519,0.08838,-12.023,-2.153,5.015
2026-05-22 16:45:49.152,1351888608,110152,1,0.84863,0.01807,0.47705,-11.519,2.786,-1.618
2026-05-22 16:45:49.152,1351888608,110152,2,0.80835,0.44458,0.05737,-11.305,-2.893,4.962
2026-05-22 16:45:49.352,1351888808,110352,1,0.85522,0.00708,0.46338,-15.687,3.351,-8.031
2026-05-22 16:45:49.352,1351888808,110352,2,0.7915,0.42725,0.0437,-13.023,-9.405,8.58
2026-05-22 16:45:49.552,1351889008,110552,1,0.91772,-0.02344,0.44604,-20.122,8.427,-11.511
2026-05-22 16:45:49.552,1351889008,110552,2,0.86328,0.3728,0.04517,-22.55,6.603,22.313
2026-05-22 16:45:49.752,1351889208,110752,1,0.82617,-0.10645,0.49805,-5.229,20.916,-2.992
2026-05-22 16:45:49.752,1351889208,110752,2,0.81958,0.32739,0.03589,-8.084,15.305,5.176
2026-05-22 16:45:49.952,1351889408,110952,1,0.78931,0.00732,0.54053,19.863,9.237,6.565
2026-05-22 16:45:49.952,1351889408,110952,2,0.8501,0.38013,0.15454,13.504,13.939,-1.435
2026-05-22 16:45:50.152,1351889608,111152,1,0.77295,0.09253,0.52051,20.672,23.977,4.924
2026-05-22 16:45:50.152,1351889608,111152,2,0.87622,0.42383,0.24023,6.13,34.328,6.687
2026-05-22 16:45:50.352,1351889808,111352,1,0.64893,0.22852,0.42114,10.061,69.931,0.969
2026-05-22 16:45:50.352,1351889808,111352,2,0.84863,0.39624,0.52368,22.145,93.489,45.344
2026-05-22 16:45:50.552,1351890008,111552,1,0.15894,0.12622,0.46289,-15.366,133.618,-7.725
2026-05-22 16:45:50.552,1351890008,111552,2,0.62891,0.18774,0.67749,54.519,135.466,35.626
2026-05-22 16:45:50.752,1351890208,111752,1,-0.34082,0.13257,0.8855,-19.267,80.321,6.763
2026-05-22 16:45:50.752,1351890208,111752,2,0.58179,0.11768,1.05347,40.794,54.252,6.679
2026-05-22 16:45:50.952,1351890408,111952,1,-0.38965,0.0271,0.89771,-3.611,-28.405,10.626
2026-05-22 16:45:50.952,1351890408,111952,2,0.59912,0.31177,1.19434,58.0,-35.71,1.397
2026-05-22 16:45:51.152,1351890608,112152,1,-0.12988,-0.07446,0.8894,0.588,-76.733,13.412
2026-05-22 16:45:51.152,1351890608,112152,2,0.83862,0.25659,1.00073,49.947,-79.702,-11.847
2026-05-22 16:45:51.352,1351890808,112352,1,0.48877,0.00879,1.04614,-3.649,-83.863,-9.779
2026-05-22 16:45:51.352,1351890808,112352,2,1.45093,0.46558,0.78979,5.947,-77.817,-5.435
2026-05-22 16:45:51.552,1351891008,112552,1,0.47095,0.01465,0.59375,-5.733,17.809,-11.023
2026-05-22 16:45:51.552,1351891008,112552,2,0.82568,0.24609,0.49756,-8.137,14.71,-3.206
2026-05-22 16:45:51.752,1351891208,112752,1,0.42725,0.15552,1.41553,-16.206,81.481,-0.939
2026-05-22 16:45:51.752,1351891208,112752,2,1.31982,0.38354,0.85059,-69.16,102.695,17.244
2026-05-22 16:45:51.952,1351891408,112952,1,-0.26514,-0.10474,0.82739,-15.878,51.664,-5.389
2026-05-22 16:45:51.952,1351891408,112952,2,0.75195,0.21118,1.01465,-17.924,36.618,7.527
2026-05-22 16:45:52.152,1351891608,113152,1,0.19849,-0.0813,0.85327,17.42,-45.573,-6.038
2026-05-22 16:45:52.152,1351891608,113152,2,0.44238,0.06494,1.02588,16.901,5.893,-13.443
2026-05-22 16:45:52.352,1351891808,113352,1,-0.03052,-0.08618,0.84277,23.046,-28.046,0.214
2026-05-22 16:45:52.352,1351891808,113352,2,0.6394,0.25391,0.94702,10.954,-74.794,-19.084
2026-05-22 16:45:52.552,1351892008,113552,1,0.06079,-0.02002,0.79468,5.137,-69.756,-7.924
2026-05-22 16:45:52.552,1351892008,113552,2,0.76294,0.39771,0.5603,25.237,-94.649,-28.656
2026-05-22 16:45:52.785,1351892241,113785,1,0.48853,0.10498,0.45386,5.359,-96.74,-11.191
2026-05-22 16:45:52.785,1351892241,113785,2,0.92188,0.37427,0.46558,0.061,-92.618,-20.481
2026-05-22 16:45:52.985,1351892441,113985,1,0.87451,0.12183,0.36987,2.672,-47.183,-6.718
2026-05-22 16:45:52.985,1351892441,113985,2,0.86523,0.42798,0.13525,-30.405,-39.458,3.443
2026-05-22 16:45:53.185,1351892641,114185,1,0.88281,0.14746,0.37891,-20.748,-13.42,-12.504
2026-05-22 16:45:53.185,1351892641,114185,2,0.86792,0.43945,0.1416,-43.084,-15.015,17.435
2026-05-22 16:45:53.385,1351892841,114385,1,0.91284,0.11108,0.36548,-6.832,5.206,-7.374
2026-05-22 16:45:53.385,1351892841,114385,2,0.81934,0.44141,0.10352,-13.924,5.763,7.916
2026-05-22 16:45:53.585,1351893041,114585,1,0.83813,0.07397,0.47583,7.336,21.382,6.244
2026-05-22 16:45:53.585,1351893041,114585,2,0.84058,0.43945,0.16821,11.313,23.489,-5.115
2026-05-22 16:45:53.785,1351893241,114785,1,0.7749,0.125,0.51416,2.427,27.321,4.939
2026-05-22 16:45:53.785,1351893241,114785,2,0.84839,0.45483,0.22827,-0.74,24.084,7.405
2026-05-22 16:45:53.985,1351893441,114985,1,0.70215,0.11523,0.604,-3.206,16.687,2.282
2026-05-22 16:45:53.985,1351893441,114985,2,0.91284,0.40503,0.3186,-4.29,13.183,3.832
2026-05-22 16:45:54.185,1351893641,115185,1,0.69189,0.01147,0.49927,-2.656,57.122,3.618
2026-05-22 16:45:54.185,1351893641,115185,2,0.94702,0.24316,0.44043,-14.534,74.366,23.015
2026-05-22 16:45:54.385,1351893841,115385,1,0.25952,0.21094,0.49609,-14.443,79.496,15.282
2026-05-22 16:45:54.385,1351893841,115385,2,0.70068,0.28833,0.53442,11.985,95.023,33.786
2026-05-22 16:45:54.585,1351894041,115585,1,0.06763,0.01245,0.72534,-5.74,67.595,14.893
2026-05-22 16:45:54.585,1351894041,115585,2,0.67188,0.31665,0.9082,45.634,66.878,2.366
2026-05-22 16:45:54.785,1351894241,115785,1,-0.12158,0.01489,0.93115,-15.756,26.992,3.863
2026-05-22 16:45:54.785,1351894241,115785,2,0.76611,0.29199,1.09082,13.382,33.305,4.687
2026-05-22 16:45:54.985,1351894441,115985,1,-0.14136,-0.01318,0.89771,-10.015,-5.336,2.588
2026-05-22 16:45:54.985,1351894441,115985,2,0.63281,0.13037,1.09253,17.55,-11.534,3.45
2026-05-22 16:45:55.185,1351894641,116185,1,-0.12866,0.01563,0.97681,10.687,-37.626,3.809
2026-05-22 16:45:55.185,1351894641,116185,2,0.75073,0.2832,1.02124,11.634,-58.0,1.603
2026-05-22 16:45:55.385,1351894841,116385,1,0.15039,0.05005,0.76563,6.817,-57.962,-0.183
2026-05-22 16:45:55.385,1351894841,116385,2,0.78101,0.28418,0.78589,6.466,-59.702,-8.298
2026-05-22 16:45:55.585,1351895041,116585,1,0.56714,0.10938,0.85181,-4.748,-69.809,-5.046
2026-05-22 16:45:55.585,1351895041,116585,2,1.3916,0.50586,0.54956,27.069,-66.435,-1.863
2026-05-22 16:45:55.785,1351895241,116785,1,0.49438,0.01245,0.71069,-19.45,19.427,-8.702
2026-05-22 16:45:55.785,1351895241,116785,2,0.60913,0.26416,0.39722,-11.321,3.458,5.779
2026-05-22 16:45:55.985,1351895441,116985,1,0.49341,0.02222,0.70996,-18.099,-14.542,-10.191
2026-05-22 16:45:55.985,1351895441,116985,2,1.35059,0.40576,0.5105,-7.71,-6.473,17.099
2026-05-22 16:45:56.185,1351895641,117185,1,0.44312,-0.00049,0.6167,-0.13,8.679,-4.473
2026-05-22 16:45:56.185,1351895641,117185,2,0.70483,0.24194,0.40381,-7.656,0.504,4.13
2026-05-22 16:45:56.385,1351895841,117385,1,0.62793,-0.02246,0.88623,-6.008,3.359,-1.718
2026-05-22 16:45:56.385,1351895841,117385,2,0.93262,0.33252,0.44995,-11.191,11.527,3.168
2026-05-22 16:45:56.585,1351896041,117585,1,0.43628,-0.01465,0.66455,2.718,-7.397,-4.885
2026-05-22 16:45:56.585,1351896041,117585,2,0.93091,0.32935,0.48389,6.176,-8.153,-4.298
2026-05-22 16:45:56.785,1351896241,117785,1,0.70825,-0.02881,0.46265,-14.374,7.771,-5.099
2026-05-22 16:45:56.785,1351896241,117785,2,0.88257,0.22925,0.48804,8.573,17.008,0.863
2026-05-22 16:45:57.152,1351896608,118152,1,0.40625,0.06201,0.87964,-14.924,-3.878,1.649
2026-05-22 16:45:57.152,1351896608,118152,2,0.97949,0.34351,0.56348,10.962,6.061,8.542
2026-05-22 16:45:57.352,1351896808,118352,1,0.42847,0.00635,0.78296,-2.786,10.595,-1.771
2026-05-22 16:45:57.352,1351896808,118352,2,0.91699,0.24902,0.56104,-9.534,5.313,4.282
2026-05-22 16:45:57.552,1351897008,118552,1,0.42383,-0.02637,0.79102,-7.916,4.153,-2.382
2026-05-22 16:45:57.552,1351897008,118552,2,0.92407,0.24463,0.57568,1.595,1.794,3.443
2026-05-22 16:45:57.752,1351897208,118752,1,0.44507,-0.02783,0.77393,-10.84,-1.122,-2.573
2026-05-22 16:45:57.752,1351897208,118752,2,0.9209,0.25977,0.58667,0.13,-2.992,4.45
2026-05-22 16:45:57.952,1351897408,118952,1,0.50049,-0.05371,0.75317,0.656,-1.931,1.29
2026-05-22 16:45:57.952,1351897408,118952,2,0.93726,0.24487,0.55859,0.305,-0.282,1.389
2026-05-22 16:45:58.152,1351897608,119152,1,0.47534,-0.05469,0.75073,-0.45,-0.626,1.382
2026-05-22 16:45:58.152,1351897608,119152,2,0.94165,0.24438,0.56177,-1.313,-0.237,2.015
2026-05-22 16:45:58.352,1351897808,119352,1,0.58521,-0.11157,0.66016,4.985,3.557,3.916
2026-05-22 16:45:58.352,1351897808,119352,2,0.92603,0.24512,0.48315,-8.405,6.328,0.71
2026-05-22 16:45:58.552,1351898008,119552,1,0.53784,-0.05835,0.66479,-3.061,-0.267,-0.13
2026-05-22 16:45:58.552,1351898008,119552,2,0.91992,0.25293,0.52808,0.29,0.16,1.534
2026-05-22 16:45:58.752,1351898208,119752,1,0.51343,-0.04224,0.7356,-0.13,-0.328,1.565
2026-05-22 16:45:58.752,1351898208,119752,2,0.93286,0.24756,0.54102,-1.015,1.527,0.336
2026-05-22 16:45:58.952,1351898408,119952,1,0.48193,-0.03125,0.75977,-7.0,1.87,-1.069
2026-05-22 16:45:58.952,1351898408,119952,2,0.94263,0.25732,0.54077,-6.168,3.397,4.359
2026-05-22 16:45:59.152,1351898608,120152,1,0.47607,-0.06348,0.7478,-1.924,3.198,-0.511
2026-05-22 16:45:59.152,1351898608,120152,2,0.94702,0.23804,0.55811,-0.893,4.557,2.099
2026-05-22 16:45:59.352,1351898808,120352,1,0.47021,-0.05005,0.74805,-0.733,2.0,1.183
2026-05-22 16:45:59.352,1351898808,120352,2,0.93896,0.22119,0.56689,-1.29,0.863,0.397
2026-05-22 16:45:59.552,1351899008,120552,1,0.46118,-0.04761,0.76392,2.031,-1.153,1.191
2026-05-22 16:45:59.552,1351899008,120552,2,0.92896,0.24316,0.54346,0.344,-0.542,0.046
2026-05-22 16:45:59.752,1351899208,120752,1,0.4751,-0.03296,0.75708,1.221,0.672,6.954
2026-05-22 16:45:59.752,1351899208,120752,2,0.93286,0.24951,0.55103,6.947,-0.115,-2.084
2026-05-22 16:45:59.952,1351899408,120952,1,0.49609,-0.02222,0.74854,-0.916,1.885,1.321
2026-05-22 16:45:59.952,1351899408,120952,2,0.93848,0.2605,0.52466,-3.603,1.603,2.313
2026-05-22 16:46:00.152,1351899608,121152,1,0.47949,-0.04199,0.71729,-7.015,9.412,1.565
2026-05-22 16:46:00.152,1351899608,121152,2,0.94507,0.2373,0.55005,0.618,10.534,1.076
2026-05-22 16:46:00.352,1351899808,121352,1,0.40649,-0.04053,0.77637,-3.305,7.626,4.489
2026-05-22 16:46:00.352,1351899808,121352,2,0.92432,0.24707,0.60327,-1.603,4.397,-0.031
2026-05-22 16:46:00.552,1351900008,121552,1,0.37939,-0.02808,0.79077,3.74,-2.351,1.534
2026-05-22 16:46:00.552,1351900008,121552,2,0.90723,0.2688,0.59912,-6.473,-1.069,-0.092
2026-05-22 16:46:00.752,1351900208,121752,1,0.42188,-0.02612,0.7771,0.809,2.672,1.557
2026-05-22 16:46:00.752,1351900208,121752,2,0.9502,0.25806,0.56152,-1.504,3.122,-1.229
2026-05-22 16:46:00.952,1351900408,121952,1,0.46582,-0.00977,0.75146,-1.611,8.656,0.901
2026-05-22 16:46:00.952,1351900408,121952,2,1.11792,0.30811,0.59082,7.794,11.496,-2.168
2026-05-22 16:46:01.152,1351900608,122152,1,0.41064,0.02808,1.11914,-16.389,95.16,4.374
2026-05-22 16:46:01.152,1351900608,122152,2,1.15552,0.34082,0.85034,-61.061,106.344,24.664
2026-05-22 16:46:01.352,1351900808,122352,1,-0.15942,-0.06616,0.85254,-10.374,84.634,7.473
2026-05-22 16:46:01.352,1351900808,122352,2,0.69507,0.1687,1.07935,-23.824,68.405,7.878
2026-05-22 16:46:01.552,1351901008,122552,1,-0.39722,-0.02441,0.67529,-17.153,71.473,-2.802
2026-05-22 16:46:01.552,1351901008,122552,2,0.34766,0.04443,1.02295,-7.802,60.496,4.489
2026-05-22 16:46:01.752,1351901208,122752,1,-0.35547,-0.14722,0.6228,-13.527,-8.649,-5.924
2026-05-22 16:46:01.752,1351901208,122752,2,0.19702,-0.06079,1.17896,0.603,49.908,6.496
2026-05-22 16:46:01.952,1351901408,122952,1,-0.39014,-0.02637,0.67798,19.473,-15.756,0.947
2026-05-22 16:46:01.952,1351901408,122952,2,0.1748,0.10132,1.47021,13.718,-13.351,1.992
2026-05-22 16:46:02.152,1351901608,123152,1,-0.44531,-0.12378,1.00122,9.008,-37.466,0.725
2026-05-22 16:46:02.152,1351901608,123152,2,0.37036,0.13647,1.26904,14.55,-81.092,-13.954
2026-05-22 16:46:02.352,1351901808,123352,1,-0.27002,-0.05444,0.78662,9.252,-80.817,-4.527
2026-05-22 16:46:02.352,1351901808,123352,2,0.65356,0.13574,0.96606,28.901,-116.634,-22.847
2026-05-22 16:46:02.552,1351902008,123552,1,0.11401,-0.07593,0.69971,17.16,-115.389,3.534
2026-05-22 16:46:02.552,1351902008,123552,2,0.80933,0.36426,0.5249,26.534,-110.0,-27.687
2026-05-22 16:46:02.752,1351902208,123752,1,0.62695,0.02344,0.521,7.71,-81.382,6.748
2026-05-22 16:46:02.752,1351902208,123752,2,0.90308,0.44946,0.37769,70.496,-41.962,-32.42
2026-05-22 16:46:02.952,1351902408,123952,1,0.86157,0.08398,0.37964,-4.565,-40.618,-14.015
2026-05-22 16:46:02.952,1351902408,123952,2,0.92969,0.4375,0.05347,-5.878,-28.802,38.145
2026-05-22 16:46:03.152,1351902608,124152,1,0.87769,0.04077,0.40405,-9.061,-6.359,-24.282
2026-05-22 16:46:03.152,1351902608,124152,2,0.92236,0.35229,0.10352,16.229,-2.359,-3.092
2026-05-22 16:46:03.352,1351902808,124352,1,0.94849,0.08984,0.39893,-9.779,25.298,-0.595
2026-05-22 16:46:03.352,1351902808,124352,2,0.91064,0.35229,0.09985,-21.824,24.229,12.198
2026-05-22 16:46:03.552,1351903008,124552,1,0.80737,0.12109,0.33423,-7.511,80.527,12.809
2026-05-22 16:46:03.552,1351903008,124552,2,0.76123,0.31714,0.3252,-36.206,74.481,22.985
2026-05-22 16:46:03.752,1351903208,124752,1,0.43872,0.13647,0.44531,-3.336,112.466,25.313
2026-05-22 16:46:03.752,1351903208,124752,2,0.82178,0.13843,0.67749,5.771,118.595,34.496
2026-05-22 16:46:03.952,1351903408,124952,1,0.10254,0.04199,0.79858,-14.328,105.947,18.855
2026-05-22 16:46:03.952,1351903408,124952,2,0.66162,0.23511,1.03027,-30.725,116.969,23.397
2026-05-22 16:46:04.152,1351903608,125152,1,-0.28052,-0.09009,0.83423,-1.901,48.267,5.26
2026-05-22 16:46:04.152,1351903608,125152,2,0.47388,0.14893,1.38354,-30.916,78.282,12.313
2026-05-22 16:46:04.352,1351903808,125352,1,-0.37524,-0.0791,0.76685,-15.229,50.366,0.901
2026-05-22 16:46:04.352,1351903808,125352,2,0.22144,0.01733,1.37134,-14.366,51.069,7.611
2026-05-22 16:46:04.552,1351904008,125552,1,-0.73633,-0.12842,1.03198,-18.069,13.908,-0.557
2026-05-22 16:46:04.552,1351904008,125552,2,0.25122,-0.06812,1.51172,28.771,-48.504,-4.519
2026-05-22 16:46:04.752,1351904208,125752,1,-0.59302,0.00049,0.61987,8.618,8.42,0.885
2026-05-22 16:46:04.752,1351904208,125752,2,0.12622,0.01538,1.40479,5.519,-1.405,0.573
2026-05-22 16:46:04.952,1351904408,125952,1,-0.6311,-0.05713,0.70923,8.565,-6.389,0.878
2026-05-22 16:46:04.952,1351904408,125952,2,0.12427,-0.05103,1.49731,6.366,-14.588,-6.115
2026-05-22 16:46:05.152,1351904608,126152,1,-0.63062,0.05493,0.81006,8.55,-46.405,5.412
2026-05-22 16:46:05.152,1351904608,126152,2,0.21753,0.07129,1.44531,23.061,-54.527,-3.061
2026-05-22 16:46:05.352,1351904808,126352,1,-0.4043,0.02563,0.86548,0.611,-93.863,3.954
2026-05-22 16:46:05.352,1351904808,126352,2,0.51636,0.18628,1.14746,27.542,-124.656,-11.916
2026-05-22 16:46:05.552,1351905008,126552,1,-0.05176,-0.00781,0.77124,-2.191,-111.55,-3.198
2026-05-22 16:46:05.552,1351905008,126552,2,0.85376,0.30542,0.5127,28.87,-139.107,-25.137
2026-05-22 16:46:05.771,1351905227,126771,1,0.51685,0.05688,0.54126,-7.084,-119.031,-10.947
2026-05-22 16:46:05.771,1351905227,126771,2,0.90747,0.35791,0.16895,-14.176,-98.092,-8.122
2026-05-22 16:46:05.971,1351905427,126971,1,0.85278,-0.00073,0.36182,-19.191,-70.656,-19.969
2026-05-22 16:46:05.971,1351905427,126971,2,0.90649,0.40747,0.08179,-27.412,-59.328,5.359
2026-05-22 16:46:06.171,1351905627,127171,1,0.95532,0.01489,0.36792,-5.481,-19.092,-4.489
2026-05-22 16:46:06.171,1351905627,127171,2,0.80957,0.45264,-0.03784,-14.153,-15.664,1.527
2026-05-22 16:46:06.371,1351905827,127371,1,0.93066,0.0603,0.39819,-10.634,0.282,-3.931
2026-05-22 16:46:06.371,1351905827,127371,2,0.76514,0.44971,-0.04492,-7.84,0.198,6.473
2026-05-22 16:46:06.571,1351906027,127571,1,0.87476,0.02759,0.41016,-18.855,9.099,-7.229
2026-05-22 16:46:06.571,1351906027,127571,2,0.78003,0.43091,-0.00513,-27.748,-1.046,14.366
2026-05-22 16:46:06.771,1351906227,127771,1,0.8833,-0.05322,0.44214,-1.374,11.191,-1.16
2026-05-22 16:46:06.771,1351906227,127771,2,0.80078,0.3374,0.00244,2.26,19.634,-7.397
2026-05-22 16:46:06.971,1351906427,127971,1,0.82202,-0.01367,0.51147,29.366,-6.382,21.626
2026-05-22 16:46:06.971,1351906427,127971,2,0.78345,0.43384,0.02783,33.733,10.611,-18.084
2026-05-22 16:46:07.171,1351906627,128171,1,0.85425,0.01221,0.42871,8.321,-0.565,13.947
2026-05-22 16:46:07.171,1351906627,128171,2,0.78687,0.4563,0.01392,7.038,7.206,0.038
2026-05-22 16:46:07.371,1351906827,128371,1,0.86792,-0.01245,0.42725,4.374,-5.931,6.206
2026-05-22 16:46:07.371,1351906827,128371,2,0.77539,0.46753,0.00781,0.672,-6.725,-0.321
2026-05-22 16:46:07.571,1351907027,128571,1,0.91724,0.01733,0.42505,-15.092,0.176,-9.206
2026-05-22 16:46:07.571,1351907027,128571,2,0.78247,0.45264,0.08716,-20.626,-2.038,13.252
2026-05-22 16:46:07.771,1351907227,128771,1,0.85059,-0.07153,0.46802,-23.504,4.275,-10.466
2026-05-22 16:46:07.771,1351907227,128771,2,0.8125,0.40747,-0.00391,-16.954,-7.191,13.45
2026-05-22 16:46:07.971,1351907427,128971,1,0.85693,-0.06982,0.45239,-8.122,2.168,-6.084
2026-05-22 16:46:07.971,1351907427,128971,2,0.79077,0.34546,-0.00391,-3.191,1.557,6.679
2026-05-22 16:46:08.171,1351907627,129171,1,0.88672,-0.10449,0.42188,13.908,-9.412,10.534
2026-05-22 16:46:08.171,1351907627,129171,2,0.91089,0.53979,-0.05713,13.397,-0.542,-21.87
2026-05-22 16:46:08.371,1351907827,129371,1,0.8645,0.00171,0.42139,14.168,0.092,5.557
2026-05-22 16:46:08.371,1351907827,129371,2,0.80444,0.48022,-0.02759,18.252,9.046,-8.389
2026-05-22 16:46:08.571,1351908027,129571,1,0.87866,0.04199,0.44556,14.198,1.725,2.458
2026-05-22 16:46:08.571,1351908027,129571,2,0.7793,0.43701,0.01782,11.824,7.336,-7.427
2026-05-22 16:46:08.771,1351908227,129771,1,0.88403,0.07153,0.41895,17.084,-2.634,6.58
2026-05-22 16:46:08.771,1351908227,129771,2,0.77197,0.5,0.0127,10.802,7.412,-8.573
2026-05-22 16:46:08.971,1351908427,129971,1,0.88354,0.07959,0.41089,2.534,4.229,-1.878
2026-05-22 16:46:08.971,1351908427,129971,2,0.7627,0.47412,-0.01025,-4.817,4.168,6.176
2026-05-22 16:46:09.171,1351908627,130171,1,0.86011,0.08521,0.42871,-0.435,7.267,-0.931
2026-05-22 16:46:09.171,1351908627,130171,2,0.77466,0.46777,0.02808,-0.664,5.687,4.0
2026-05-22 16:46:09.371,1351908827,130371,1,0.85474,0.09912,0.45679,-2.435,3.206,-3.588
2026-05-22 16:46:09.371,1351908827,130371,2,0.7937,0.43701,0.04053,-11.504,-1.901,3.908
2026-05-22 16:46:09.571,1351909027,130571,1,0.8667,0.0769,0.44727,-0.916,1.511,-3.42
2026-05-22 16:46:09.571,1351909027,130571,2,0.81055,0.41895,0.05933,-3.954,3.183,7.0
2026-05-22 16:46:09.771,1351909227,130771,1,0.86182,0.07788,0.44385,5.031,8.763,-1.29
2026-05-22 16:46:09.771,1351909227,130771,2,0.82349,0.44556,0.07056,-6.924,12.847,1.405
2026-05-22 16:46:09.971,1351909427,130971,1,0.83301,0.11597,0.47681,5.908,17.916,-4.954
2026-05-22 16:46:09.971,1351909427,130971,2,0.83179,0.4436,0.11792,-8.191,19.969,5.412
2026-05-22 16:46:10.171,1351909627,131171,1,0.78979,0.16748,0.51221,8.87,29.115,-6.786
2026-05-22 16:46:10.171,1351909627,131171,2,0.8938,0.44824,0.22827,-3.931,37.221,8.695
2026-05-22 16:46:10.371,1351909827,131371,1,0.7019,0.27759,0.47534,5.656,55.557,-5.817
2026-05-22 16:46:10.371,1351909827,131371,2,0.84766,0.51514,0.42017,-32.053,62.634,18.313
2026-05-22 16:46:10.571,1351910027,131571,1,0.24097,0.14526,0.49414,-19.107,100.038,-12.947
2026-05-22 16:46:10.571,1351910027,131571,2,0.77856,0.17847,0.40894,-32.023,118.618,54.679
2026-05-22 16:46:10.771,1351910227,131771,1,-0.13599,0.10474,0.73242,-20.58,96.183,7.389
2026-05-22 16:46:10.771,1351910227,131771,2,0.71265,0.09497,0.94971,-32.168,99.046,33.069
2026-05-22 16:46:10.971,1351910427,131971,1,-0.48267,0.08105,0.90381,-9.481,33.458,-0.733
2026-05-22 16:46:10.971,1351910427,131971,2,0.47681,0.17871,1.15967,5.985,4.244,5.893
2026-05-22 16:46:11.171,1351910627,132171,1,-0.3335,0.01343,0.84326,-7.321,-37.603,-6.328
2026-05-22 16:46:11.171,1351910627,132171,2,0.6438,0.20459,1.13477,13.985,-36.519,1.496
2026-05-22 16:46:11.371,1351910827,132371,1,-0.07593,-0.09033,1.03271,-1.649,-59.908,-2.366
2026-05-22 16:46:11.371,1351910827,132371,2,0.93823,0.18872,0.97021,18.344,-65.595,-2.557
2026-05-22 16:46:11.571,1351911027,132571,1,0.36719,0.06079,0.92188,6.931,-47.107,-1.939
2026-05-22 16:46:11.571,1351911027,132571,2,1.3667,0.44116,0.93457,26.076,-22.901,-2.565
2026-05-22 16:46:11.771,1351911227,132771,1,0.36182,0.17017,1.08838,2.824,59.374,5.168
2026-05-22 16:46:11.771,1351911227,132771,2,1.12231,0.30005,1.10449,-74.145,77.809,18.107
2026-05-22 16:46:11.971,1351911427,132971,1,-0.14795,0.05005,1.08423,3.16,12.061,6.565
2026-05-22 16:46:11.971,1351911427,132971,2,0.77393,0.18701,0.91699,-4.351,18.031,9.153
2026-05-22 16:46:12.171,1351911627,133171,1,-0.02588,-0.0437,0.78589,20.26,-67.557,11.366
2026-05-22 16:46:12.171,1351911627,133171,2,0.38403,0.17822,1.05078,9.153,16.107,-4.252
2026-05-22 16:46:12.371,1351911827,133371,1,-0.06567,0.03564,1.00146,3.321,-54.733,5.824
2026-05-22 16:46:12.371,1351911827,133371,2,0.573,0.3418,1.04028,39.481,-85.221,-15.542
2026-05-22 16:46:12.571,1351912027,133571,1,0.09473,0.0625,0.58496,11.382,-92.947,-1.962
2026-05-22 16:46:12.571,1351912027,133571,2,0.71777,0.3999,0.48413,54.145,-100.0,-16.733
2026-05-22 16:46:12.771,1351912227,133771,1,0.46973,0.00928,0.52393,-1.702,-91.817,-5.313
2026-05-22 16:46:12.771,1351912227,133771,2,0.8855,0.35254,0.27246,2.344,-106.771,-18.878
2026-05-22 16:46:12.971,1351912427,133971,1,0.76025,0.09106,0.45581,-12.695,-40.878,-6.344
2026-05-22 16:46:12.971,1351912427,133971,2,0.87109,0.54175,0.12451,-33.237,-39.336,20.74
2026-05-22 16:46:13.171,1351912627,134171,1,0.87231,0.03955,0.46899,-4.183,-13.565,-4.962
2026-05-22 16:46:13.171,1351912627,134171,2,0.77881,0.50244,0.05542,-3.45,-9.115,1.84
2026-05-22 16:46:13.371,1351912827,134371,1,0.90723,0.09888,0.37329,-5.015,8.374,1.351
2026-05-22 16:46:13.371,1351912827,134371,2,0.78564,0.49585,0.0647,-8.504,10.702,5.313
2026-05-22 16:46:13.571,1351913027,134571,1,0.93164,0.12085,0.33252,-7.45,40.496,0.405
2026-05-22 16:46:13.571,1351913027,134571,2,0.8999,0.44385,0.2063,-61.298,43.908,37.26
2026-05-22 16:46:13.771,1351913227,134771,1,0.54736,0.07495,0.48315,0.42,100.366,-0.893
2026-05-22 16:46:13.771,1351913227,134771,2,0.95044,0.42529,0.55029,-44.634,117.176,20.878
2026-05-22 16:46:13.971,1351913427,134971,1,0.11646,0.03247,0.70044,-19.153,115.13,-4.908
2026-05-22 16:46:13.971,1351913427,134971,2,0.84204,0.30518,0.78955,10.0,130.412,29.748
2026-05-22 16:46:14.171,1351913627,135171,1,-0.27881,-0.02344,0.97168,-13.985,76.817,-4.496
2026-05-22 16:46:14.171,1351913627,135171,2,0.59814,0.20264,1.11646,2.191,101.939,8.458
2026-05-22 16:46:14.371,1351913827,135371,1,-0.34058,-0.00342,0.79663,-1.725,65.901,-0.977
2026-05-22 16:46:14.371,1351913827,135371,2,0.34033,0.26709,1.33569,-1.427,70.374,5.405
2026-05-22 16:46:14.571,1351914027,135571,1,-0.45752,-0.16919,0.83643,-2.924,60.015,16.412
2026-05-22 16:46:14.571,1351914027,135571,2,0.14722,0.14087,1.46729,-26.626,38.939,-3.542
2026-05-22 16:46:14.771,1351914227,135771,1,-0.53906,-0.10547,0.5022,13.649,0.267,5.107
2026-05-22 16:46:14.771,1351914227,135771,2,0.06714,0.06641,1.49048,-7.29,4.977,0.13
2026-05-22 16:46:14.971,1351914427,135971,1,-0.64038,-0.03931,0.63892,2.847,0.679,2.542
2026-05-22 16:46:14.971,1351914427,135971,2,0.09229,0.03564,1.46582,0.237,-2.939,2.038
2026-05-22 16:46:15.171,1351914627,136171,1,-0.67041,-0.03564,0.74023,13.733,-33.969,17.954
2026-05-22 16:46:15.171,1351914627,136171,2,0.16064,0.15552,1.4436,47.42,-35.687,-1.267
2026-05-22 16:46:15.371,1351914827,136371,1,-0.51514,0.05884,0.86548,-6.244,-82.45,8.947
2026-05-22 16:46:15.371,1351914827,136371,2,0.39575,0.21753,1.30371,12.458,-95.13,14.42
2026-05-22 16:46:15.571,1351915027,136571,1,-0.06909,0.0083,0.81152,6.031,-119.886,11.954
2026-05-22 16:46:15.571,1351915027,136571,2,0.70166,0.25903,0.89722,38.58,-123.305,-7.198
2026-05-22 16:46:15.771,1351915227,136771,1,0.35498,0.06299,0.61523,2.794,-102.588,15.832
2026-05-22 16:46:15.771,1351915227,136771,2,0.85303,0.41357,0.50513,24.687,-113.733,-9.008
2026-05-22 16:46:15.971,1351915427,136971,1,0.61914,0.05029,0.50439,-14.214,-87.542,-8.076
2026-05-22 16:46:15.971,1351915427,136971,2,0.82495,0.43237,0.21436,11.626,-105.763,-10.626
2026-05-22 16:46:16.171,1351915627,137171,1,0.88672,0.05322,0.29907,-17.687,-60.137,-16.802
2026-05-22 16:46:16.171,1351915627,137171,2,0.80615,0.39087,0.00244,-8.267,-66.115,-0.756
2026-05-22 16:46:16.371,1351915827,137371,1,0.99243,0.04639,0.28271,-6.412,-18.977,-1.481
2026-05-22 16:46:16.371,1351915827,137371,2,0.76733,0.44458,-0.16479,-10.74,-14.664,3.649
2026-05-22 16:46:16.571,1351916027,137571,1,0.98022,0.0647,0.3103,3.893,7.061,4.672
2026-05-22 16:46:16.571,1351916027,137571,2,0.72363,0.45654,-0.11768,7.71,13.71,-2.313
2026-05-22 16:46:16.771,1351916227,137771,1,0.92529,0.04736,0.35132,-4.435,11.779,-1.863
2026-05-22 16:46:16.771,1351916227,137771,2,0.71851,0.42725,-0.09106,-13.282,9.061,6.954
2026-05-22 16:46:16.971,1351916427,137971,1,0.92261,0.05933,0.3811,6.893,10.733,1.336
2026-05-22 16:46:16.971,1351916427,137971,2,0.71606,0.47266,-0.09863,-16.366,7.588,-1.763
2026-05-22 16:46:17.171,1351916627,138171,1,0.87573,0.06714,0.40747,7.153,-4.542,3.031
2026-05-22 16:46:17.171,1351916627,138171,2,0.72095,0.48389,-0.04565,4.008,-2.977,-8.229
2026-05-22 16:46:17.371,1351916827,138371,1,0.89526,0.08105,0.39233,-4.733,-0.649,-0.733
2026-05-22 16:46:17.371,1351916827,138371,2,0.6792,0.55151,-0.05811,-3.786,-0.351,26.885
2026-05-22 16:46:17.571,1351917027,138571,1,0.8916,0.05615,0.38843,-15.611,2.969,-6.389
2026-05-22 16:46:17.571,1351917027,138571,2,0.73779,0.46582,-0.06348,-24.16,-10.099,14.885
2026-05-22 16:46:17.771,1351917227,138771,1,0.90112,0.04858,0.40649,-17.252,7.679,-7.344
2026-05-22 16:46:17.771,1351917227,138771,2,0.75293,0.46802,-0.02979,-25.573,-1.153,15.855
2026-05-22 16:46:17.971,1351917427,138971,1,0.90576,0.00122,0.43799,-16.366,10.176,-3.427
2026-05-22 16:46:17.971,1351917427,138971,2,0.7605,0.37891,-0.00171,-5.847,4.183,11.45
2026-05-22 16:46:18.171,1351917627,139171,1,0.84326,-0.06494,0.45459,-5.595,1.634,1.725
2026-05-22 16:46:18.171,1351917627,139171,2,0.78149,0.35669,-0.05591,0.771,-2.908,2.16
2026-05-22 16:46:18.371,1351917827,139371,1,0.88281,-0.03027,0.45288,4.305,-4.679,7.649
2026-05-22 16:46:18.371,1351917827,139371,2,0.7937,0.44116,-0.00488,8.252,-0.87,-3.931
2026-05-22 16:46:18.571,1351918027,139571,1,0.90063,-0.01416,0.43237,3.504,-5.145,4.351
2026-05-22 16:46:18.571,1351918027,139571,2,0.77588,0.47705,0.00366,4.779,2.198,-2.931
2026-05-22 16:46:18.771,1351918227,139771,1,0.88818,0.03467,0.41724,5.985,3.885,0.42
2026-05-22 16:46:18.771,1351918227,139771,2,0.77173,0.44702,0.00806,5.542,10.458,-0.206
2026-05-22 16:46:18.971,1351918427,139971,1,0.85425,0.03955,0.44849,6.527,5.603,0.641
2026-05-22 16:46:18.971,1351918427,139971,2,0.74487,0.45508,0.00122,3.794,7.634,-1.061
2026-05-22 16:46:19.171,1351918627,140171,1,0.84766,0.06543,0.44116,-0.214,-0.855,-2.481
2026-05-22 16:46:19.171,1351918627,140171,2,0.77588,0.42505,-0.00073,-2.824,-4.237,10.221
2026-05-22 16:46:19.371,1351918827,140371,1,0.85449,0.0752,0.43042,-26.275,-5.137,-8.924
2026-05-22 16:46:19.371,1351918827,140371,2,0.77197,0.4187,0.02588,-27.244,-15.137,36.924
2026-05-22 16:46:19.571,1351919027,140571,1,0.87939,0.01855,0.4104,-30.992,-4.45,-17.237
2026-05-22 16:46:19.571,1351919027,140571,2,0.83057,0.35352,-0.02246,-27.718,-7.366,26.641
2026-05-22 16:46:19.771,1351919227,140771,1,0.88574,0.0083,0.42285,-15.29,-1.58,-4.656
2026-05-22 16:46:19.771,1351919227,140771,2,0.8623,0.30566,-0.00903,-11.977,-1.588,11.099
2026-05-22 16:46:19.971,1351919427,140971,1,0.88574,0.00732,0.43042,-6.099,-0.344,-3.84
2026-05-22 16:46:19.971,1351919427,140971,2,0.8186,0.35278,-0.02295,-7.771,-1.389,2.389
2026-05-22 16:46:20.171,1351919627,141171,1,0.87305,0.0459,0.43408,-12.947,0.412,-14.42
2026-05-22 16:46:20.171,1351919627,141171,2,0.82227,0.37378,0.01318,-21.824,-4.977,9.061
2026-05-22 16:46:20.371,1351919827,141371,1,0.88257,0.07837,0.44385,-28.305,-4.947,-28.42
2026-05-22 16:46:20.371,1351919827,141371,2,0.81812,0.37622,0.00513,-37.008,-16.542,15.13
2026-05-22 16:46:20.571,1351920027,141571,1,0.8606,0.10986,0.40649,-40.763,-14.496,-34.962
2026-05-22 16:46:20.571,1351920027,141571,2,0.79565,0.3855,-0.02783,-51.473,-27.962,19.84
2026-05-22 16:46:20.771,1351920227,141771,1,0.92065,0.12695,0.34766,-65.618,-17.626,-49.779
2026-05-22 16:46:20.771,1351920227,141771,2,0.75488,0.39063,-0.05908,-75.817,-37.313,38.779
2026-05-22 16:46:20.971,1351920427,141971,1,0.93311,0.12085,0.32227,-83.069,-19.954,-55.733
2026-05-22 16:46:20.971,1351920427,141971,2,0.76636,0.3252,-0.10571,-73.565,-40.153,40.168
2026-05-22 16:46:21.171,1351920627,142171,1,0.96851,0.03833,0.29956,-33.687,-3.481,-9.611
2026-05-22 16:46:21.171,1351920627,142171,2,0.79565,0.30811,-0.10449,-15.176,1.061,8.008
2026-05-22 16:46:21.371,1351920827,142371,1,0.97461,-0.00806,0.31274,37.267,18.534,41.374
2026-05-22 16:46:21.371,1351920827,142371,2,0.80371,0.31323,-0.10034,39.985,35.084,-23.985
2026-05-22 16:46:21.571,1351921027,142571,1,0.90381,-0.03223,0.41602,56.931,13.489,61.176
2026-05-22 16:46:21.571,1351921027,142571,2,0.75488,0.39673,-0.08228,64.496,18.885,-37.29
2026-05-22 16:46:21.771,1351921227,142771,1,0.89893,-0.08862,0.38013,66.573,3.542,54.481
2026-05-22 16:46:21.771,1351921227,142771,2,0.77734,0.37183,-0.02466,63.802,32.45,-40.176
2026-05-22 16:46:21.971,1351921427,142971,1,0.88013,-0.00781,0.42749,55.618,0.947,40.863
2026-05-22 16:46:21.971,1351921427,142971,2,0.77539,0.47876,0.02026,46.366,26.313,-26.481
2026-05-22 16:46:22.171,1351921627,143171,1,0.90649,0.00562,0.39819,17.374,3.641,10.458
2026-05-22 16:46:22.171,1351921627,143171,2,0.78931,0.47632,0.04492,2.687,12.58,-2.237
2026-05-22 16:46:22.371,1351921827,143371,1,0.86841,0.00513,0.41626,-19.885,17.046,-10.076
2026-05-22 16:46:22.371,1351921827,143371,2,0.80884,0.38721,0.04614,-23.832,4.649,31.885
2026-05-22 16:46:22.571,1351922027,143571,1,0.84375,-0.052,0.4751,-38.962,15.878,-21.763
2026-05-22 16:46:22.571,1351922027,143571,2,0.83228,0.33154,0.0647,-40.107,0.076,35.687
2026-05-22 16:46:22.771,1351922227,143771,1,0.76611,-0.15942,0.54297,-10.176,4.481,-14.382
2026-05-22 16:46:22.771,1351922227,143771,2,0.86133,0.31177,0.10889,-14.023,-4.275,-3.565
2026-05-22 16:46:22.971,1351922427,143971,1,0.78516,-0.1416,0.51001,-17.802,-11.45,-26.305
2026-05-22 16:46:22.971,1351922427,143971,2,0.82446,0.31323,0.08252,-36.206,-25.626,3.511
2026-05-22 16:46:23.171,1351922627,144171,1,0.85547,-0.03027,0.45703,-40.939,-13.679,-49.527
2026-05-22 16:46:23.171,1351922627,144171,2,0.8501,0.33765,0.09351,-32.771,-17.427,21.656
2026-05-22 16:46:23.371,1351922827,144371,1,0.8147,0.06006,0.42041,-7.687,-1.405,-17.809
2026-05-22 16:46:23.371,1351922827,144371,2,0.79248,0.3269,0.1748,8.466,-9.672,19.771
2026-05-22 16:46:23.571,1351923027,144571,1,0.92334,0.10742,0.54126,18.053,-6.229,14.053
2026-05-22 16:46:23.571,1351923027,144571,2,0.84448,0.34619,0.06787,57.695,3.542,-22.718
2026-05-22 16:46:23.771,1351923227,144771,1,0.92993,0.12354,0.39917,44.267,0.42,35.435
2026-05-22 16:46:23.771,1351923227,144771,2,0.86328,0.38867,0.05176,20.962,23.977,-12.198
2026-05-22 16:46:23.971,1351923427,144971,1,0.87158,0.15137,0.44971,46.832,15.679,34.015
2026-05-22 16:46:23.971,1351923427,144971,2,0.83179,0.43726,0.04297,35.809,29.237,-25.221
2026-05-22 16:46:24.171,1351923627,145171,1,0.83252,0.13892,0.46753,17.855,9.282,14.672
2026-05-22 16:46:24.171,1351923627,145171,2,0.78931,0.43579,0.08594,3.687,2.511,-7.374
2026-05-22 16:46:24.371,1351923827,145371,1,0.85742,0.13184,0.46875,5.298,-4.443,11.939
