datetime,epoch_ms,ts_millis,mpu_id,ax,ay,az,gx,gy,gz
2026-06-02T16:41:55.861142,,,,,,,,,
2026-06-02T16:42:10.435850,,,,,,,,,
2026-06-02 16:42:10.339,2302069795,7339,1,0.3252,-1.00732,0.20435,30.618,36.13,15.023
2026-06-02 16:42:10.339,2302069795,7339,2,-0.63965,0.17773,1.2229,9.618,-42.947,-61.763
2026-06-02 16:42:10.539,2302069995,7539,1,0.51147,-0.60376,-0.1355,5.076,-67.412,-42.908
2026-06-02 16:42:10.539,2302069995,7539,2,-0.42139,0.13623,1.38159,-98.58,30.794,94.908
2026-06-02 16:42:10.739,2302070195,7739,1,0.67725,-0.60767,0.27417,146.817,-200.298,78.588
2026-06-02 16:42:10.739,2302070195,7739,2,-0.67163,0.21875,1.44385,-19.534,-20.29,177.71
2026-06-02 16:42:11.939,2302071395,7939,1,0.40527,-0.8855,-0.29663,-5.626,20.198,-12.443
2026-06-02 16:42:11.939,2302071395,7939,2,-0.49927,0.29419,1.28955,1.206,-33.473,15.229
2026-06-02 16:42:11.139,2302070595,8139,1,0.60742,-0.80273,-0.25317,-7.748,9.099,-15.13
2026-06-02 16:42:11.139,2302070595,8139,2,-0.37793,0.26074,1.34155,3.489,0.374,0.84
2026-06-02 16:42:11.339,2302070795,8339,1,0.71777,-0.69604,-0.35107,22.366,-51.901,6.832
2026-06-02 16:42:11.339,2302070795,8339,2,-0.38281,0.2666,1.30493,-7.687,-2.679,10.527
2026-06-02 16:42:11.539,2302070995,8539,1,0.55176,-0.74585,-0.28101,40.58,-45.939,38.969
2026-06-02 16:42:11.539,2302070995,8539,2,-0.35327,0.27075,1.2666,-4.55,8.748,12.069
2026-06-02 16:42:11.739,2302071195,8739,1,0.50171,-0.82446,-0.12964,7.985,-9.733,-3.107
2026-06-02 16:42:11.739,2302071195,8739,2,-0.37891,0.24756,1.29077,14.817,-19.45,14.099
2026-06-02 16:42:12.939,2302072395,8939,1,0.65601,-1.10278,-0.34399,2.511,2.015,-2.336
2026-06-02 16:42:12.939,2302072395,8939,2,-0.49146,0.25391,1.37109,22.038,-24.916,15.412
2026-06-02 16:42:12.139,2302071595,9139,1,0.7981,-0.97656,-0.5271,-8.641,53.931,-22.863
2026-06-02 16:42:12.139,2302071595,9139,2,-0.41235,0.31763,1.23193,-11.458,-3.282,-25.802
2026-06-02 16:42:12.339,2302071795,9339,1,0.77026,-0.72192,-0.13501,1.031,98.237,-7.992
2026-06-02 16:42:12.339,2302071795,9339,2,-0.46021,0.13794,1.52319,58.542,-92.412,-73.71
2026-06-02 16:42:12.539,2302071995,9539,1,0.69482,-0.88696,-0.10498,-20.802,27.763,-30.885
2026-06-02 16:42:12.539,2302071995,9539,2,-0.52734,-0.02563,1.37939,40.374,-15.053,2.87
2026-06-02 16:42:12.739,2302072195,9739,1,0.68506,-0.71997,0.2019,-5.405,4.863,-29.969
2026-06-02 16:42:12.739,2302072195,9739,2,-0.38916,0.12012,1.44897,-33.885,25.603,43.695
2026-06-02 16:42:13.939,2302073395,9939,1,0.73706,-0.58276,0.17871,5.023,5.412,-25.588
2026-06-02 16:42:13.939,2302073395,9939,2,-0.28979,-0.28491,1.41455,-96.802,-28.122,-112.397
2026-06-02 16:42:18.087,2302077543,15087,1,0.45776,-0.8689,-0.69043,26.992,-30.954,-75.809
2026-06-02 16:42:18.087,2302077543,15087,2,-0.07739,-0.9729,0.50928,-8.916,-10.809,-0.725
2026-06-02 16:42:18.287,2302077743,15287,1,0.56396,-0.78833,-0.55811,11.366,-12.237,-9.771
2026-06-02 16:42:18.287,2302077743,15287,2,-0.06299,-0.99146,0.49243,4.168,1.046,7.191
2026-06-02 16:42:18.487,2302077943,15487,1,0.59009,-0.83008,-0.52002,3.16,-10.969,-15.183
2026-06-02 16:42:18.487,2302077943,15487,2,-0.0835,-0.98169,0.48755,-5.405,-3.137,9.153
2026-06-02 16:42:18.687,2302078143,15687,1,0.61694,-0.7478,-0.58081,-4.16,-22.863,-14.267
2026-06-02 16:42:18.687,2302078143,15687,2,-0.08667,-0.97095,0.44507,15.053,9.481,-6.344
2026-06-02 16:42:19.887,2302079343,15887,1,0.6145,-0.75171,-0.64819,-24.107,26.916,1.16
2026-06-02 16:42:19.887,2302079343,15887,2,-0.10913,-0.98047,0.50928,4.824,12.71,-4.947
2026-06-02 16:42:19.087,2302078543,16087,1,0.52515,-0.7666,-0.6311,-17.565,3.397,23.183
2026-06-02 16:42:19.087,2302078543,16087,2,-0.08594,-0.98682,0.49561,0.939,11.672,0.405
2026-06-02 16:42:19.287,2302078743,16287,1,0.49536,-0.78687,-0.64453,4.221,-2.824,-0.198
2026-06-02 16:42:19.287,2302078743,16287,2,-0.08667,-0.96753,0.54053,0.687,1.252,3.336
2026-06-02 16:42:19.487,2302078943,16487,1,0.47656,-0.84766,-0.57349,40.275,3.779,4.756
2026-06-02 16:42:19.487,2302078943,16487,2,-0.09668,-0.96387,0.51978,-8.695,-9.824,-0.496
2026-06-02 16:42:19.687,2302079143,16687,1,0.50024,-0.86621,-0.52148,4.13,1.427,-2.298
2026-06-02 16:42:19.687,2302079143,16687,2,-0.09253,-0.97632,0.51074,-4.313,-5.458,-1.069
2026-06-02 16:42:20.887,2302080343,16887,1,0.49292,-0.86401,-0.51416,-5.901,1.092,-0.466
2026-06-02 16:42:20.887,2302080343,16887,2,-0.07251,-0.96899,0.51587,2.664,1.115,1.397
2026-06-02 16:42:20.151,2302079607,17151,1,0.49536,-0.83301,-0.55469,-5.267,-0.076,-2.649
2026-06-02 16:42:20.151,2302079607,17151,2,-0.07422,-0.9856,0.52441,0.305,-1.687,1.809
2026-06-02 16:42:20.351,2302079807,17351,1,0.50293,-0.85229,-0.5271,1.718,-4.618,-2.924
2026-06-02 16:42:20.351,2302079807,17351,2,-0.06982,-0.97046,0.52637,-5.779,-5.122,1.374
2026-06-02 16:42:20.551,2302080007,17551,1,0.49976,-0.86035,-0.51245,1.053,-1.305,-2.466
2026-06-02 16:42:20.551,2302080007,17551,2,-0.0647,-0.96924,0.50635,-3.687,-0.534,1.16
2026-06-02 16:42:20.751,2302080207,17751,1,0.49829,-0.8623,-0.52832,2.107,7.405,9.893
2026-06-02 16:42:20.751,2302080207,17751,2,-0.06177,-0.96875,0.50732,-1.611,-2.168,2.847
2026-06-02 16:42:21.951,2302081407,17951,1,0.35303,-0.86523,-0.52148,56.534,-79.237,59.626
2026-06-02 16:42:21.951,2302081407,17951,2,-0.06104,-0.96948,0.47876,-4.74,6.321,-0.397
2026-06-02 16:42:21.151,2302080607,18151,1,0.01538,-1.12622,-0.03198,172.931,-196.519,126.901
2026-06-02 16:42:21.151,2302080607,18151,2,-0.11987,-0.9353,0.48779,8.321,25.626,5.779
2026-06-02 16:42:21.351,2302080807,18351,1,-0.34106,-0.82642,0.26001,20.435,-28.076,26.992
2026-06-02 16:42:21.351,2302080807,18351,2,0.01367,-0.92822,0.38354,3.038,30.901,5.0
2026-06-02 16:42:21.551,2302081007,18551,1,-0.3186,-0.73462,0.36938,-4.542,7.565,-15.496
2026-06-02 16:42:21.551,2302081007,18551,2,-0.03296,-0.99438,0.49243,8.137,16.145,2.458
2026-06-02 16:42:21.751,2302081207,18751,1,-0.37354,-0.80933,0.30713,-33.183,40.679,-27.779
2026-06-02 16:42:21.751,2302081207,18751,2,-0.03149,-0.98315,0.49707,5.267,9.626,2.061
2026-06-02 16:42:22.951,2302082407,18951,1,-0.33057,-0.85156,0.24023,2.763,7.618,-6.809
2026-06-02 16:42:22.951,2302082407,18951,2,-0.02563,-0.97632,0.50781,6.29,2.916,2.962
2026-06-02 16:42:22.151,2302081607,19151,1,-0.28418,-0.86694,0.21655,-6.565,-0.664,-3.015
2026-06-02 16:42:22.151,2302081607,19151,2,-0.03418,-0.97632,0.50977,-2.458,-4.389,0.679
2026-06-02 16:42:22.351,2302081807,19351,1,-0.26099,-0.89209,0.19482,-10.366,0.008,-4.374
2026-06-02 16:42:22.351,2302081807,19351,2,-0.03784,-0.96191,0.51733,-8.878,-14.298,3.023
2026-06-02 16:42:22.551,2302082007,19551,1,-0.36914,-0.81177,0.12988,-14.519,-72.427,15.015
2026-06-02 16:42:22.551,2302082007,19551,2,-0.00317,-0.9707,0.53125,-2.328,1.412,1.634
2026-06-02 16:42:22.751,2302082207,19751,1,-0.25244,-1.03369,0.09961,57.183,-164.534,107.473
2026-06-02 16:42:22.751,2302082207,19751,2,-0.01929,-1.01465,0.73975,40.26,40.45,-14.672
2026-06-02 16:42:23.951,2302083407,19951,1,0.18066,-0.7915,0.1438,-57.466,-97.252,17.351
2026-06-02 16:42:23.951,2302083407,19951,2,0.19995,-1.19458,0.82568,18.756,-30.71,-48.359
2026-06-02 16:42:23.151,2302082607,20151,1,0.28345,-1.12939,0.00879,-218.71,151.168,-164.176
2026-06-02 16:42:23.151,2302082607,20151,2,0.12915,-0.75293,0.78418,78.466,6.802,-1.076
2026-06-02 16:42:23.351,2302082807,20351,1,0.58105,-0.82739,-0.21973,95.466,33.992,-58.389
2026-06-02 16:42:23.351,2302082807,20351,2,0.18018,-1.03442,0.86426,-7.275,120.947,18.153
2026-06-02 16:42:23.551,2302083007,20551,1,0.90088,-0.62305,0.1311,9.87,23.786,-30.351
2026-06-02 16:42:23.551,2302083007,20551,2,0.33936,-0.89136,0.67456,-35.542,15.779,-2.863
2026-06-02 16:42:23.751,2302083207,20751,1,0.87769,-0.50269,0.09595,-12.374,-30.412,-63.634
2026-06-02 16:42:23.751,2302083207,20751,2,-0.02612,-0.58594,0.479,-21.206,191.748,25.832
2026-06-02 16:42:24.951,2302084407,20951,1,0.85718,-0.19238,-0.68604,-154.031,-38.847,-43.046
2026-06-02 16:42:24.951,2302084407,20951,2,0.11304,-0.83765,0.91797,-38.718,86.855,-34.679
2026-06-02 16:42:24.151,2302083607,21151,1,1.01392,-0.7019,-0.69238,-111.481,75.16,7.176
2026-06-02 16:42:24.151,2302083607,21151,2,-0.01123,-0.91382,0.71924,-23.71,-22.427,10.244
2026-06-02 16:42:24.351,2302083807,21351,1,0.75,-0.39429,-0.35596,-1.519,-91.435,48.344
2026-06-02 16:42:24.351,2302083807,21351,2,-0.49902,-0.50415,0.44458,-62.069,-86.275,54.076
2026-06-02 16:42:24.551,2302084007,21551,1,1.05933,-0.76123,-0.56787,-26.649,18.725,-28.046
2026-06-02 16:42:24.551,2302084007,21551,2,-0.10059,-0.94897,0.52124,-27.542,-58.427,-10.374
2026-06-02 16:42:24.751,2302084207,21751,1,0.97681,-0.29492,-0.33325,133.252,-28.901,28.076
2026-06-02 16:42:24.751,2302084207,21751,2,-0.05225,-0.99707,0.60278,21.389,34.038,9.733
2026-06-02 16:42:25.951,2302085407,21951,1,0.28467,-1.56543,-0.54443,18.405,-71.015,40.153
2026-06-02 16:42:25.951,2302085407,21951,2,-0.19141,-0.88867,0.82129,81.695,-14.237,30.443
2026-06-02 16:42:25.151,2302084607,22151,1,0.21924,-1.13574,-0.17529,65.023,-107.954,59.534
2026-06-02 16:42:25.151,2302084607,22151,2,-0.16455,-0.66968,1.19263,96.496,2.412,26.137
2026-06-02 16:42:25.423,2302084879,22423,1,0.16797,-0.76758,-0.16528,-81.656,-87.527,-19.611
2026-06-02 16:42:25.423,2302084879,22423,2,-0.06519,-0.37939,1.40332,29.359,4.908,3.618
2026-06-02 16:42:25.623,2302085079,22623,1,0.34937,-1.5957,-1.22949,-8.542,54.954,-56.313
2026-06-02 16:42:25.623,2302085079,22623,2,0.04468,-0.42163,1.2041,-19.466,2.611,6.389
2026-06-02 16:42:26.823,2302086279,22823,1,0.64526,-0.72705,-0.13135,-13.244,51.725,-65.412
2026-06-02 16:42:26.823,2302086279,22823,2,0.05347,-0.45044,1.32446,6.076,6.847,-4.496
2026-06-02 16:42:26.023,2302085479,23023,1,0.96631,-0.72192,-0.59448,-11.389,8.473,-43.58
2026-06-02 16:42:26.023,2302085479,23023,2,0.11914,-0.53149,1.46289,1.13,-3.679,-14.336
2026-06-02 16:42:26.223,2302085679,23223,1,0.90186,-0.2998,-0.02734,24.092,-25.145,35.053
2026-06-02 16:42:26.223,2302085679,23223,2,0.13257,-0.3042,1.146,4.008,-13.221,-11.893
2026-06-02 16:42:26.423,2302085879,23423,1,0.81812,-0.61255,-0.12451,4.031,14.389,10.893
2026-06-02 16:42:26.423,2302085879,23423,2,0.16333,-0.30957,1.2937,-19.847,16.618,16.504
2026-06-02 16:42:26.639,2302086095,23639,1,0.61841,-0.55493,-0.1228,-23.992,28.71,4.664
2026-06-02 16:42:26.639,2302086095,23639,2,0.08813,-0.43042,1.24731,-59.962,46.733,65.725
2026-06-02 16:42:27.839,2302087295,23839,1,0.81323,-0.83154,-0.29468,-45.786,68.092,17.252
2026-06-02 16:42:27.839,2302087295,23839,2,0.02905,-0.57886,1.10938,-41.13,-35.214,33.252
2026-06-02 16:42:27.039,2302086495,24039,1,0.78638,-0.81812,-0.04883,9.565,-6.275,6.183
2026-06-02 16:42:27.039,2302086495,24039,2,0.11401,-0.80957,1.15991,-3.771,3.786,-9.931
2026-06-02 16:42:27.239,2302086695,24239,1,0.65308,-0.78076,-0.05762,16.679,16.763,3.893
2026-06-02 16:42:27.239,2302086695,24239,2,0.06226,-0.61572,1.18066,-10.458,3.534,-0.634
2026-06-02 16:42:27.439,2302086895,24439,1,0.68506,-0.80371,-0.06982,2.313,15.153,-10.74
2026-06-02 16:42:27.439,2302086895,24439,2,0.09546,-0.68335,1.05493,8.389,-10.595,3.237
2026-06-02 16:42:27.639,2302087095,24639,1,0.69141,-0.74438,0.08374,1.588,-5.328,0.504
2026-06-02 16:42:27.639,2302087095,24639,2,0.08301,-0.64014,1.1438,-3.328,-2.008,-9.122
2026-06-02 16:42:28.839,2302088295,24839,1,0.72705,-0.76538,0.04321,-1.634,-14.916,-12.298
2026-06-02 16:42:28.839,2302088295,24839,2,0.12671,-0.66431,1.16357,8.214,-4.351,-16.107
2026-06-02 16:42:28.039,2302087495,25039,1,0.69922,-0.35352,0.24243,35.458,-123.626,152.45
2026-06-02 16:42:28.039,2302087495,25039,2,0.18579,-0.53906,1.40967,9.069,-61.87,-39.977
2026-06-02 16:42:28.239,2302087695,25239,1,0.66431,-0.55469,-0.18604,-114.267,87.412,-137.618
2026-06-02 16:42:28.239,2302087695,25239,2,0.36328,-0.73828,1.23315,2.076,2.534,-5.344
2026-06-02 16:42:28.439,2302087895,25439,1,0.95117,-0.74243,-0.03271,-42.13,184.626,45.191
2026-06-02 16:42:28.439,2302087895,25439,2,0.46948,-0.56714,1.0874,74.878,-2.008,-66.153
2026-06-02 16:42:28.639,2302088095,25639,1,0.81567,-0.5957,0.07349,131.931,-25.489,28.015
2026-06-02 16:42:28.639,2302088095,25639,2,0.20801,-0.09253,1.229,25.611,51.824,-66.344
2026-06-02 16:42:29.839,2302089295,25839,1,0.73755,-0.44312,0.39453,-126.313,54.298,-147.534
2026-06-02 16:42:29.839,2302089295,25839,2,0.21338,-0.82324,1.11157,4.924,188.855,74.153
2026-06-02 16:42:29.039,2302088495,26039,1,0.82593,-0.03125,0.60498,65.389,-81.649,104.573
2026-06-02 16:42:29.039,2302088495,26039,2,0.12891,-0.19189,1.36792,-10.557,-32.756,7.397
2026-06-02 16:42:29.239,2302088695,26239,1,0.84668,-0.46021,0.32642,55.763,-34.206,65.473
2026-06-02 16:42:29.239,2302088695,26239,2,-0.42285,-0.38184,1.21216,-4.328,-1.863,-8.985
2026-06-02 16:42:29.439,2302088895,26439,1,0.8855,-0.41602,0.18896,5.237,-55.412,-7.969
2026-06-02 16:42:29.439,2302088895,26439,2,0.052,-0.39795,1.26636,1.511,15.771,28.145
2026-06-02 16:42:29.639,2302089095,26639,1,0.95117,-0.34766,-0.0144,-7.679,-65.992,50.992
2026-06-02 16:42:29.639,2302089095,26639,2,-0.2146,-0.34009,1.45215,-14.099,-61.718,-18.153
2026-06-02 16:42:30.839,2302090295,26839,1,0.95044,-0.42944,0.2793,15.412,-50.595,21.29
2026-06-02 16:42:30.839,2302090295,26839,2,-0.18604,-0.33643,1.34424,26.267,-22.29,40.397
2026-06-02 16:42:30.039,2302089495,27039,1,0.88281,-0.50317,0.12573,-11.672,23.031,-15.931
2026-06-02 16:42:30.039,2302089495,27039,2,-0.10107,-0.04565,1.33374,36.489,-2.298,-2.74
2026-06-02 16:42:30.239,2302089695,27239,1,0.83276,-0.49878,0.073,-75.611,24.328,6.229
2026-06-02 16:42:30.239,2302089695,27239,2,-0.13989,-0.30444,1.26074,-2.359,19.206,-19.771
2026-06-02 16:42:30.439,2302089895,27439,1,0.93164,-0.6311,0.13501,-29.733,44.076,13.183
2026-06-02 16:42:30.439,2302089895,27439,2,-0.18164,-0.24878,1.40747,-25.427,-43.221,-3.634
2026-06-02 16:42:30.639,2302090095,27639,1,0.65698,-0.42529,0.09302,34.084,5.893,3.542
2026-06-02 16:42:30.639,2302090095,27639,2,-0.15259,-0.13013,1.14014,-51.443,-21.84,12.771
2026-06-02 16:42:31.839,2302091295,27839,1,0.90967,-0.76196,0.41382,-48.107,57.397,-20.603
2026-06-02 16:42:31.839,2302091295,27839,2,-0.26807,-0.57129,1.62378,30.008,47.832,-48.595
2026-06-02 16:42:31.039,2302090495,28039,1,0.82764,-0.60376,0.01709,-20.321,-63.618,-44.267
2026-06-02 16:42:31.039,2302090495,28039,2,-0.11206,-0.32324,1.37964,19.985,6.084,38.061
2026-06-02 16:42:31.239,2302090695,28239,1,0.8938,-0.42383,-0.20874,75.046,-52.053,60.817
2026-06-02 16:42:31.239,2302090695,28239,2,-0.27075,-0.19482,1.47925,6.611,31.618,-1.939
2026-06-02 16:42:31.439,2302090895,28439,1,0.84033,-0.54761,0.00195,-21.588,18.664,-3.603
2026-06-02 16:42:31.439,2302090895,28439,2,-0.20728,-0.45361,1.40479,-56.298,-31.588,89.412
2026-06-02 16:42:31.670,2302091126,28670,1,1.0022,-0.6731,-0.04224,6.237,-3.641,-7.023
2026-06-02 16:42:31.670,2302091126,28670,2,-0.30225,-0.30835,1.5564,33.458,-20.374,-13.893
2026-06-02 16:42:32.870,2302092326,28870,1,0.90552,0.07153,0.10962,-250.137,116.634,-213.58
2026-06-02 16:42:32.870,2302092326,28870,2,-0.19971,-0.18359,1.22461,3.405,79.359,30.481
2026-06-02 16:42:32.070,2302091526,29070,1,0.6875,-0.50391,0.35474,26.443,-52.374,-12.542
2026-06-02 16:42:32.070,2302091526,29070,2,-0.30957,-0.30347,1.15454,-30.809,-22.405,-24.626
2026-06-02 16:42:32.270,2302091726,29270,1,1.24536,0.02246,-0.22754,-85.908,55.473,130.519
2026-06-02 16:42:32.270,2302091726,29270,2,-0.13647,-0.18872,1.48438,-50.855,-98.802,-108.374
2026-06-02 16:42:32.470,2302091926,29470,1,0.55347,-0.51733,0.59302,22.595,-65.359,-30.015
2026-06-02 16:42:32.470,2302091926,29470,2,-0.40454,-0.56372,1.14404,-26.382,56.16,73.015
2026-06-02 16:42:32.670,2302092126,29670,1,1.02295,-0.42505,0.12354,18.237,-13.794,-26.092
2026-06-02 16:42:32.670,2302092126,29670,2,-0.18164,-0.20654,1.54517,48.038,28.473,-25.069
2026-06-02 16:42:33.870,2302093326,29870,1,1.05225,-0.31372,-0.07031,-38.298,-41.527,-44.817
2026-06-02 16:42:33.870,2302093326,29870,2,-0.26563,-0.40112,1.41821,34.496,-160.611,74.511
2026-06-02 16:42:33.070,2302092526,30070,1,1.0415,-0.11206,-0.13477,-126.45,29.443,-41.954
2026-06-02 16:42:33.070,2302092526,30070,2,-0.45239,-0.0188,1.24854,-14.214,9.763,35.786
2026-06-02 16:42:33.270,2302092726,30270,1,1.00879,-0.18555,-0.03223,-155.153,2.344,-108.42
2026-06-02 16:42:33.270,2302092726,30270,2,-0.18921,-0.49756,0.9646,-32.618,178.641,38.42
2026-06-02 16:42:33.470,2302092926,30470,1,1.05469,0.08154,-0.01489,3.275,-26.412,-12.366
2026-06-02 16:42:33.470,2302092926,30470,2,-0.43677,-0.21582,1.35132,-21.237,-128.557,-35.519
2026-06-02 16:42:33.670,2302093126,30670,1,1.0957,0.29761,-0.11792,-76.305,-21.481,-77.13
2026-06-02 16:42:33.670,2302093126,30670,2,-0.41821,-0.23975,1.20532,-6.962,36.824,18.534
2026-06-02 16:42:34.870,2302094326,30870,1,0.96899,0.35498,-0.03247,-177.656,13.527,-116.214
2026-06-02 16:42:34.870,2302094326,30870,2,-0.20313,-0.42407,1.33838,-3.389,110.71,2.038
2026-06-02 16:42:34.070,2302093526,31070,1,0.87305,0.44092,0.24414,-27.977,1.878,-7.809
2026-06-02 16:42:34.070,2302093526,31070,2,-0.32471,-0.31689,1.37476,-9.565,-98.214,-26.977
2026-06-02 16:42:34.270,2302093726,31270,1,0.88452,0.44482,0.26196,75.931,-16.496,59.275
2026-06-02 16:42:34.270,2302093726,31270,2,-0.42334,-0.37891,1.11353,-3.641,24.519,6.985
2026-06-02 16:42:34.470,2302093926,31470,1,1.01221,0.26685,0.06055,6.649,-5.466,22.71
2026-06-02 16:42:34.470,2302093926,31470,2,-0.13599,-0.12842,1.5415,-2.71,17.351,-26.87
2026-06-02 16:42:34.670,2302094126,31670,1,1.02856,0.26978,-0.01099,215.092,-49.786,122.885
2026-06-02 16:42:34.670,2302094126,31670,2,-0.12183,-0.65161,1.16748,-6.427,-42.382,-4.931
2026-06-02 16:42:35.870,2302095326,31870,1,1.05322,-0.32788,-0.12354,193.718,-33.107,85.114
2026-06-02 16:42:35.870,2302095326,31870,2,-0.23901,-0.02515,1.37524,-25.458,6.969,-10.061
2026-06-02 16:42:35.070,2302094526,32070,1,0.98022,-0.41089,-0.07544,55.023,-9.611,26.137
2026-06-02 16:42:35.070,2302094526,32070,2,-0.04297,-0.49023,1.23877,-9.687,24.046,-42.443
2026-06-02 16:42:35.270,2302094726,32270,1,0.29272,-0.80542,0.24951,111.092,-16.496,-91.397
2026-06-02 16:42:35.270,2302094726,32270,2,-0.15186,-0.13989,1.17969,-20.931,59.802,102.13
2026-06-02 16:42:35.470,2302094926,32470,1,0.68481,-0.26685,0.68262,-29.382,44.435,62.244
2026-06-02 16:42:35.470,2302094926,32470,2,-0.4978,-0.4917,0.82983,-5.168,-64.664,-4.664
2026-06-02 16:42:35.670,2302095126,32670,1,0.88892,-0.2854,0.0564,26.695,26.092,3.397
2026-06-02 16:42:35.670,2302095126,32670,2,0.0686,-0.22607,1.22314,-39.13,29.023,-70.015
2026-06-02 16:42:36.870,2302096326,32870,1,0.6416,-0.82568,0.39063,-64.351,70.458,-5.061
2026-06-02 16:42:36.870,2302096326,32870,2,-0.08154,-0.58789,1.56738,-1.473,106.046,8.901
2026-06-02 16:42:36.070,2302095526,33070,1,0.7207,-0.38989,0.2644,-11.656,-32.382,3.84
2026-06-02 16:42:36.070,2302095526,33070,2,0.08447,-0.30444,1.3479,-6.634,6.954,-89.939
2026-06-02 16:42:36.270,2302095726,33270,1,0.90308,-1.13647,-0.29297,44.122,-35.855,50.977
2026-06-02 16:42:36.270,2302095726,33270,2,-0.12744,-0.64282,1.07153,-34.885,-72.504,-47.282
2026-06-02 16:42:36.470,2302095926,33470,1,0.84595,-0.4397,0.31421,107.45,-5.992,-73.832
2026-06-02 16:42:36.470,2302095926,33470,2,0.16943,-0.35425,1.7439,38.832,19.542,-63.695
2026-06-02 16:42:36.670,2302096126,33670,1,0.86304,-0.45068,0.32764,-45.26,-7.748,1.412
2026-06-02 16:42:36.670,2302096126,33670,2,0.06641,-0.59839,1.61401,37.29,-6.359,107.847
2026-06-02 16:42:37.870,2302097326,33870,1,1.02075,-0.28369,-0.46753,181.763,-19.053,65.71
2026-06-02 16:42:37.870,2302097326,33870,2,0.14844,-0.33936,1.49072,50.695,-12.878,20.153
2026-06-02 16:42:37.070,2302096526,34070,1,0.72388,-0.61011,-0.06982,-161.802,-51.183,71.771
2026-06-02 16:42:37.070,2302096526,34070,2,-0.1499,-0.36597,1.41821,-4.137,-78.176,48.84
2026-06-02 16:42:37.270,2302096726,34270,1,0.96338,-0.01392,0.05371,64.076,-4.656,74.351
2026-06-02 16:42:37.270,2302096726,34270,2,0.07935,-0.36475,1.59155,40.534,49.122,-4.985
2026-06-02 16:42:37.470,2302096926,34470,1,0.9585,-0.60767,-0.40942,-51.618,15.985,-22.168
2026-06-02 16:42:37.470,2302096926,34470,2,-0.03052,-0.50513,1.31812,-6.969,-62.321,58.573
2026-06-02 16:42:37.670,2302097126,34670,1,0.91577,-0.35181,-0.40088,-42.527,30.855,-37.916
2026-06-02 16:42:37.670,2302097126,34670,2,-0.26782,-0.41455,1.30591,-0.84,-41.588,-24.412
2026-06-02 16:42:38.870,2302098326,34870,1,1.09448,-0.0874,-0.46875,-23.214,38.344,-1.374
2026-06-02 16:42:38.870,2302098326,34870,2,-0.07129,-0.32544,1.24878,-20.527,2.092,-13.489
2026-06-02 16:42:38.070,2302097526,35070,1,0.97119,-0.36719,-0.26953,55.908,100.252,120.947
2026-06-02 16:42:38.070,2302097526,35070,2,-0.09741,-0.49731,1.35156,-10.763,-48.0,-48.42
2026-06-02 16:42:38.270,2302097726,35270,1,0.68213,-0.37817,0.21191,62.779,76.328,109.252
2026-06-02 16:42:38.270,2302097726,35270,2,0.03247,-0.35107,1.23486,-26.519,-69.382,55.519
2026-06-02 16:42:38.470,2302097926,35470,1,0.21143,-0.4812,0.76733,54.611,-40.969,-52.992
2026-06-02 16:42:38.470,2302097926,35470,2,-0.04883,-0.63989,1.00684,11.366,109.687,65.924
2026-06-02 16:42:38.670,2302098126,35670,1,0.53833,-0.17383,0.26563,-5.443,-49.389,-92.214
2026-06-02 16:42:38.670,2302098126,35670,2,0.02612,-0.33301,1.14478,-48.229,114.206,31.298
2026-06-02 16:42:39.870,2302099326,35870,1,0.37061,-0.30835,0.47485,-33.924,55.427,37.282
2026-06-02 16:42:39.870,2302099326,35870,2,0.02271,-0.51123,1.27002,-59.176,-126.573,-58.55
2026-06-02 16:42:39.070,2302098526,36070,1,0.39746,-0.69238,0.87646,-210.863,164.328,-89.649
2026-06-02 16:42:39.070,2302098526,36070,2,-0.03418,-0.89233,0.84302,-63.786,116.649,20.786
2026-06-02 16:42:39.270,2302098726,36270,1,0.23608,-0.41284,0.85693,81.985,59.931,-33.641
2026-06-02 16:42:39.270,2302098726,36270,2,0.41211,-0.46533,0.93384,0.29,-41.84,-41.351
2026-06-02 16:42:39.470,2302098926,36470,1,-0.08472,-0.57446,0.81006,13.191,115.542,39.725
2026-06-02 16:42:39.470,2302098926,36470,2,0.09155,-0.82031,1.11523,-1.046,14.481,16.405
2026-06-02 16:42:39.670,2302099126,36670,1,-0.15967,-0.51978,0.66235,-22.046,43.374,52.069
2026-06-02 16:42:39.670,2302099126,36670,2,-0.01563,-0.79663,1.05664,-6.489,31.053,15.863
2026-06-02 16:42:40.870,2302100326,36870,1,-0.45239,-0.65991,0.46313,-39.55,27.008,73.374
2026-06-02 16:42:40.870,2302100326,36870,2,0.04492,-0.82495,0.90625,21.519,-2.794,12.305
2026-06-02 16:42:40.070,2302099526,37070,1,-0.31323,-0.42358,0.62402,4.008,10.931,31.0
2026-06-02 16:42:40.070,2302099526,37070,2,-0.16138,-0.77563,0.94141,-19.756,10.992,-8.282
2026-06-02 16:42:40.270,2302099726,37270,1,-0.35034,-0.49097,0.74902,2.733,-0.893,18.206
2026-06-02 16:42:40.270,2302099726,37270,2,-0.20337,-0.77271,0.9021,28.939,28.786,50.145
2026-06-02 16:42:40.470,2302099926,37470,1,-0.36841,-0.49927,0.67334,-50.641,26.061,5.672
2026-06-02 16:42:40.470,2302099926,37470,2,-0.32202,-0.81201,0.90259,-4.756,10.802,20.893
2026-06-02 16:42:40.670,2302100126,37670,1,-0.39697,-0.50952,0.52637,0.069,-15.206,4.115
2026-06-02 16:42:40.670,2302100126,37670,2,-0.31885,-0.78906,0.8313,-13.931,9.885,4.87
2026-06-02 16:42:41.870,2302101326,37870,1,-0.40161,-0.52051,0.63989,8.824,9.656,-4.557
2026-06-02 16:42:41.870,2302101326,37870,2,-0.33203,-0.77173,0.84692,-14.626,3.595,20.267
2026-06-02 16:42:41.070,2302100526,38070,1,-0.13647,-0.28223,1.1311,122.695,-236.519,-65.176
2026-06-02 16:42:41.070,2302100526,38070,2,-0.43018,-0.99805,0.85669,188.504,-182.649,39.702
2026-06-02 16:42:41.270,2302100726,38270,1,0.43408,0.24658,1.15894,-6.061,-234.489,204.847
2026-06-02 16:42:41.270,2302100726,38270,2,-0.03735,-0.48877,1.64063,192.756,153.214,110.321
2026-06-02 16:42:41.470,2302100926,38470,1,0.43628,-0.55176,0.12939,-161.626,-61.718,-9.908
2026-06-02 16:42:41.470,2302100926,38470,2,0.03955,-0.13599,1.55078,94.13,239.137,6.076
2026-06-02 16:42:41.670,2302101126,38670,1,0.89648,-0.56104,-0.18408,-19.924,3.504,-19.756
2026-06-02 16:42:41.670,2302101126,38670,2,0.07178,-0.08057,1.51172,10.298,-60.031,-10.901
2026-06-02 16:42:42.870,2302102326,38870,1,0.68066,-0.78101,0.27783,-3.985,-20.679,41.115
2026-06-02 16:42:42.870,2302102326,38870,2,-0.34326,-0.08911,1.17651,44.794,-125.985,48.229
2026-06-02 16:42:42.070,2302101526,39070,1,0.74487,-0.67578,0.19238,-101.794,53.534,-106.908
2026-06-02 16:42:42.070,2302101526,39070,2,-0.46118,0.25122,1.27881,34.267,-66.076,134.099
2026-06-02 16:42:42.270,2302101726,39270,1,1.01123,-0.21631,0.05225,20.16,29.947,-20.466
2026-06-02 16:42:42.270,2302101726,39270,2,-0.13452,0.07446,1.43994,-81.374,146.832,94.519
2026-06-02 16:42:42.470,2302101926,39470,1,0.85181,-0.38672,0.24097,-12.176,14.0,19.092
2026-06-02 16:42:42.470,2302101926,39470,2,-0.09863,0.07739,1.51245,5.298,-2.557,-28.176
2026-06-02 16:42:42.670,2302102126,39670,1,0.8772,-0.44995,0.12988,11.748,1.695,25.603
2026-06-02 16:42:42.670,2302102126,39670,2,-0.27637,-0.14819,1.48218,12.565,-55.443,-11.412
2026-06-02 16:42:43.870,2302103326,39870,1,0.83032,-0.55518,0.15503,28.305,9.634,26.267
2026-06-02 16:42:43.870,2302103326,39870,2,-0.20728,0.04712,1.38965,-29.023,53.305,17.267
2026-06-02 16:42:43.070,2302102526,40070,1,0.79834,-0.60571,0.28271,-2.092,-7.71,-20.908
2026-06-02 16:42:43.070,2302102526,40070,2,-0.08667,-0.04443,1.31665,-8.221,30.664,-9.359
2026-06-02 16:42:43.270,2302102726,40270,1,0.9126,-0.34668,0.21143,9.908,1.069,-33.076
2026-06-02 16:42:43.270,2302102726,40270,2,-0.11182,-0.31714,1.41528,-2.053,-38.45,-14.412
2026-06-02 16:42:43.470,2302102926,40470,1,0.79077,-0.46533,0.31567,34.405,-26.237,39.71
2026-06-02 16:42:43.470,2302102926,40470,2,-0.21704,-0.0813,1.37695,13.916,-45.321,11.397
2026-06-02 16:42:43.670,2302103126,40670,1,0.82544,-0.56763,0.26685,5.817,-19.183,4.504
2026-06-02 16:42:43.670,2302103126,40670,2,-0.19409,-0.09497,1.40332,-10.718,40.565,25.344
2026-06-02 16:42:44.870,2302104326,40870,1,0.81177,-0.5332,0.27783,2.313,-9.885,4.649
2026-06-02 16:42:44.870,2302104326,40870,2,-0.13574,-0.16382,1.45166,-14.16,7.412,-4.931
2026-06-02 16:42:44.070,2302103526,41070,1,0.78149,-0.53149,0.23828,15.725,-12.863,18.565
2026-06-02 16:42:44.070,2302103526,41070,2,-0.18823,-0.07959,1.41553,1.611,-7.084,9.687
2026-06-02 16:42:44.270,2302103726,41270,1,0.83838,-0.59253,0.2395,7.962,-10.427,10.55
2026-06-02 16:42:44.270,2302103726,41270,2,-0.25659,-0.14331,1.3877,-0.55,-2.29,18.511
2026-06-02 16:42:44.470,2302103926,41470,1,0.82007,-0.56128,0.25122,-2.282,-1.58,-1.763
2026-06-02 16:42:44.470,2302103926,41470,2,-0.16089,-0.15234,1.47656,-47.641,16.771,171.359
2026-06-02 16:42:44.670,2302104126,41670,1,0.66821,-0.56079,0.40601,94.282,-13.962,46.206
2026-06-02 16:42:44.670,2302104126,41670,2,-0.15527,-0.18408,1.1709,11.672,-85.183,-38.656
2026-06-02 16:42:45.870,2302105326,41870,1,0.61401,-0.54517,0.39331,30.015,27.443,48.885
2026-06-02 16:42:45.870,2302105326,41870,2,-0.42529,-0.05078,1.67139,18.405,7.733,-23.504
2026-06-02 16:42:45.070,2302104526,42070,1,0.7605,-0.53418,0.22168,-56.405,-17.191,-53.74
2026-06-02 16:42:45.070,2302104526,42070,2,-0.3606,-1.05786,1.82861,39.061,150.344,12.786
2026-06-02 16:42:45.270,2302104726,42270,1,0.78394,-0.20752,0.38965,-100.099,119.962,-153.275
2026-06-02 16:42:45.270,2302104726,42270,2,-0.42847,-0.53784,1.56421,2.29,115.412,31.412
2026-06-02 16:42:45.470,2302104926,42470,1,0.95972,-0.25024,0.26782,-142.008,14.824,-139.908
2026-06-02 16:42:45.470,2302104926,42470,2,0.37549,0.05762,1.33301,-40.916,102.321,92.313
2026-06-02 16:42:45.670,2302105126,42670,1,1.03809,-0.00977,0.46094,-67.908,-45.366,191.481
2026-06-02 16:42:45.670,2302105126,42670,2,-0.41797,-1.08203,1.42944,-57.695,-39.519,-92.038
2026-06-02 16:42:46.870,2302106326,42870,1,0.64307,-0.1626,0.54858,250.13,-66.519,53.427
2026-06-02 16:42:46.870,2302106326,42870,2,-0.18506,-0.21899,1.4231,86.321,12.435,20.29
2026-06-02 16:42:46.070,2302105526,43070,1,0.9939,-0.02808,0.48047,-96.725,-20.969,11.55
2026-06-02 16:42:46.070,2302105526,43070,2,-0.3396,-0.90869,1.59155,68.321,28.237,103.092
2026-06-02 16:42:46.270,2302105726,43270,1,0.88184,-0.58496,0.42383,31.298,-149.763,231.756
2026-06-02 16:42:46.270,2302105726,43270,2,-0.55737,-0.40186,1.31567,24.496,-148.664,-144.725
2026-06-02 16:42:46.470,2302105926,43470,1,0.5708,1.99994,0.48755,-226.382,250.13,-231.29
2026-06-02 16:42:46.470,2302105926,43470,2,0.04907,0.11572,1.50586,-56.206,-239.366,-56.687
2026-06-02 16:42:46.670,2302106126,43670,1,0.20581,0.44263,0.92383,116.847,-8.534,-181.954
2026-06-02 16:42:46.670,2302106126,43670,2,0.25488,-0.90625,1.99994,16.443,173.618,-5.473
2026-06-02 16:42:47.870,2302107326,43870,1,0.61377,-0.45068,-0.37939,-9.313,-214.618,-4.626
2026-06-02 16:42:47.870,2302107326,43870,2,0.08911,-0.19629,1.03833,-39.061,102.298,80.511
2026-06-02 16:42:47.070,2302106526,44070,1,1.26099,0.40039,-0.09204,38.13,-82.42,56.229
2026-06-02 16:42:47.070,2302106526,44070,2,-0.32617,-0.73022,1.05322,21.565,224.458,144.664
2026-06-02 16:42:47.270,2302106726,44270,1,1.16748,0.17334,-0.49976,37.58,6.198,-1.794
2026-06-02 16:42:47.270,2302106726,44270,2,-0.56787,-0.43604,1.08228,15.84,9.015,-71.557
2026-06-02 16:42:47.470,2302106926,44470,1,1.0332,-0.28833,-0.15771,-14.977,124.878,56.473
2026-06-02 16:42:47.470,2302106926,44470,2,-0.6416,-0.48584,0.95386,83.038,45.756,8.603
2026-06-02 16:42:47.670,2302107126,44670,1,0.99512,-0.01294,-0.08472,16.924,2.947,29.397
2026-06-02 16:42:47.670,2302107126,44670,2,-0.58032,-0.55103,1.00391,14.069,-0.557,-7.351
2026-06-02 16:42:48.870,2302108326,44870,1,1.09277,-0.28296,-0.23706,14.397,9.13,-3.573
2026-06-02 16:42:48.870,2302108326,44870,2,-0.65039,-0.50366,1.1311,27.687,12.504,7.389
2026-06-02 16:42:48.070,2302107526,45070,1,0.99097,-0.28833,-0.12646,-3.099,7.191,1.389
2026-06-02 16:42:48.070,2302107526,45070,2,-0.65698,-0.47583,1.05322,-9.595,-11.672,-15.198
2026-06-02 16:42:48.270,2302107726,45270,1,1.12671,-0.21558,-0.16064,64.405,-14.443,29.588
2026-06-02 16:42:48.270,2302107726,45270,2,-2.0,-0.89014,0.73462,54.015,125.0,145.878
2026-06-02 16:42:48.470,2302107926,45470,1,0.99829,-0.46362,-0.00977,20.656,25.099,8.099
2026-06-02 16:42:48.470,2302107926,45470,2,-0.90894,-0.03906,0.86133,5.496,-43.931,-59.298
2026-06-02 16:42:48.670,2302108126,45670,1,0.98267,-0.47339,-0.0752,4.649,-6.947,4.389
2026-06-02 16:42:48.670,2302108126,45670,2,-0.83447,-0.28467,1.09033,6.962,18.679,2.29
2026-06-02 16:42:49.870,2302109326,45870,1,1.02612,-0.47656,0.0083,-22.435,36.069,-4.954
2026-06-02 16:42:49.870,2302109326,45870,2,-0.81299,-0.20532,0.95654,-1.153,-1.237,-3.45
2026-06-02 16:42:49.070,2302108526,46070,1,0.95703,-0.27979,-0.0708,-26.931,-58.244,9.893
2026-06-02 16:42:49.070,2302108526,46070,2,-0.68604,-0.36182,0.97583,-8.183,-6.214,-62.71
2026-06-02 16:42:49.270,2302108726,46270,1,0.99585,-0.40991,-0.10449,-60.74,19.008,-3.947
2026-06-02 16:42:49.270,2302108726,46270,2,-0.76953,-0.40112,0.92334,11.443,16.969,-71.45
2026-06-02 16:42:49.470,2302108926,46470,1,0.89868,-0.33667,0.03052,-150.527,107.817,-92.893
2026-06-02 16:42:49.470,2302108926,46470,2,-0.62744,-0.2666,1.48853,-5.832,49.786,76.588
2026-06-02 16:42:49.670,2302109126,46670,1,1.01367,-0.27661,-0.13696,-107.191,57.634,-28.13
2026-06-02 16:42:49.670,2302109126,46670,2,-0.60791,-0.44727,1.06689,25.611,-39.885,-98.336
2026-06-02 16:42:50.870,2302110326,46870,1,0.84937,0.33789,0.44751,-76.466,34.13,-57.947
2026-06-02 16:42:50.870,2302110326,46870,2,-0.45996,-0.37427,1.1499,10.656,-1.519,-36.756
2026-06-02 16:42:50.070,2302109526,47070,1,0.76538,0.03101,0.33032,-52.824,24.061,-50.053
2026-06-02 16:42:50.070,2302109526,47070,2,-0.37793,-0.31519,1.08521,-38.153,-42.954,7.527
2026-06-02 16:42:50.270,2302109726,47270,1,0.97266,-0.22998,0.2373,-55.664,-4.786,-11.847
2026-06-02 16:42:50.270,2302109726,47270,2,-0.45654,-0.68335,1.25293,14.718,81.16,40.206
2026-06-02 16:42:50.470,2302109926,47470,1,1.12915,0.03076,0.44702,47.382,14.794,-248.206
2026-06-02 16:42:50.470,2302109926,47470,2,-0.42212,-0.42554,1.31836,-65.504,-177.74,-96.58
2026-06-02 16:42:50.670,2302110126,47670,1,1.12524,0.31201,0.55005,93.763,-105.267,-26.092
2026-06-02 16:42:50.670,2302110126,47670,2,0.52563,-0.5376,1.47119,-10.74,-193.595,-40.908
2026-06-02 16:42:51.870,2302111326,47870,1,0.93237,0.43799,0.45215,-78.779,-32.206,-81.786
2026-06-02 16:42:51.870,2302111326,47870,2,0.34668,-0.33936,0.36914,-26.198,5.901,-35.183
2026-06-02 16:42:51.070,2302110526,48070,1,0.82495,0.30103,0.20728,-100.969,62.183,-57.557
2026-06-02 16:42:51.070,2302110526,48070,2,1.03931,0.45142,1.13843,-44.206,-9.046,-52.947
2026-06-02 16:42:51.270,2302110726,48270,1,0.8606,0.70996,0.24927,43.542,18.916,84.954
2026-06-02 16:42:51.270,2302110726,48270,2,1.12451,-0.65552,1.7937,44.0,121.351,91.252
2026-06-02 16:42:51.470,2302110926,48470,1,0.74463,0.37646,0.26538,-99.809,146.634,-57.397
2026-06-02 16:42:51.470,2302110926,48470,2,0.79297,0.18652,0.7605,-0.863,63.176,57.771
2026-06-02 16:42:51.670,2302111126,48670,1,0.32568,-0.01025,1.09448,-143.992,29.908,-20.305
2026-06-02 16:42:51.670,2302111126,48670,2,0.55957,0.19507,0.70166,35.092,-54.802,-0.489
2026-06-02 16:42:52.870,2302112326,48870,1,0.44653,-0.03125,0.55078,-21.244,-28.473,1.137
2026-06-02 16:42:52.870,2302112326,48870,2,0.82983,0.08838,0.61084,9.191,98.695,18.626
2026-06-02 16:42:52.070,2302111526,49070,1,0.53979,-0.09106,1.12695,-100.687,19.412,63.634
2026-06-02 16:42:52.070,2302111526,49070,2,0.68848,-0.64819,0.96069,-16.634,169.282,250.13
2026-06-02 16:42:52.270,2302111726,49270,1,0.22876,-0.88721,0.65991,13.748,72.702,31.947
2026-06-02 16:42:52.270,2302111726,49270,2,0.2771,-0.16748,0.70386,-80.626,90.603,11.733
2026-06-02 16:42:52.470,2302111926,49470,1,0.02051,-0.19629,0.83862,-93.16,19.87,-92.275
2026-06-02 16:42:52.470,2302111926,49470,2,-0.47119,-0.85889,0.93774,-61.664,72.855,-91.969
2026-06-02 16:42:52.670,2302112126,49670,1,0.58325,-1.09253,0.30298,-103.824,0.573,-131.656
2026-06-02 16:42:52.670,2302112126,49670,2,-0.65332,-0.81006,1.08057,-83.26,-9.382,157.13
2026-06-02 16:42:53.870,2302113326,49870,1,0.71875,-0.62549,0.34937,29.122,-6.504,24.053
2026-06-02 16:42:53.870,2302113326,49870,2,-0.30127,-0.47461,0.98291,133.359,-235.58,-62.924
2026-06-02 16:42:53.070,2302112526,50070,1,0.58472,-0.72144,0.49023,-89.099,13.374,-126.458
2026-06-02 16:42:53.070,2302112526,50070,2,-0.29199,1.99994,1.99994,250.13,205.618,250.13
2026-06-02 16:42:53.270,2302112726,50270,1,0.71411,-0.51611,0.38745,71.595,7.298,-32.588
2026-06-02 16:42:53.270,2302112726,50270,2,-1.0105,0.14404,0.25439,12.557,-3.901,-41.74
2026-06-02 16:42:53.470,2302112926,50470,1,0.8457,-0.43335,0.38501,-7.771,-13.435,-5.71
2026-06-02 16:42:53.470,2302112926,50470,2,-1.01099,0.22656,0.43481,-41.298,-78.725,24.29
2026-06-02 16:42:53.670,2302113126,50670,1,0.82031,-0.42822,0.38086,23.038,-4.71,14.908
2026-06-02 16:42:53.670,2302113126,50670,2,-1.27393,-0.09644,0.46484,-97.802,-59.962,-139.969
2026-06-02 16:42:54.870,2302114326,50870,1,0.67236,-0.54688,0.44092,18.13,-7.366,39.198
2026-06-02 16:42:54.870,2302114326,50870,2,-0.99048,-0.45532,0.87085,-35.29,-38.855,-2.756
2026-06-02 16:42:54.070,2302113526,51070,1,0.70874,-0.50903,0.4519,7.26,-9.275,11.206
2026-06-02 16:42:54.070,2302113526,51070,2,-0.95068,-0.28931,0.87256,-34.076,-15.641,-36.641
2026-06-02 16:42:54.270,2302113726,51270,1,0.74731,-0.55518,0.29199,-54.237,-4.374,-29.305
2026-06-02 16:42:54.270,2302113726,51270,2,-0.68115,-0.49683,0.45874,-69.221,40.916,115.954
2026-06-02 16:42:54.470,2302113926,51470,1,0.77002,-0.58105,0.28491,10.511,1.321,11.115
2026-06-02 16:42:54.470,2302113926,51470,2,-0.82495,-0.323,0.84277,7.191,-22.26,-16.87
2026-06-02 16:42:54.670,2302114126,51670,1,0.81836,-0.62183,0.42261,1.069,18.397,87.015
2026-06-02 16:42:54.670,2302114126,51670,2,-0.80469,-0.29736,0.9729,135.557,5.107,-16.977
2026-06-02 16:42:55.870,2302115326,51870,1,0.1394,-0.66797,0.42139,223.969,-78.16,50.84
2026-06-02 16:42:55.870,2302115326,51870,2,-0.76904,-0.22803,1.15039,-209.359,-28.733,30.87
2026-06-02 16:42:55.070,2302114526,52070,1,0.38354,-0.68311,0.65674,6.221,-66.962,22.809
2026-06-02 16:42:55.070,2302114526,52070,2,-0.79541,-0.30737,0.95508,-49.29,21.954,-19.878
2026-06-02 16:42:55.270,2302114726,52270,1,0.69922,-0.63257,0.40894,-20.771,-49.412,8.595
2026-06-02 16:42:55.270,2302114726,52270,2,-0.77441,-0.41357,0.91431,-12.176,-1.023,4.84
2026-06-02 16:42:55.470,2302114926,52470,1,0.63989,-0.72363,0.32739,-57.351,52.298,23.45
2026-06-02 16:42:55.470,2302114926,52470,2,-0.78247,-0.36182,0.9624,10.29,-14.878,10.374
2026-06-02 16:42:55.670,2302115126,52670,1,0.19556,-0.35522,0.89893,250.13,-149.656,250.13
2026-06-02 16:42:55.670,2302115126,52670,2,-0.73413,-0.38354,0.91406,6.107,-1.901,21.092
2026-06-02 16:42:56.870,2302116326,52870,1,0.50439,-0.54028,0.60156,37.687,41.55,-1.252
2026-06-02 16:42:56.870,2302116326,52870,2,-0.8291,-0.24438,1.2085,-38.985,-53.42,31.763
2026-06-02 16:42:56.070,2302115526,53070,1,0.35815,-0.14673,0.76733,62.298,12.794,37.824
2026-06-02 16:42:56.070,2302115526,53070,2,-0.66235,-0.09985,1.46021,69.191,-18.076,-57.145
2026-06-02 16:42:56.270,2302115726,53270,1,0.35132,-0.33276,0.68457,-53.252,11.603,-8.947
2026-06-02 16:42:56.270,2302115726,53270,2,-0.66235,-0.49902,0.85229,-16.656,77.092,78.298
2026-06-02 16:42:56.470,2302115926,53470,1,0.58057,-0.41455,0.56201,-19.878,-104.557,1.084
2026-06-02 16:42:56.470,2302115926,53470,2,-0.85474,-0.63232,0.40967,-83.679,206.58,227.656
2026-06-02 16:42:56.670,2302116126,53670,1,0.83789,-0.35107,0.48853,71.863,-87.405,10.458
2026-06-02 16:42:56.670,2302116126,53670,2,-0.15479,-0.52563,0.24194,86.374,205.74,-160.29
2026-06-02 16:42:57.870,2302117326,53870,1,0.65454,0.0332,0.61841,-48.985,9.519,27.893
2026-06-02 16:42:57.870,2302117326,53870,2,-0.35962,-0.2832,0.03394,20.55,-16.023,-93.954
2026-06-02 16:42:57.070,2302116526,54070,1,0.70264,-0.18726,0.60693,-8.718,-63.595,6.847
2026-06-02 16:42:57.070,2302116526,54070,2,-0.56006,-0.62891,0.91309,18.603,138.618,116.023
2026-06-02 16:42:57.270,2302116726,54270,1,0.70703,-0.15381,0.59058,-17.534,10.924,15.298
2026-06-02 16:42:57.270,2302116726,54270,2,-0.61475,-0.45313,1.01245,44.45,-48.527,-89.58
2026-06-02 16:42:57.470,2302116926,54470,1,0.6377,-0.10229,0.64868,-3.023,-2.122,3.809
2026-06-02 16:42:57.470,2302116926,54470,2,-0.57788,-0.38379,1.1189,5.313,70.115,42.084
2026-06-02 16:42:57.670,2302117126,54670,1,0.69092,-0.22632,0.573,-10.786,-9.489,4.298
2026-06-02 16:42:57.670,2302117126,54670,2,-0.56226,-0.49268,1.20215,8.458,-18.344,-42.954
2026-06-02 16:42:58.870,2302118326,54870,1,0.69482,-0.27002,0.60107,-1.16,9.824,7.107
2026-06-02 16:42:58.870,2302118326,54870,2,-0.56909,-0.38062,1.10303,2.084,2.145,-12.053
2026-06-02 16:42:58.070,2302117526,55070,1,0.68921,-0.22632,0.62842,-14.519,1.595,-7.092
2026-06-02 16:42:58.070,2302117526,55070,2,-0.52563,-0.48315,1.15649,2.611,2.282,2.656
2026-06-02 16:42:58.270,2302117726,55270,1,0.69507,-0.30029,0.58057,1.84,2.824,4.366
2026-06-02 16:42:58.270,2302117726,55270,2,-0.55273,-0.44482,1.13867,7.282,-6.351,-9.992
2026-06-02 16:42:58.470,2302117926,55470,1,0.60742,-0.24683,0.6687,-3.893,7.282,3.527
2026-06-02 16:42:58.470,2302117926,55470,2,-0.53052,-0.45313,1.15137,7.092,21.611,6.023
2026-06-02 16:42:58.670,2302118126,55670,1,0.68066,-0.32715,0.62817,-5.779,5.542,2.412
2026-06-02 16:42:58.670,2302118126,55670,2,-0.52881,-0.44238,1.1394,-1.489,-7.84,7.458
2026-06-02 16:42:59.870,2302119326,55870,1,0.60107,-0.24951,0.63525,0.855,-1.038,1.26
2026-06-02 16:42:59.870,2302119326,55870,2,-0.50146,-0.46851,1.14282,-3.832,-0.305,4.908
2026-06-02 16:42:59.070,2302118526,56070,1,0.6272,-0.28394,0.63867,-0.855,2.611,3.29
2026-06-02 16:42:59.070,2302118526,56070,2,-0.51367,-0.44287,1.15942,-1.473,0.809,6.198
2026-06-02 16:42:59.270,2302118726,56270,1,0.604,-0.27441,0.63306,-2.817,0.015,2.427
2026-06-02 16:42:59.270,2302118726,56270,2,-0.51929,-0.45996,1.14331,-2.626,4.313,4.244
2026-06-02 16:42:59.470,2302118926,56470,1,0.60864,-0.2937,0.67212,-0.771,-0.718,2.389
2026-06-02 16:42:59.470,2302118926,56470,2,-0.54004,-0.51733,1.15991,0.527,8.542,11.504
2026-06-02 16:42:59.670,2302119126,56670,1,0.5979,-0.30322,0.60278,-0.794,2.847,2.0
2026-06-02 16:42:59.670,2302119126,56670,2,-0.55396,-0.45874,1.1377,-16.359,-10.863,-28.573
2026-06-02 16:43:00.870,2302120326,56870,1,0.55322,-0.29883,0.63208,-13.137,7.527,-12.641
2026-06-02 16:43:00.870,2302120326,56870,2,-0.53394,-0.55347,1.07715,3.748,47.626,21.275
2026-06-02 16:43:00.070,2302119526,57070,1,0.59741,-0.25635,0.74316,-11.908,22.733,-20.122
2026-06-02 16:43:00.070,2302119526,57070,2,-0.50049,-0.5354,1.08618,29.344,14.855,-19.84
2026-06-02 16:43:00.270,2302119726,57270,1,0.62134,-0.27319,0.61133,-1.763,6.313,-6.076
2026-06-02 16:43:00.270,2302119726,57270,2,-0.54712,-0.54712,1.12231,26.969,-7.443,-20.565
2026-06-02 16:43:00.470,2302119926,57470,1,0.52881,-0.31226,0.69849,-18.412,-1.084,9.878
2026-06-02 16:43:00.470,2302119926,57470,2,-0.54297,-0.49463,1.15356,43.244,28.618,8.13
2026-06-02 16:43:00.670,2302120126,57670,1,0.58569,-0.34277,0.6001,-8.008,5.863,-2.153
2026-06-02 16:43:00.670,2302120126,57670,2,-0.45459,-0.4082,1.17773,29.191,-1.412,-18.573
2026-06-02 16:43:01.870,2302121326,57870,1,0.61987,-0.29297,0.68311,6.595,-2.061,-12.023
2026-06-02 16:43:01.870,2302121326,57870,2,-0.5332,-0.36572,1.20337,13.305,-23.099,0.099
2026-06-02 16:43:01.070,2302120526,58070,1,0.59912,-0.25708,0.61572,-6.916,-5.901,-0.084
2026-06-02 16:43:01.070,2302120526,58070,2,-0.52002,-0.46021,1.21729,-2.084,17.145,2.29
2026-06-02 16:43:01.270,2302120726,58270,1,0.65234,-0.30542,0.6084,-29.634,1.656,-16.504
2026-06-02 16:43:01.270,2302120726,58270,2,-0.45386,-0.39526,1.11084,10.603,5.985,35.634
2026-06-02 16:43:01.470,2302120926,58470,1,0.57813,-0.31372,0.61621,-0.573,7.344,-0.687
2026-06-02 16:43:01.470,2302120926,58470,2,-0.40063,-0.36719,1.13965,74.206,-139.244,14.458
2026-06-02 16:43:01.670,2302121126,58670,1,0.64136,-0.2937,0.64551,-4.954,7.611,0.511
2026-06-02 16:43:01.670,2302121126,58670,2,-0.28491,-0.06079,0.9458,-30.718,15.336,34.786
2026-06-02 16:43:02.870,2302122326,58870,1,0.65869,-0.25781,0.61792,5.695,0.885,-5.595
2026-06-02 16:43:02.870,2302122326,58870,2,-0.44238,-0.39014,1.1814,-37.756,-24.733,-20.931
2026-06-02 16:43:02.070,2302121526,59070,1,0.62695,-0.21313,0.6333,-5.038,-6.649,-2.542
2026-06-02 16:43:02.070,2302121526,59070,2,-0.47119,-0.5542,1.47388,46.168,10.611,-2.137
2026-06-02 16:43:02.270,2302121726,59270,1,0.6333,-0.18652,0.63745,18.901,-0.038,-0.374
2026-06-02 16:43:02.270,2302121726,59270,2,-0.27954,-0.0896,1.27466,-23.985,-41.977,-29.916
2026-06-02 16:43:02.470,2302121926,59470,1,0.61841,-0.16064,0.65698,21.099,-7.824,2.069
2026-06-02 16:43:02.470,2302121926,59470,2,-0.41528,-0.39111,1.26465,-21.176,-45.107,-29.153
2026-06-02 16:43:02.670,2302122126,59670,1,0.62378,-0.12793,0.66357,24.924,-1.885,-1.634
2026-06-02 16:43:02.670,2302122126,59670,2,-0.41357,-0.3584,1.32788,23.595,55.855,75.466
2026-06-02 16:43:03.870,2302123326,59870,1,0.52686,0.16528,0.64551,50.229,-42.519,-4.336
2026-06-02 16:43:03.870,2302123326,59870,2,-0.80786,-0.33325,1.229,51.336,194.916,186.435
2026-06-02 16:43:03.070,2302122526,60070,1,0.52148,0.09106,0.54175,-89.321,167.534,-47.687
2026-06-02 16:43:03.070,2302122526,60070,2,-0.81763,-0.07886,1.20874,-38.786,-222.267,-222.527
2026-06-02 16:43:03.270,2302122726,60270,1,0.73535,0.01636,0.61206,44.641,-57.527,29.519
2026-06-02 16:43:03.270,2302122726,60270,2,-0.75269,-0.22998,1.16309,20.786,85.832,112.321
2026-06-02 16:43:03.470,2302122926,60470,1,0.69116,-0.00244,0.38208,-12.405,7.939,27.588
2026-06-02 16:43:03.470,2302122926,60470,2,-0.72339,-0.25757,1.14624,7.168,-80.473,-9.924
2026-06-02 16:43:03.670,2302123126,60670,1,0.75415,0.37646,0.58032,57.038,-2.786,-16.038
2026-06-02 16:43:03.670,2302123126,60670,2,-0.57983,-0.2439,1.1875,-22.053,5.191,5.947
2026-06-02 16:43:04.870,2302124326,60870,1,0.7998,0.29541,0.62866,41.969,-34.702,23.565
2026-06-02 16:43:04.870,2302124326,60870,2,-0.67334,-0.19678,0.94458,7.015,14.038,92.168
2026-06-02 16:43:04.070,2302123526,61070,1,0.67358,0.77563,0.83765,-56.176,-34.321,-57.504
2026-06-02 16:43:04.070,2302123526,61070,2,-0.69629,-0.15845,1.07886,10.718,-80.824,-74.26
2026-06-02 16:43:04.270,2302123726,61270,1,0.78882,0.0603,0.5957,7.832,-106.45,84.588
2026-06-02 16:43:04.270,2302123726,61270,2,-0.41016,0.02051,1.31519,21.023,-2.084,-7.718
2026-06-02 16:43:04.470,2302123926,61470,1,1.21289,-0.36011,-0.3606,-9.252,-94.061,38.221
2026-06-02 16:43:04.470,2302123926,61470,2,-0.87012,-0.13672,1.02856,-26.58,2.008,-41.901
2026-06-02 16:43:04.670,2302124126,61670,1,0.85327,-0.56543,-0.26172,-33.977,65.962,-79.008
2026-06-02 16:43:04.670,2302124126,61670,2,-0.58398,-0.26489,1.10815,23.603,-3.099,-24.809
2026-06-02 16:43:05.870,2302125326,61870,1,0.9541,0.06934,0.30273,-28.565,16.374,-41.809
2026-06-02 16:43:05.870,2302125326,61870,2,-0.62549,-0.25537,1.13745,-9.389,21.672,-11.489
2026-06-02 16:43:05.070,2302124526,62070,1,0.95386,0.11816,0.36548,-26.305,0.664,-27.244
2026-06-02 16:43:05.070,2302124526,62070,2,-0.63672,-0.27954,1.12769,-3.237,-3.023,-4.008
2026-06-02 16:43:05.270,2302124726,62270,1,0.82568,0.08228,0.36182,-52.74,25.733,-32.153
2026-06-02 16:43:05.270,2302124726,62270,2,-0.54932,-0.46338,1.09375,-52.954,14.618,-39.947
2026-06-02 16:43:05.470,2302124926,62470,1,0.70776,0.36401,0.67603,8.527,6.366,-14.786
2026-06-02 16:43:05.470,2302124926,62470,2,-0.17603,0.03979,1.0791,-1.336,17.16,-5.168
2026-06-02 16:43:05.670,2302125126,62670,1,0.75317,-0.07227,0.21094,10.298,-99.053,55.985
2026-06-02 16:43:05.670,2302125126,62670,2,-0.83936,-0.74292,1.14868,56.397,110.939,18.74
2026-06-02 16:43:06.870,2302126326,62870,1,1.02271,0.20679,0.27515,-11.076,78.87,-25.947
2026-06-02 16:43:06.870,2302126326,62870,2,-0.54761,-0.6853,1.18359,-58.893,-29.794,-23.321
2026-06-02 16:43:06.070,2302125526,63070,1,0.71558,0.11133,0.61597,-32.489,69.0,-31.595
2026-06-02 16:43:06.070,2302125526,63070,2,-0.65332,-0.5835,0.84912,12.794,19.374,22.084
2026-06-02 16:43:06.270,2302125726,63270,1,0.39941,0.05225,0.85229,-30.985,101.168,-23.481
2026-06-02 16:43:06.270,2302125726,63270,2,-0.75146,-0.58228,0.71582,-8.756,-0.221,-10.794
2026-06-02 16:43:06.470,2302125926,63470,1,0.52173,-0.23511,0.62671,-0.031,-18.748,37.099
2026-06-02 16:43:06.470,2302125926,63470,2,-0.62183,-0.74878,0.76685,-7.061,-9.336,-2.58
2026-06-02 16:43:06.670,2302126126,63670,1,0.5835,-0.06738,0.64795,16.099,10.282,12.252
2026-06-02 16:43:06.670,2302126126,63670,2,-0.63281,-0.83813,0.90601,-8.985,-6.992,-6.962
2026-06-02 16:43:07.870,2302127326,63870,1,0.33398,0.06714,1.0769,0.069,33.611,-41.595
2026-06-02 16:43:07.870,2302127326,63870,2,-0.88745,-0.95654,0.58618,39.832,80.137,66.107
2026-06-02 16:43:07.070,2302126526,64070,1,0.20264,-0.00391,0.91895,-11.626,-28.565,13.351
2026-06-02 16:43:07.070,2302126526,64070,2,-0.65576,-0.61182,0.77075,-22.649,-5.435,33.863
2026-06-02 16:43:07.270,2302126726,64270,1,0.40454,0.0061,0.75391,5.527,10.771,-29.557
2026-06-02 16:43:07.270,2302126726,64270,2,-0.66309,-0.57861,0.95435,49.832,-6.824,-1.534
2026-06-02 16:43:07.470,2302126926,64470,1,0.38306,0.09497,0.67871,69.466,-17.328,-121.702
2026-06-02 16:43:07.470,2302126926,64470,2,-0.6814,-0.30127,0.94946,104.656,-4.221,31.916
2026-06-02 16:43:07.670,2302127126,64670,1,0.53198,0.48364,0.63354,73.252,-44.916,41.321
2026-06-02 16:43:07.670,2302127126,64670,2,-0.73193,-0.26782,1.11548,22.847,-1.42,-10.275
2026-06-02 16:43:08.870,2302128326,64870,1,0.70703,0.54614,0.46948,17.863,-35.389,59.87
2026-06-02 16:43:08.870,2302128326,64870,2,-0.67407,-0.37598,1.13403,5.046,30.16,-31.565
2026-06-02 16:43:08.070,2302127526,65070,1,0.87842,-0.17651,0.05786,60.382,-58.405,137.45
2026-06-02 16:43:08.070,2302127526,65070,2,-0.70776,-0.39014,0.99146,-16.641,4.458,-22.351
2026-06-02 16:43:08.270,2302127726,65270,1,0.99683,-0.09644,0.0708,5.878,-5.122,4.977
2026-06-02 16:43:08.270,2302127726,65270,2,-0.79492,-0.38281,0.948,-14.962,18.42,-7.527
2026-06-02 16:43:08.470,2302127926,65470,1,1.15283,0.01001,-0.25977,-0.977,-2.443,2.969
2026-06-02 16:43:08.470,2302127926,65470,2,-0.6853,-0.47852,0.92798,-39.603,-16.557,-14.534
2026-06-02 16:43:08.670,2302128126,65670,1,0.94971,-0.24121,0.26294,-14.962,38.427,27.656
2026-06-02 16:43:08.670,2302128126,65670,2,-0.67236,-0.51147,0.9209,-10.145,3.786,14.489
2026-06-02 16:43:09.870,2302129326,65870,1,1.01758,-0.03125,0.24683,17.321,10.885,-43.237
2026-06-02 16:43:09.870,2302129326,65870,2,-0.67871,-0.51392,0.97119,-1.916,4.008,27.458
2026-06-02 16:43:09.070,2302128526,66070,1,1.08716,0.20386,0.12598,25.023,-23.695,-11.641
2026-06-02 16:43:09.070,2302128526,66070,2,-0.7395,-0.45166,1.00781,-8.924,5.962,14.618
2026-06-02 16:43:09.270,2302128726,66270,1,0.89697,0.1355,0.3269,9.176,9.748,4.603
2026-06-02 16:43:09.270,2302128726,66270,2,-0.76172,-0.46265,0.89648,3.786,-5.802,22.702
2026-06-02 16:43:09.470,2302128926,66470,1,0.93726,0.34668,0.24829,45.374,-24.786,-1.565
2026-06-02 16:43:09.470,2302128926,66470,2,-0.64404,-0.35864,1.25854,18.901,15.412,60.992
2026-06-02 16:43:09.670,2302129126,66670,1,1.04858,0.34326,0.06348,8.71,-3.687,-4.397
2026-06-02 16:43:09.670,2302129126,66670,2,-1.03394,-0.18799,1.14478,65.565,-21.595,63.466
2026-06-02 16:43:10.870,2302130326,66870,1,0.79297,0.50415,0.04565,42.519,-31.015,-15.664
2026-06-02 16:43:10.870,2302130326,66870,2,-0.76514,0.82153,1.34326,-14.397,47.313,20.702
2026-06-02 16:43:10.070,2302129526,67070,1,0.72437,0.52954,0.01416,-17.557,1.725,-57.74
2026-06-02 16:43:10.070,2302129526,67070,2,-0.49048,0.28076,1.09985,-22.328,-32.519,-16.145
2026-06-02 16:43:10.270,2302129726,67270,1,0.67847,0.46191,0.27148,-37.55,34.763,-26.58
2026-06-02 16:43:10.270,2302129726,67270,2,-0.60522,0.4104,0.8938,31.733,-46.656,-79.458
2026-06-02 16:43:10.470,2302129926,67470,1,0.9895,0.60571,0.33618,-40.634,-22.527,-14.534
2026-06-02 16:43:10.470,2302129926,67470,2,-0.71216,0.24829,1.07739,23.947,-23.947,-39.267
2026-06-02 16:43:10.670,2302130126,67670,1,0.94165,0.48438,0.2373,-53.328,-25.626,-35.595
2026-06-02 16:43:10.670,2302130126,67670,2,-0.71875,0.11914,1.0354,18.26,-13.87,3.672
2026-06-02 16:43:11.870,2302131326,67870,1,0.83228,0.40381,0.31445,-71.611,-20.786,-56.527
2026-06-02 16:43:11.870,2302131326,67870,2,-0.31152,0.53809,1.04663,-54.87,66.733,37.977
2026-06-02 16:43:11.070,2302130526,68070,1,0.85254,0.26318,0.46411,-5.099,-5.916,38.183
2026-06-02 16:43:11.070,2302130526,68070,2,-0.65527,0.3186,0.98218,-27.168,-34.672,25.351
2026-06-02 16:43:11.270,2302130726,68270,1,0.78662,0.15015,0.42334,-21.45,-10.977,41.252
2026-06-02 16:43:11.270,2302130726,68270,2,-0.74194,0.07202,1.39478,64.969,89.763,149.748
2026-06-02 16:43:11.470,2302130926,68470,1,0.76831,0.33691,0.51294,-2.527,17.305,26.229
2026-06-02 16:43:11.470,2302130926,68470,2,-0.67651,0.39282,1.19165,-31.443,-14.924,-74.344
2026-06-02 16:43:11.670,2302131126,68670,1,0.90234,0.01733,0.27173,-78.435,26.435,-19.374
2026-06-02 16:43:11.670,2302131126,68670,2,-0.63818,-0.04688,1.26685,10.145,-4.641,-27.672
2026-06-02 16:43:12.894,2302132350,68894,1,0.8811,-0.34326,0.36719,-28.962,-4.58,-19.229
2026-06-02 16:43:12.894,2302132350,68894,2,-0.83081,-0.20483,1.20166,27.542,7.969,-21.389
2026-06-02 16:43:12.094,2302131550,69094,1,0.93188,-0.06787,0.51929,30.679,-31.58,-17.939
2026-06-02 16:43:12.094,2302131550,69094,2,-0.37817,-0.13086,1.08887,22.458,35.634,-3.427
2026-06-02 16:43:12.294,2302131750,69294,1,0.83301,0.42554,0.40283,9.313,-86.863,17.038
2026-06-02 16:43:12.294,2302131750,69294,2,-0.65967,-0.15259,0.85596,-29.954,-88.908,-33.55
2026-06-02 16:43:12.494,2302131950,69494,1,0.90112,0.1228,0.5415,-57.763,55.015,-1.756
2026-06-02 16:43:12.494,2302131950,69494,2,-0.67334,-0.0686,1.02856,-2.168,-60.359,-10.641
2026-06-02 16:43:12.694,2302132150,69694,1,0.86865,0.1167,0.36914,-34.038,29.504,-23.519
2026-06-02 16:43:12.694,2302132150,69694,2,-0.66455,0.00317,0.98877,15.588,18.527,-21.069
2026-06-02 16:43:13.894,2302133350,69894,1,0.9436,0.13745,0.41113,8.313,-53.374,38.878
2026-06-02 16:43:13.894,2302133350,69894,2,-0.4541,0.05933,1.09595,-28.229,-15.595,27.985
2026-06-02 16:43:13.094,2302132550,70094,1,0.9375,-0.03516,0.26733,28.771,-25.87,69.611
2026-06-02 16:43:13.094,2302132550,70094,2,-0.80566,-0.23706,1.08496,-29.313,-1.702,-1.069
2026-06-02 16:43:13.294,2302132750,70294,1,0.95581,-0.06616,0.29492,7.611,0.267,-0.336
2026-06-02 16:43:13.294,2302132750,70294,2,-0.7478,-0.16699,1.25,-16.031,67.038,49.901
2026-06-02 16:43:13.494,2302132950,70494,1,1.03467,0.25122,-0.22852,-86.969,63.519,5.153
2026-06-02 16:43:13.494,2302132950,70494,2,-0.52344,-0.14453,1.36475,25.824,-34.725,-6.053
2026-06-02 16:43:13.694,2302133150,70694,1,1.04224,-0.15381,0.25977,-26.29,-2.275,-5.87
2026-06-02 16:43:13.694,2302133150,70694,2,-0.94458,-0.19604,1.06152,42.015,48.565,74.061
2026-06-02 16:43:14.894,2302134350,70894,1,1.04834,0.0564,0.08398,8.031,-49.107,0.061
2026-06-02 16:43:14.894,2302134350,70894,2,-0.53516,0.03149,1.19409,20.382,-15.321,-30.954
2026-06-02 16:43:14.094,2302133550,71094,1,1.01123,-0.01221,0.19897,-10.618,18.71,17.206
2026-06-02 16:43:14.094,2302133550,71094,2,-0.71606,-0.14917,1.23804,-19.481,-72.023,-18.168
2026-06-02 16:43:14.294,2302133750,71294,1,1.02246,0.02759,0.13818,-9.84,2.802,-17.649
2026-06-02 16:43:14.294,2302133750,71294,2,-0.64917,-0.02148,1.10986,21.756,18.366,15.496
2026-06-02 16:43:14.494,2302133950,71494,1,1.02686,0.00684,0.15894,-13.634,-1.893,-6.183
2026-06-02 16:43:14.494,2302133950,71494,2,-0.62671,-0.08203,1.18896,15.763,7.183,8.198
2026-06-02 16:43:14.694,2302134150,71694,1,1.01563,0.02539,0.17163,4.908,4.695,3.718
2026-06-02 16:43:14.694,2302134150,71694,2,-0.68774,-0.09229,1.19751,-7.679,-26.519,-2.344
2026-06-02 16:43:15.894,2302135350,71894,1,1.01514,-0.0105,0.19897,2.473,5.71,-0.634
2026-06-02 16:43:15.894,2302135350,71894,2,-0.73242,-0.13281,1.23315,5.42,19.779,1.282
2026-06-02 16:43:15.094,2302134550,72094,1,1.01172,0.02197,0.18237,-5.336,-0.931,-10.122
2026-06-02 16:43:15.094,2302134550,72094,2,-0.54907,-0.04688,1.22388,-8.702,10.443,12.26
2026-06-02 16:43:15.294,2302134750,72294,1,1.00244,-0.01416,0.19507,1.092,-2.046,6.061
2026-06-02 16:43:15.294,2302134750,72294,2,-0.6897,-0.09229,1.13184,-12.122,-3.779,10.076
2026-06-02 16:43:15.494,2302134950,72494,1,0.99609,0.01489,0.20313,4.183,0.29,1.916
2026-06-02 16:43:15.494,2302134950,72494,2,-0.62695,-0.1394,1.21509,0.809,1.931,2.313
2026-06-02 16:43:15.694,2302135150,72694,1,1.00562,0.02368,0.20825,2.115,1.672,1.786
2026-06-02 16:43:15.694,2302135150,72694,2,-0.61401,-0.09155,1.20142,-14.771,10.191,35.878
2026-06-02 16:43:16.894,2302136350,72894,1,1.01392,-0.01172,0.18408,3.756,2.389,1.145
2026-06-02 16:43:16.894,2302136350,72894,2,-0.75293,-0.15601,1.28418,-27.481,-7.298,20.573
2026-06-02 16:43:16.094,2302135550,73094,1,1.02051,0.06152,0.20874,4.756,-0.366,-7.466
2026-06-02 16:43:16.094,2302135550,73094,2,-0.61597,-0.13623,1.20874,-23.214,14.924,20.695
2026-06-02 16:43:16.294,2302135750,73294,1,0.96948,0.03784,0.16748,10.542,4.076,19.122
2026-06-02 16:43:16.294,2302135750,73294,2,-0.63208,-0.02393,1.13477,-7.595,-6.038,-1.115
2026-06-02 16:43:16.494,2302135950,73494,1,0.9978,-0.03442,0.21997,7.618,5.229,23.656
2026-06-02 16:43:16.494,2302135950,73494,2,-0.72559,-0.1875,1.34326,39.817,41.008,-2.176
2026-06-02 16:43:16.694,2302136150,73694,1,0.99023,-0.05908,0.23901,9.992,-4.534,5.389
2026-06-02 16:43:16.694,2302136150,73694,2,-0.63696,-0.13306,1.48633,-22.137,-28.344,-40.084
2026-06-02 16:43:17.894,2302137350,73894,1,0.98413,-0.07837,0.18652,7.168,-4.099,6.985
2026-06-02 16:43:17.894,2302137350,73894,2,-0.63916,0.00317,1.09399,-15.969,17.725,10.763
2026-06-02 16:43:17.094,2302136550,74094,1,1.02002,-0.08765,0.2085,-1.954,-0.908,-2.58
2026-06-02 16:43:17.094,2302136550,74094,2,-0.5874,-0.05322,1.23486,11.092,22.397,-3.122
2026-06-02 16:43:17.294,2302136750,74294,1,1.00391,-0.08398,0.18188,0.206,-3.908,4.198
2026-06-02 16:43:17.294,2302136750,74294,2,-0.6062,-0.05664,1.21948,-9.664,-11.641,12.832
2026-06-02 16:43:17.494,2302136950,74494,1,0.99683,-0.08374,0.20703,5.71,0.748,1.649
2026-06-02 16:43:17.494,2302136950,74494,2,-0.60181,-0.01123,1.23877,-5.618,-9.947,-0.687
2026-06-02 16:43:17.694,2302137150,74694,1,1.00732,-0.07178,0.21362,-1.084,-0.908,0.031
2026-06-02 16:43:17.694,2302137150,74694,2,-0.65039,-0.11743,1.20972,-2.046,12.489,0.252
2026-06-02 16:43:18.894,2302138350,74894,1,0.99927,-0.12109,0.18774,0.519,-0.084,-0.038
2026-06-02 16:43:18.894,2302138350,74894,2,-0.57983,-0.00464,1.22046,-8.26,-4.672,2.718
2026-06-02 16:43:18.094,2302137550,75094,1,0.99927,-0.11206,0.20605,-4.115,1.412,-1.748
2026-06-02 16:43:18.094,2302137550,75094,2,-0.63672,-0.06299,1.20337,3.496,2.504,-8.618
2026-06-02 16:43:18.294,2302137750,75294,1,1.00708,-0.10181,0.20239,-2.863,1.794,-2.389
2026-06-02 16:43:18.294,2302137750,75294,2,-0.59229,-0.03149,1.23242,6.985,3.137,-3.038
2026-06-02 16:43:18.494,2302137950,75494,1,1.00366,-0.10303,0.19556,-1.122,0.924,0.397
2026-06-02 16:43:18.494,2302137950,75494,2,-0.5979,-0.05615,1.26025,-3.832,-7.962,-1.519
2026-06-02 16:43:18.694,2302138150,75694,1,1.00879,-0.09009,0.22119,-0.969,-0.366,0.557
2026-06-02 16:43:18.694,2302138150,75694,2,-0.60718,-0.03857,1.23364,-4.359,-1.244,5.542
2026-06-02 16:43:19.894,2302139350,75894,1,1.0,-0.09814,0.20996,-0.885,-0.176,1.038
2026-06-02 16:43:19.894,2302139350,75894,2,-0.59424,-0.04028,1.23438,1.611,4.321,-0.466
2026-06-02 16:43:19.094,2302138550,76094,1,1.00171,-0.09717,0.20288,-1.794,-0.084,-1.443
2026-06-02 16:43:19.094,2302138550,76094,2,-0.59375,-0.05981,1.24634,-6.137,-0.557,3.908
2026-06-02 16:43:19.294,2302138750,76294,1,0.99072,-0.11011,0.18872,-2.053,0.779,-1.58
2026-06-02 16:43:19.294,2302138750,76294,2,-0.57227,-0.00928,1.23267,-1.481,1.389,3.061
2026-06-02 16:43:19.494,2302138950,76494,1,0.99951,-0.09766,0.20483,-3.153,1.481,0.206
2026-06-02 16:43:19.494,2302138950,76494,2,-0.5957,-0.07373,1.25391,2.87,7.893,2.573
2026-06-02 16:43:19.694,2302139150,76694,1,0.99316,-0.0896,0.1936,-1.0,0.489,-1.183
2026-06-02 16:43:19.694,2302139150,76694,2,-0.58154,-0.03662,1.2439,-2.664,-6.046,0.863
2026-06-02 16:43:20.894,2302140350,76894,1,1.00684,-0.0957,0.20532,-1.55,0.45,0.145
2026-06-02 16:43:20.894,2302140350,76894,2,-0.69556,-0.17334,1.26343,2.588,-1.031,-11.679
2026-06-02 16:43:20.094,2302139550,77094,1,0.99756,-0.10132,0.21045,-4.397,0.71,-3.13
2026-06-02 16:43:20.094,2302139550,77094,2,-0.46826,-0.05957,1.26294,8.084,13.351,16.321
2026-06-02 16:43:20.294,2302139750,77294,1,0.99707,-0.07153,0.2168,-2.504,1.649,-1.107
2026-06-02 16:43:20.294,2302139750,77294,2,-0.72949,-0.06152,1.18823,35.336,15.779,-11.443
2026-06-02 16:43:20.494,2302139950,77494,1,1.00586,-0.0874,0.20215,-9.397,2.885,-2.58
2026-06-02 16:43:20.494,2302139950,77494,2,-0.57495,-0.01367,1.34814,-3.458,10.786,-40.412
2026-06-02 16:43:20.694,2302140150,77694,1,1.00269,-0.08374,0.19995,-4.916,3.344,-1.542
2026-06-02 16:43:20.694,2302140150,77694,2,-0.55298,-0.15381,1.18066,-21.313,-53.763,-42.489
2026-06-02 16:43:21.894,2302141350,77894,1,0.98462,-0.11499,0.26001,-3.16,-4.382,-5.771
2026-06-02 16:43:21.894,2302141350,77894,2,-0.70215,-0.15918,1.1438,13.336,26.061,32.71
2026-06-02 16:43:21.094,2302140550,78094,1,1.00952,-0.05127,0.16553,-4.0,-1.634,-7.824
2026-06-02 16:43:21.094,2302140550,78094,2,-0.40405,-0.1001,1.24414,-27.099,-26.74,-18.389
2026-06-02 16:43:21.294,2302140750,78294,1,1.0061,-0.02002,0.2002,-3.527,3.931,-0.191
2026-06-02 16:43:21.294,2302140750,78294,2,-0.5874,-0.17505,1.14819,3.916,22.71,14.504
2026-06-02 16:43:21.494,2302140950,78494,1,1.00122,-0.03174,0.20972,-19.115,5.053,-9.511
2026-06-02 16:43:21.494,2302140950,78494,2,-0.52393,-0.26733,1.28076,7.58,19.031,4.496
2026-06-02 16:43:21.694,2302141150,78694,1,1.00098,-0.02832,0.20776,-7.237,2.29,-2.779
2026-06-02 16:43:21.694,2302141150,78694,2,-0.59229,-0.1499,1.14478,10.771,-20.954,4.061
2026-06-02 16:43:22.894,2302142350,78894,1,0.99756,-0.01538,0.20825,-5.565,1.214,-2.702
2026-06-02 16:43:22.894,2302142350,78894,2,-0.58716,-0.09277,1.21533,9.397,-0.573,5.046
2026-06-02 16:43:22.094,2302141550,79094,1,1.07788,-0.02783,0.27393,-30.366,-5.725,-10.351
2026-06-02 16:43:22.094,2302141550,79094,2,-0.63306,-0.146,1.21948,8.092,1.939,10.863
2026-06-02 16:43:22.294,2302141750,79294,1,0.94751,0.00732,0.3418,-86.733,-10.252,4.313
2026-06-02 16:43:22.294,2302141750,79294,2,-0.4624,-0.10303,1.13232,12.298,4.366,-17.534
2026-06-02 16:43:22.494,2302141950,79494,1,1.0144,-0.24683,-0.10205,-48.008,-9.321,-47.366
2026-06-02 16:43:22.494,2302141950,79494,2,-0.59253,0.00073,1.87573,84.13,38.908,-7.947
2026-06-02 16:43:22.694,2302142150,79694,1,1.00903,0.10962,0.01685,19.29,-6.641,33.786
2026-06-02 16:43:22.694,2302142150,79694,2,-0.82813,-0.21509,1.2666,26.756,-32.427,-7.008
2026-06-02 16:43:23.894,2302143350,79894,1,1.09448,0.05396,0.18555,34.42,17.702,-24.992
2026-06-02 16:43:23.894,2302143350,79894,2,-0.646,-0.2334,1.22461,-11.458,-23.733,0.145
2026-06-02 16:43:23.094,2302142550,80094,1,0.94434,0.41821,0.33447,9.626,33.527,-53.0
2026-06-02 16:43:23.094,2302142550,80094,2,-0.46021,-0.10938,0.88916,-11.107,-36.618,-35.611
2026-06-02 16:43:23.294,2302142750,80294,1,0.93677,0.39697,0.06372,-14.634,12.015,-33.725
2026-06-02 16:43:23.294,2302142750,80294,2,-0.46802,-0.35718,1.23071,17.595,34.618,-9.573
2026-06-02 16:43:23.494,2302142950,80494,1,0.90405,0.35229,0.12402,15.115,-16.023,5.031
2026-06-02 16:43:23.494,2302142950,80494,2,-0.43774,-0.30664,1.18384,3.183,-30.985,-24.763
2026-06-02 16:43:23.694,2302143150,80694,1,1.05493,0.29688,0.07275,-17.13,-10.771,1.328
2026-06-02 16:43:23.694,2302143150,80694,2,-0.52319,-0.35913,1.38574,22.435,58.145,23.389
2026-06-02 16:43:24.894,2302144350,80894,1,0.93726,0.30737,0.1604,-17.0,4.779,-16.557
2026-06-02 16:43:24.894,2302144350,80894,2,-0.40503,-0.3501,1.26538,-9.611,7.656,5.824
2026-06-02 16:43:24.094,2302143550,81094,1,0.99927,0.20923,0.07642,24.985,0.618,7.466
2026-06-02 16:43:24.094,2302143550,81094,2,-0.38843,-0.35059,1.1333,-4.13,-31.405,-24.427
2026-06-02 16:43:24.294,2302143750,81294,1,1.02051,0.3125,0.01245,22.985,6.962,-21.244
2026-06-02 16:43:24.294,2302143750,81294,2,-0.49658,-0.27319,1.26733,-14.916,-24.733,-22.313
2026-06-02 16:43:24.494,2302143950,81494,1,0.96875,0.38013,0.03101,-14.153,5.092,-14.466
2026-06-02 16:43:24.494,2302143950,81494,2,-0.31519,-0.427,1.27856,9.168,12.893,7.214
2026-06-02 16:43:24.694,2302144150,81694,1,0.95337,0.39258,0.06299,4.542,3.099,3.458
2026-06-02 16:43:24.694,2302144150,81694,2,-0.41626,-0.33301,1.21655,-21.779,-27.763,-5.153
2026-06-02 16:43:25.894,2302145350,81894,1,0.94824,0.37134,0.0625,-12.924,-0.824,-1.336
2026-06-02 16:43:25.894,2302145350,81894,2,-0.36865,-0.33667,1.24487,-12.046,-5.71,-9.824
2026-06-02 16:43:25.094,2302144550,82094,1,0.94336,0.38477,0.07446,-11.099,-2.702,10.473
2026-06-02 16:43:25.094,2302144550,82094,2,-0.26514,-0.42822,1.26514,-0.046,2.725,7.878
2026-06-02 16:43:25.294,2302144750,82294,1,0.96387,0.37915,0.08545,-5.878,7.718,14.008
2026-06-02 16:43:25.294,2302144750,82294,2,-0.44092,-0.35059,1.13745,-12.427,-28.786,-6.618
2026-06-02 16:43:25.494,2302144950,82494,1,0.97363,0.38159,0.10083,-21.13,0.809,11.496
2026-06-02 16:43:25.494,2302144950,82494,2,-0.38013,-0.34741,1.15356,15.809,35.702,10.962
2026-06-02 16:43:25.694,2302145150,82694,1,1.03882,0.17456,0.19409,23.13,-20.344,27.435
2026-06-02 16:43:25.694,2302145150,82694,2,-0.50366,-0.27979,1.49194,7.878,-14.443,9.473
2026-06-02 16:43:26.894,2302146350,82894,1,0.89673,0.01733,0.23584,12.008,7.71,0.893
2026-06-02 16:43:26.894,2302146350,82894,2,-0.37573,0.05298,1.22095,9.763,-18.237,8.893
2026-06-02 16:43:26.094,2302145550,83094,1,0.9624,0.28027,0.22778,-25.74,4.718,14.115
2026-06-02 16:43:26.094,2302145550,83094,2,-0.55859,-0.36084,1.19678,-0.069,14.031,-24.45
2026-06-02 16:43:26.294,2302145750,83294,1,1.2522,0.22974,0.24683,-24.672,15.748,-12.053
2026-06-02 16:43:26.294,2302145750,83294,2,-0.50708,-0.26831,1.46899,77.954,14.893,39.267
2026-06-02 16:43:26.494,2302145950,83494,1,0.8833,0.2666,0.27271,11.603,-15.229,3.58
2026-06-02 16:43:26.494,2302145950,83494,2,-0.53076,-0.24927,1.31348,32.336,7.267,-11.863
2026-06-02 16:43:26.694,2302146150,83694,1,1.08984,0.07837,0.20654,-7.221,-35.252,67.305
2026-06-02 16:43:26.694,2302146150,83694,2,-0.67261,-0.20679,1.49829,68.168,7.511,-47.649
2026-06-02 16:43:27.894,2302147350,83894,1,0.87036,-0.14868,0.09155,-33.794,7.618,-20.183
2026-06-02 16:43:27.894,2302147350,83894,2,-0.45703,0.01978,1.2002,43.786,-21.153,-20.802
2026-06-02 16:43:27.094,2302146550,84094,1,1.1145,-0.30762,-0.25537,114.656,2.305,90.771
2026-06-02 16:43:27.094,2302146550,84094,2,-0.54492,0.34766,1.15405,24.847,-36.053,72.084
2026-06-02 16:43:27.294,2302146750,84294,1,0.96313,0.98706,-0.12329,-167.008,30.74,61.802
2026-06-02 16:43:27.294,2302146750,84294,2,-0.55859,0.31274,1.99994,14.885,92.405,122.779
2026-06-02 16:43:27.494,2302146950,84494,1,0.97778,-0.62891,-0.03662,59.489,-46.527,6.542
2026-06-02 16:43:27.494,2302146950,84494,2,-0.08691,0.18945,1.4978,-38.832,21.206,-15.504
2026-06-02 16:43:27.694,2302147150,84694,1,1.18213,-0.48901,-0.09131,120.58,-12.702,52.863
2026-06-02 16:43:27.694,2302147150,84694,2,-0.56836,0.20435,1.33374,-40.504,-195.053,-99.137
2026-06-02 16:43:28.894,2302148350,84894,1,1.05688,-0.42383,-0.01904,44.511,16.939,12.641
2026-06-02 16:43:28.894,2302148350,84894,2,-0.57788,0.09302,1.40552,-25.229,42.573,14.695
2026-06-02 16:43:28.094,2302147550,85094,1,0.91284,-0.33447,0.02441,-47.511,34.634,-65.427
2026-06-02 16:43:28.094,2302147550,85094,2,-0.60474,0.11816,1.39185,-12.29,58.183,-90.939
2026-06-02 16:43:28.294,2302147750,85294,1,0.95239,-0.15356,-0.1377,22.183,-37.618,-16.427
2026-06-02 16:43:28.294,2302147750,85294,2,-0.32935,0.07739,1.51001,-15.672,30.489,43.863
2026-06-02 16:43:28.535,2302147991,85535,1,0.98169,0.59473,0.5481,-104.527,148.725,-34.16
2026-06-02 16:43:28.535,2302147991,85535,2,-0.60498,0.17139,1.35229,-11.206,-57.893,19.466
2026-06-02 16:43:28.735,2302148191,85735,1,0.97852,0.09375,0.33057,96.008,-82.328,-32.595
2026-06-02 16:43:28.735,2302148191,85735,2,-0.84058,-0.21411,1.36963,-41.382,97.046,129.374
2026-06-02 16:43:29.935,2302149391,85935,1,1.14185,-0.14966,-0.51025,-204.092,-9.435,-27.458
2026-06-02 16:43:29.935,2302149391,85935,2,-0.40479,-0.16919,1.99994,-29.58,18.435,18.817
2026-06-02 16:43:29.135,2302148591,86135,1,1.02686,0.03101,-0.00342,32.519,51.511,-36.267
2026-06-02 16:43:29.135,2302148591,86135,2,-1.00244,-1.02173,1.28174,97.084,-0.115,91.313
2026-06-02 16:43:29.335,2302148791,86335,1,0.97656,0.41846,0.16113,11.214,69.802,-58.733
2026-06-02 16:43:29.335,2302148791,86335,2,-0.43848,-0.12354,0.78784,34.672,90.718,60.115
2026-06-02 16:43:29.535,2302148991,86535,1,0.8208,0.24902,0.51953,29.58,17.137,38.954
2026-06-02 16:43:29.535,2302148991,86535,2,-0.92139,-0.20972,1.15259,4.511,-3.206,12.221
2026-06-02 16:43:29.735,2302149191,86735,1,0.84253,0.43848,0.15405,29.466,18.931,-83.847
2026-06-02 16:43:29.735,2302149191,86735,2,-0.47607,-0.10181,0.99805,-46.969,-85.298,-30.786
2026-06-02 16:43:30.935,2302150391,86935,1,0.75757,0.4917,0.34155,-47.672,54.824,-40.565
2026-06-02 16:43:30.935,2302150391,86935,2,-0.52075,-0.22949,1.21948,3.817,-34.496,-7.748
2026-06-02 16:43:30.135,2302149591,87135,1,0.60669,0.47046,0.49829,8.725,7.748,5.405
2026-06-02 16:43:30.135,2302149591,87135,2,-0.14575,-0.22217,1.20459,-31.137,-86.901,-43.069
2026-06-02 16:43:30.335,2302149791,87335,1,0.66064,0.45898,0.43481,-1.015,-1.099,9.947
2026-06-02 16:43:30.335,2302149791,87335,2,-0.34766,-0.29077,1.40186,1.908,29.71,10.748
2026-06-02 16:43:30.535,2302149991,87535,1,0.65918,0.51294,0.4187,21.198,13.069,-6.267
2026-06-02 16:43:30.535,2302149991,87535,2,-0.38184,-0.21313,1.24146,6.069,-9.267,9.206
2026-06-02 16:43:30.735,2302150191,87735,1,0.6709,0.573,0.35376,-3.969,5.382,-8.504
2026-06-02 16:43:30.735,2302150191,87735,2,-0.28687,-0.19189,1.31714,4.885,52.191,25.947
2026-06-02 16:43:31.935,2302151391,87935,1,0.63599,0.57495,0.34888,-3.221,1.901,-2.031
2026-06-02 16:43:31.935,2302151391,87935,2,-0.38745,-0.32422,1.29492,7.664,40.176,14.351
2026-06-02 16:43:31.135,2302150591,88135,1,0.64038,0.55322,0.38501,-7.061,4.939,-0.458
2026-06-02 16:43:31.135,2302150591,88135,2,-0.48511,-0.22656,1.36523,-0.168,-7.275,-4.947
2026-06-02 16:43:31.335,2302150791,88335,1,0.64697,0.57617,0.37817,0.931,-1.107,4.374
2026-06-02 16:43:31.335,2302150791,88335,2,-0.41626,-0.2605,1.36133,-0.42,10.405,7.061
2026-06-02 16:43:31.535,2302150991,88535,1,0.59985,0.65259,0.35254,28.931,-10.977,19.901
2026-06-02 16:43:31.535,2302150991,88535,2,-0.38428,-0.25024,1.28101,-2.504,-1.145,0.122
2026-06-02 16:43:31.735,2302151191,88735,1,0.66089,0.60791,0.34155,-2.603,1.443,-1.458
2026-06-02 16:43:31.735,2302151191,88735,2,-0.4231,-0.23584,1.2959,-5.656,-7.863,-3.496
2026-06-02 16:43:32.935,2302152391,88935,1,0.66992,0.60352,0.33472,1.626,-0.229,3.336
2026-06-02 16:43:32.935,2302152391,88935,2,-0.43848,-0.23218,1.29639,-0.557,-1.328,-0.076
2026-06-02 16:43:32.135,2302151591,89135,1,0.6438,0.56812,0.36987,-29.626,-0.74,-13.328
2026-06-02 16:43:32.135,2302151591,89135,2,-0.39331,-0.2561,1.29688,-9.489,-17.115,-8.473
2026-06-02 16:43:32.335,2302151791,89335,1,0.65625,0.59497,0.35986,5.55,0.397,4.847
2026-06-02 16:43:32.335,2302151791,89335,2,-0.39746,-0.25781,1.29834,-1.191,-0.45,-1.496
2026-06-02 16:43:32.535,2302151991,89535,1,0.61182,0.5498,0.45581,-37.443,-12.267,-19.702
2026-06-02 16:43:32.535,2302151991,89535,2,-0.40381,-0.24976,1.28955,3.107,11.359,9.221
2026-06-02 16:43:32.735,2302152191,89735,1,0.62451,0.55444,0.46387,8.0,-2.634,6.069
2026-06-02 16:43:32.735,2302152191,89735,2,-0.46411,-0.21875,1.28369,0.893,7.16,4.649
2026-06-02 16:43:33.935,2302153391,89935,1,0.63843,0.56592,0.43042,1.046,-0.183,1.725
2026-06-02 16:43:33.935,2302153391,89935,2,-0.47583,-0.22583,1.29565,3.977,12.771,9.031
2026-06-02 16:43:33.135,2302152591,90135,1,0.63843,0.56421,0.37915,10.527,2.244,5.557
2026-06-02 16:43:33.135,2302152591,90135,2,-0.44824,-0.20679,1.2085,-6.382,1.863,0.336
2026-06-02 16:43:33.335,2302152791,90335,1,0.62866,0.55664,0.43921,-6.023,2.122,-3.779
2026-06-02 16:43:33.335,2302152791,90335,2,-0.58472,-0.24829,1.26343,-6.573,5.305,3.038
2026-06-02 16:43:33.535,2302152991,90535,1,0.62769,0.58691,0.38037,13.084,3.214,4.71
2026-06-02 16:43:33.535,2302152991,90535,2,-0.50342,-0.16211,1.1604,-1.695,-1.107,-1.985
2026-06-02 16:43:33.735,2302153191,90735,1,0.63525,0.61328,0.31421,51.595,30.427,10.153
2026-06-02 16:43:33.735,2302153191,90735,2,-0.4624,-0.14429,1.24219,-7.557,-16.794,-14.023
2026-06-02 16:43:34.935,2302154391,90935,1,0.41211,0.64502,0.31836,14.519,-1.695,-1.954
2026-06-02 16:43:34.935,2302154391,90935,2,-0.45142,-0.19897,1.27637,-15.061,-22.611,-14.275
2026-06-02 16:43:34.135,2302153591,91135,1,0.54517,0.69092,0.36206,-4.763,-0.435,-1.336
2026-06-02 16:43:34.135,2302153591,91135,2,-0.37402,-0.29346,1.30566,0.237,9.191,6.779
2026-06-02 16:43:34.335,2302153791,91335,1,0.55762,0.68555,0.37012,-5.908,-3.168,1.137
2026-06-02 16:43:34.335,2302153791,91335,2,-0.43823,-0.24878,1.26831,2.771,8.053,2.809
2026-06-02 16:43:34.535,2302153991,91535,1,0.52905,0.70044,0.35767,-5.008,1.885,-4.573
2026-06-02 16:43:34.535,2302153991,91535,2,-0.42554,-0.2793,1.32056,-2.695,-6.527,-0.756
2026-06-02 16:43:34.735,2302154191,91735,1,0.52466,0.69897,0.38403,-1.603,-0.244,0.504
2026-06-02 16:43:34.735,2302154191,91735,2,-0.37183,-0.27661,1.29614,-3.344,-2.527,-4.679
2026-06-02 16:43:35.935,2302155391,91935,1,0.5293,0.68628,0.35449,-3.878,1.893,0.511
2026-06-02 16:43:35.935,2302155391,91935,2,-0.34595,-0.28516,1.29907,-3.427,-8.962,-8.519
2026-06-02 16:43:35.135,2302154591,92135,1,0.52734,0.65552,0.38452,-7.855,0.305,1.412
2026-06-02 16:43:35.135,2302154591,92135,2,-0.31274,-0.31567,1.30615,2.733,4.176,2.008
2026-06-02 16:43:35.335,2302154791,92335,1,0.52954,0.66504,0.4165,-7.351,-2.145,0.015
2026-06-02 16:43:35.335,2302154791,92335,2,-0.24341,-0.33618,1.33813,-3.832,0.771,2.595
2026-06-02 16:43:35.535,2302154991,92535,1,0.52588,0.66895,0.42871,-0.969,-1.74,1.626
2026-06-02 16:43:35.535,2302154991,92535,2,-0.24268,-0.29077,1.32983,3.16,14.756,10.626
2026-06-02 16:43:35.735,2302155191,92735,1,0.53027,0.66675,0.4165,25.252,-48.756,38.649
2026-06-02 16:43:35.735,2302155191,92735,2,-0.42163,-0.27075,1.32178,18.427,71.863,53.519
2026-06-02 16:43:36.935,2302156391,92935,1,0.58276,0.64575,0.30176,0.809,6.45,-7.321
2026-06-02 16:43:36.935,2302156391,92935,2,-0.51294,-0.21313,1.33472,-6.481,-3.947,-26.221
2026-06-02 16:43:36.135,2302155591,93135,1,0.552,0.68481,0.34766,-9.183,13.29,-11.496
2026-06-02 16:43:36.135,2302155591,93135,2,-0.3252,-0.44604,1.4375,25.947,63.26,66.634
2026-06-02 16:43:36.335,2302155791,93335,1,0.5459,0.66626,0.29517,12.641,-2.496,-2.695
2026-06-02 16:43:36.335,2302155791,93335,2,-0.49097,-0.57251,0.9856,-82.588,-181.489,-37.618
2026-06-02 16:43:36.535,2302155991,93535,1,0.3562,0.4646,0.66138,-84.412,-7.435,-47.511
2026-06-02 16:43:36.535,2302155991,93535,2,0.49146,-0.58057,1.14624,-35.0,-76.534,-35.969
2026-06-02 16:43:36.735,2302156191,93735,1,0.60815,0.40161,0.65259,37.55,-44.443,-2.038
2026-06-02 16:43:36.735,2302156191,93735,2,0.50928,-0.42505,1.05811,28.504,-0.015,19.542
2026-06-02 16:43:37.935,2302157391,93935,1,0.63745,0.41504,0.43408,15.366,-20.756,-3.191
2026-06-02 16:43:37.935,2302157391,93935,2,0.41431,-0.45898,1.21631,15.069,57.046,14.901
2026-06-02 16:43:37.135,2302156591,94135,1,0.64502,0.47266,0.57715,21.679,-24.008,12.817
2026-06-02 16:43:37.135,2302156591,94135,2,0.1936,-0.15454,1.34863,47.244,83.534,21.992
2026-06-02 16:43:37.335,2302156791,94335,1,0.80054,0.4519,0.39771,-15.992,-0.29,-20.962
2026-06-02 16:43:37.335,2302156791,94335,2,-0.18286,-0.18408,1.27637,-2.031,7.099,39.206
2026-06-02 16:43:37.724,2302157180,94724,1,0.9541,0.44897,0.26099,-25.84,28.412,18.092
2026-06-02 16:43:37.724,2302157180,94724,2,0.00684,-0.30469,1.20996,16.061,-19.252,-5.29
2026-06-02 16:43:38.924,2302158380,94924,1,0.8916,0.23364,0.26733,-3.786,-3.924,-11.885
2026-06-02 16:43:38.924,2302158380,94924,2,0.18384,-0.41504,1.31909,-2.092,-46.618,-10.427
2026-06-02 16:43:38.124,2302157580,95124,1,0.82739,0.448,0.36865,-56.122,3.168,-10.702
2026-06-02 16:43:38.124,2302157580,95124,2,0.27051,-0.48315,1.34595,-5.137,-17.786,-5.534
2026-06-02 16:43:38.324,2302157780,95324,1,0.77954,0.4707,0.49512,-72.74,69.008,17.137
2026-06-02 16:43:38.324,2302157780,95324,2,0.08374,-0.32739,1.16479,-25.427,-26.328,-12.557
2026-06-02 16:43:38.524,2302157980,95524,1,0.61328,-0.04907,0.59741,10.748,16.008,65.519
2026-06-02 16:43:38.524,2302157980,95524,2,0.08643,-0.27148,1.27295,27.763,52.405,27.672
2026-06-02 16:43:38.724,2302158180,95724,1,0.81763,-0.29639,0.57886,59.771,-33.527,28.214
2026-06-02 16:43:38.724,2302158180,95724,2,-0.07202,-0.34888,1.52588,19.061,20.473,44.389
2026-06-02 16:43:39.924,2302159380,95924,1,0.74097,-0.16113,0.41821,46.977,-38.115,5.519
2026-06-02 16:43:39.924,2302159380,95924,2,-0.02197,-0.34888,1.31128,-5.237,9.42,1.977
2026-06-02 16:43:39.124,2302158580,96124,1,0.97021,0.05054,0.5249,2.008,24.756,16.55
2026-06-02 16:43:39.124,2302158580,96124,2,-0.10474,-0.39575,1.42236,-17.443,-25.695,-48.344
2026-06-02 16:43:39.324,2302158780,96324,1,0.76123,-0.04639,0.63599,3.542,39.122,-3.534
2026-06-02 16:43:39.324,2302158780,96324,2,-0.31885,-0.2876,1.29541,-7.748,12.275,-6.794
2026-06-02 16:43:39.524,2302158980,96524,1,0.85669,-0.03271,0.52173,26.023,-32.573,-30.244
2026-06-02 16:43:39.524,2302158980,96524,2,-0.17773,-0.42114,1.45972,-11.58,4.534,35.847
2026-06-02 16:43:39.724,2302159180,96724,1,0.7749,0.08838,0.47217,-8.031,22.718,-12.878
2026-06-02 16:43:39.724,2302159180,96724,2,-0.10132,-0.39429,1.3396,0.115,-14.824,-22.992
2026-06-02 16:43:40.924,2302160380,96924,1,0.71631,0.02441,0.6438,4.0,7.336,-2.076
2026-06-02 16:43:40.924,2302160380,96924,2,-0.22241,-0.31592,1.2915,5.962,8.977,17.298
2026-06-02 16:43:40.124,2302159580,97124,1,0.70923,0.11328,0.54688,-0.908,6.145,-6.679
2026-06-02 16:43:40.124,2302159580,97124,2,-0.17798,-0.3916,1.34009,-4.214,16.282,21.626
2026-06-02 16:43:40.324,2302159780,97324,1,0.72046,0.14673,0.59473,4.351,16.992,-13.985
2026-06-02 16:43:40.324,2302159780,97324,2,-0.1958,-0.44751,1.35547,-12.183,-15.053,-11.519
2026-06-02 16:43:40.524,2302159980,97524,1,0.64307,0.20459,0.63672,14.359,19.756,-17.473
2026-06-02 16:43:40.524,2302159980,97524,2,-0.15405,-0.26855,1.25244,11.893,35.435,33.71
2026-06-02 16:43:40.724,2302160180,97724,1,0.6062,0.25854,0.63843,11.511,12.84,-18.863
2026-06-02 16:43:40.724,2302160180,97724,2,-0.20288,-0.48608,1.32153,10.679,16.221,22.221
2026-06-02 16:43:41.940,2302161396,97940,1,0.61475,0.44922,0.59302,48.252,-16.206,-6.779
2026-06-02 16:43:41.940,2302161396,97940,2,-0.32227,-0.32104,1.31885,11.244,11.557,8.221
2026-06-02 16:43:41.140,2302160596,98140,1,0.56445,0.41919,0.50244,-6.443,-0.748,-17.534
2026-06-02 16:43:41.140,2302160596,98140,2,-0.2085,-0.27832,1.2312,12.427,14.107,27.023
2026-06-02 16:43:41.340,2302160796,98340,1,0.57715,0.42505,0.55835,-24.718,15.603,-4.87
2026-06-02 16:43:41.340,2302160796,98340,2,-0.27319,-0.19678,1.15674,-11.977,-25.282,13.672
2026-06-02 16:43:41.540,2302160996,98540,1,0.59741,0.43774,0.47754,-17.611,4.427,-2.511
2026-06-02 16:43:41.540,2302160996,98540,2,-0.48364,-0.29443,1.43481,12.71,35.809,-15.695
2026-06-02 16:43:41.740,2302161196,98740,1,0.46924,0.44214,0.53223,17.489,-13.336,-30.58
2026-06-02 16:43:41.740,2302161196,98740,2,-0.04004,-0.42529,1.50195,-24.84,-37.71,-23.397
2026-06-02 16:43:42.940,2302162396,98940,1,0.45215,0.57324,0.74316,-57.183,57.534,-7.107
2026-06-02 16:43:42.940,2302162396,98940,2,-0.4646,-0.41357,1.47217,0.496,-8.565,-4.733
2026-06-02 16:43:42.140,2302161596,99140,1,0.36719,0.46118,0.67261,7.115,-46.977,24.305
2026-06-02 16:43:42.140,2302161596,99140,2,-0.11206,-0.34131,1.13867,13.725,33.595,46.786
2026-06-02 16:43:42.340,2302161796,99340,1,0.61084,0.3894,0.57202,-18.58,23.534,2.053
2026-06-02 16:43:42.340,2302161796,99340,2,-0.13354,-0.45703,1.2749,-24.099,-59.328,-51.695
2026-06-02 16:43:42.540,2302161996,99540,1,0.5918,0.21973,0.60596,-12.664,6.863,-22.809
2026-06-02 16:43:42.540,2302161996,99540,2,-0.02148,-0.01074,0.97485,-25.802,2.641,-16.389
2026-06-02 16:43:42.740,2302162196,99740,1,0.7229,0.14282,0.61963,52.931,-54.687,26.26
2026-06-02 16:43:42.740,2302162196,99740,2,-0.09155,-0.31079,1.42944,-53.275,-51.908,-104.924
2026-06-02 16:43:43.940,2302163396,99940,1,0.80029,0.22974,0.48145,5.809,-8.863,41.183
2026-06-02 16:43:43.940,2302163396,99940,2,-0.42896,-0.46802,1.57422,62.336,40.626,73.336
2026-06-02 16:43:43.140,2302162596,100140,1,0.68042,0.14185,0.50342,-2.71,-34.015,47.13
2026-06-02 16:43:43.140,2302162596,100140,2,-0.3103,0.05542,1.34863,62.114,32.145,39.534
2026-06-02 16:43:43.340,2302162796,100340,1,0.97021,-0.09839,0.2959,-41.489,-27.076,66.855
2026-06-02 16:43:43.340,2302162796,100340,2,-0.13501,0.13574,1.47974,61.115,27.924,77.466
2026-06-02 16:43:43.540,2302162996,100540,1,0.87012,-0.28418,0.19336,-14.969,-28.573,61.947
2026-06-02 16:43:43.540,2302162996,100540,2,-0.45313,-0.02051,1.19653,16.611,10.099,35.137
2026-06-02 16:43:43.740,2302163196,100740,1,0.9751,-0.15771,0.23193,23.786,-30.405,44.992
2026-06-02 16:43:43.740,2302163196,100740,2,-0.3269,0.19678,1.32446,33.305,59.725,-12.405
2026-06-02 16:43:44.940,2302164396,100940,1,0.96045,-0.1731,0.14844,46.603,-2.695,45.611
2026-06-02 16:43:44.940,2302164396,100940,2,-0.396,0.08301,1.44434,12.061,-37.0,26.809
2026-06-02 16:43:44.140,2302163596,101140,1,0.82324,-0.44897,0.23291,0.626,-9.359,38.504
2026-06-02 16:43:44.140,2302163596,101140,2,-0.47168,0.04419,1.34058,-6.58,-17.237,4.237
2026-06-02 16:43:44.340,2302163796,101340,1,0.91187,-0.52515,0.08447,-105.344,-8.336,-12.947
2026-06-02 16:43:44.340,2302163796,101340,2,-0.43091,0.21973,1.38159,13.763,40.603,-23.374
2026-06-02 16:43:44.540,2302163996,101540,1,0.96436,-0.40356,-0.07373,-41.046,44.015,-18.321
2026-06-02 16:43:44.540,2302163996,101540,2,-0.38867,0.19995,1.24268,-5.13,-30.153,-10.763
2026-06-02 16:43:44.740,2302164196,101740,1,0.84546,-0.65576,-0.00098,-11.305,16.069,-8.092
2026-06-02 16:43:44.740,2302164196,101740,2,-0.01294,0.47705,1.31226,126.74,-136.634,50.985
2026-06-02 16:43:45.940,2302165396,101940,1,0.92456,-0.47388,0.0293,-3.015,3.733,-12.328
2026-06-02 16:43:45.940,2302165396,101940,2,-0.85547,-1.37427,1.99994,-107.885,109.565,208.634
2026-06-02 16:43:45.140,2302164596,102140,1,0.86304,-0.63379,0.11304,20.099,43.305,-20.992
2026-06-02 16:43:45.140,2302164596,102140,2,0.25903,0.97729,0.93604,120.153,235.321,99.252
2026-06-02 16:43:45.340,2302164796,102340,1,1.02808,-0.50146,0.14795,37.611,2.939,-27.321
2026-06-02 16:43:45.340,2302164796,102340,2,0.10718,0.88232,1.17358,-11.084,-208.519,0.603
2026-06-02 16:43:45.540,2302164996,102540,1,1.16504,-0.33398,0.22241,59.099,60.107,50.42
2026-06-02 16:43:45.540,2302164996,102540,2,0.21875,0.69971,1.99994,-32.198,72.802,66.802
2026-06-02 16:43:45.740,2302165196,102740,1,0.78833,-0.02051,0.56152,3.824,-5.374,47.542
2026-06-02 16:43:45.740,2302165196,102740,2,-0.11279,0.69043,0.89844,-19.847,-49.412,-14.939
2026-06-02 16:43:46.940,2302166396,102940,1,0.72778,-0.32471,0.25757,12.374,-38.702,77.099
2026-06-02 16:43:46.940,2302166396,102940,2,0.52734,0.75098,1.0166,59.344,-43.481,-22.878
2026-06-02 16:43:46.140,2302165596,103140,1,0.76782,-0.42065,0.05298,15.725,38.374,40.87
2026-06-02 16:43:46.140,2302165596,103140,2,0.04639,0.58862,0.927,-1.084,-25.649,-10.573
2026-06-02 16:43:46.340,2302165796,103340,1,0.54639,-0.38135,0.34424,-23.893,40.489,-58.282
2026-06-02 16:43:46.340,2302165796,103340,2,0.17505,0.52466,0.81787,-33.878,30.45,-116.947
2026-06-02 16:43:46.540,2302165996,103540,1,0.23169,1.15576,1.05542,-102.511,84.015,-250.137
2026-06-02 16:43:46.540,2302165996,103540,2,-0.13818,0.54712,0.97314,73.809,-221.588,-250.137
2026-06-02 16:43:46.740,2302166196,103740,1,0.94482,-0.40112,-0.45972,-250.137,-20.542,-31.427
2026-06-02 16:43:46.740,2302166196,103740,2,0.56787,0.46729,1.77637,76.802,-250.137,89.695
2026-06-02 16:43:47.940,2302167396,103940,1,0.76465,-0.18481,-0.39819,-18.901,160.084,136.527
2026-06-02 16:43:47.940,2302167396,103940,2,0.35327,0.86865,0.7417,-94.542,110.336,139.542
2026-06-02 16:43:47.140,2302166596,104140,1,1.05811,-0.82788,0.02539,180.779,-136.771,241.924
2026-06-02 16:43:47.140,2302166596,104140,2,0.76172,0.52637,1.39185,-36.534,-59.336,45.786
2026-06-02 16:43:47.340,2302166796,104340,1,0.94556,-0.87915,-0.35571,168.252,-42.359,250.13
2026-06-02 16:43:47.340,2302166796,104340,2,1.05811,0.50317,1.13086,-7.84,-75.229,-9.305
2026-06-02 16:43:47.540,2302166996,104540,1,0.39307,-0.87622,0.3457,-5.481,-76.366,48.519
2026-06-02 16:43:47.540,2302166996,104540,2,0.67822,0.53345,0.65088,-35.145,-25.802,-67.244
2026-06-02 16:43:47.740,2302167196,104740,1,0.27905,-0.88501,0.48584,-55.008,-125.786,106.198
2026-06-02 16:43:47.740,2302167196,104740,2,0.84839,0.05737,0.78906,-36.557,59.931,81.015
2026-06-02 16:43:48.940,2302168396,104940,1,0.20435,-1.02124,-0.04272,-4.771,-36.305,21.305
2026-06-02 16:43:48.940,2302168396,104940,2,0.74268,-0.1084,1.09082,37.244,48.695,122.0
2026-06-02 16:43:48.140,2302167596,105140,1,0.23438,-0.88135,0.51074,6.519,42.504,-17.282
2026-06-02 16:43:48.140,2302167596,105140,2,0.62622,-0.07813,1.07104,-17.252,5.0,-73.359
2026-06-02 16:43:48.340,2302167796,105340,1,0.40137,-0.85645,0.28638,17.649,10.382,-0.443
2026-06-02 16:43:48.340,2302167796,105340,2,0.72998,-0.00293,1.12158,-36.45,28.374,-33.099
2026-06-02 16:43:48.540,2302167996,105540,1,0.46875,-0.92896,0.00317,-44.458,-18.58,-25.115
2026-06-02 16:43:48.540,2302167996,105540,2,0.87012,0.05005,1.01294,-3.061,-7.45,75.015
2026-06-02 16:43:48.740,2302168196,105740,1,0.02075,-0.85254,0.46265,11.931,-12.29,37.206
2026-06-02 16:43:48.740,2302168196,105740,2,0.7229,0.01318,1.15991,-17.87,-2.29,5.206
2026-06-02 16:43:49.940,2302169396,105940,1,-0.13525,-1.40161,0.17676,-109.824,-29.542,121.183
2026-06-02 16:43:49.940,2302169396,105940,2,0.7561,0.25732,1.17676,154.313,63.481,60.702
2026-06-02 16:43:49.140,2302168596,106140,1,-0.16943,-1.10327,-0.06641,-38.786,-4.817,30.328
2026-06-02 16:43:49.140,2302168596,106140,2,0.71582,0.2749,0.96973,5.55,22.802,-20.107
2026-06-02 16:43:49.340,2302168796,106340,1,-0.25293,-1.00903,-0.15454,41.557,-31.427,130.336
2026-06-02 16:43:49.340,2302168796,106340,2,0.74561,0.39307,0.96704,-41.565,-34.038,0.725
2026-06-02 16:43:49.540,2302168996,106540,1,-0.35547,-1.11865,-0.17261,-35.061,1.031,-34.366
2026-06-02 16:43:49.540,2302168996,106540,2,0.3374,0.39063,1.09302,-18.038,-9.198,-2.931
2026-06-02 16:43:49.740,2302169196,106740,1,-0.26074,-1.16919,-0.43335,-2.084,-39.221,65.435
2026-06-02 16:43:49.740,2302169196,106740,2,0.92993,0.26685,1.25269,-9.107,35.458,-62.405
2026-06-02 16:43:50.940,2302170396,106940,1,-0.36353,-1.50879,-0.14063,-30.015,37.298,-140.008
2026-06-02 16:43:50.940,2302170396,106940,2,0.65796,0.28418,0.95361,14.16,52.55,27.863
2026-06-02 16:43:50.140,2302169596,107140,1,-0.04443,-0.979,-0.00439,-9.794,-99.069,71.588
2026-06-02 16:43:50.140,2302169596,107140,2,0.90454,0.32324,1.07642,-57.0,-4.16,-12.763
2026-06-02 16:43:50.340,2302169796,107340,1,-0.13184,-1.07275,-0.13794,26.779,9.26,10.099
2026-06-02 16:43:50.340,2302169796,107340,2,0.73389,0.33447,1.00757,-30.359,-7.145,-57.634
2026-06-02 16:43:50.540,2302169996,107540,1,-0.30566,-0.82544,0.06372,1.924,28.962,20.527
2026-06-02 16:43:50.540,2302169996,107540,2,0.45435,0.21313,1.06494,4.198,-45.718,25.824
2026-06-02 16:43:50.740,2302170196,107740,1,0.28076,-2.0,0.24976,250.13,-235.16,250.13
2026-06-02 16:43:50.740,2302170196,107740,2,0.99243,-0.00537,1.91064,114.26,88.71,3.298
2026-06-02 16:43:51.940,2302171396,107940,1,0.3103,-0.56714,-0.03491,17.481,-44.359,-108.855
2026-06-02 16:43:51.940,2302171396,107940,2,0.68481,0.42358,1.02246,-2.908,5.145,12.481
2026-06-02 16:43:51.140,2302170596,108140,1,0.84229,-0.21021,-0.13867,-25.855,-51.55,250.13
2026-06-02 16:43:51.140,2302170596,108140,2,0.91211,0.35571,1.16553,-59.237,36.985,-25.954
2026-06-02 16:43:51.340,2302170796,108340,1,-0.10522,-1.16943,0.31177,-13.466,-19.046,147.481
2026-06-02 16:43:51.340,2302170796,108340,2,0.60254,0.53418,1.0498,-21.397,11.221,-56.939
2026-06-02 16:43:51.540,2302170996,108540,1,-0.16675,-1.14331,0.29053,26.092,26.389,-101.954
2026-06-02 16:43:51.540,2302170996,108540,2,0.63086,0.29785,1.22778,34.55,9.191,42.344
2026-06-02 16:43:51.740,2302171196,108740,1,0.09888,-1.14746,0.12939,28.809,16.344,-72.359
2026-06-02 16:43:51.740,2302171196,108740,2,0.68335,0.38379,1.16846,26.878,6.198,6.702
2026-06-02 16:43:52.940,2302172396,108940,1,0.30225,-0.7478,0.00854,-44.626,-13.718,64.221
2026-06-02 16:43:52.940,2302172396,108940,2,0.5603,0.37231,1.14258,-50.374,-38.282,-16.863
2026-06-02 16:43:52.140,2302171596,109140,1,0.01001,-0.76831,0.43384,-0.542,65.176,56.099
2026-06-02 16:43:52.140,2302171596,109140,2,0.6582,0.37915,1.03906,-79.389,-49.626,-1.481
2026-06-02 16:43:52.340,2302171796,109340,1,0.32544,-0.83618,0.10693,8.076,-3.015,-6.748
2026-06-02 16:43:52.340,2302171796,109340,2,0.83496,-0.22021,1.14502,-117.802,-26.786,25.565
2026-06-02 16:43:52.540,2302171996,109540,1,-0.06226,-0.75073,0.3916,45.817,-3.466,-26.206
2026-06-02 16:43:52.540,2302171996,109540,2,0.68433,0.4873,1.14429,117.458,-15.427,59.374
2026-06-02 16:43:53.791,2302173247,109791,1,0.34448,-0.77246,0.34985,13.916,-3.595,-14.931
2026-06-02 16:43:53.791,2302173247,109791,2,0.84644,0.21338,0.88037,-43.969,-90.634,-24.115
2026-06-02 16:43:53.485,2302172941,110485,1,0.12061,-0.88257,0.125,-66.664,-36.618,-101.931
2026-06-02 16:43:53.485,2302172941,110485,2,0.98657,-0.41455,1.40356,-107.679,-108.58,-32.87
2026-06-02 16:43:53.739,2302173195,110739,1,-0.56177,-0.92871,1.31006,248.321,-250.137,-37.656
2026-06-02 16:43:53.739,2302173195,110739,2,0.10669,0.48364,1.51416,227.969,-117.824,250.13
2026-06-02 16:43:54.939,2302174395,110939,1,0.66919,-0.9187,0.32764,-62.26,-38.214,-40.595
2026-06-02 16:43:54.939,2302174395,110939,2,0.77368,0.20361,0.95044,-33.466,4.672,72.756
2026-06-02 16:43:54.139,2302173595,111139,1,1.00269,0.09985,-1.78589,-88.16,247.824,70.565
2026-06-02 16:43:54.139,2302173595,111139,2,1.07568,-0.22559,1.22388,-139.153,63.305,-70.756
2026-06-02 16:43:54.339,2302173795,111339,1,0.28467,-0.90723,0.74609,43.023,-16.405,-36.115
2026-06-02 16:43:54.339,2302173795,111339,2,0.67529,-0.28369,0.92896,59.534,-22.145,54.351
2026-06-02 16:43:54.539,2302173995,111539,1,0.84277,-0.69849,0.04468,18.145,5.87,-48.924
2026-06-02 16:43:54.539,2302173995,111539,2,0.61572,-0.36938,1.10254,-95.557,98.924,-126.046
2026-06-02 16:43:54.739,2302174195,111739,1,0.80249,-1.05029,0.15479,-250.137,119.412,-99.725
2026-06-02 16:43:54.739,2302174195,111739,2,0.32593,0.19141,0.88818,73.702,-124.344,40.122
2026-06-02 16:43:55.939,2302175395,111939,1,0.76758,-0.37793,0.44409,166.092,96.031,-47.87
2026-06-02 16:43:55.939,2302175395,111939,2,1.40845,0.30225,1.07178,-39.504,111.847,-160.008
2026-06-02 16:43:55.139,2302174595,112139,1,1.81177,1.37964,-0.23291,250.13,114.45,250.13
2026-06-02 16:43:55.139,2302174595,112139,2,0.51855,0.1875,1.7583,92.427,41.534,-103.252
2026-06-02 16:43:55.339,2302174795,112339,1,0.96826,-1.12915,-0.26489,-78.725,173.076,-159.916
2026-06-02 16:43:55.339,2302174795,112339,2,0.81909,0.44067,1.05469,-142.519,35.977,-144.008
2026-06-02 16:43:55.539,2302174995,112539,1,0.99561,-0.27393,0.53418,-80.969,26.191,-75.756
2026-06-02 16:43:55.539,2302174995,112539,2,0.58789,0.55835,1.12378,-63.092,32.443,-74.252
2026-06-02 16:43:55.739,2302175195,112739,1,0.85791,0.24976,0.18066,32.359,30.725,25.122
2026-06-02 16:43:55.739,2302175195,112739,2,0.67749,-0.03882,1.19824,-72.977,44.664,-65.916
2026-06-02 16:43:56.939,2302176395,112939,1,0.66895,-0.05737,1.40039,-150.183,103.687,-105.069
2026-06-02 16:43:56.939,2302176395,112939,2,0.58105,0.00024,1.31665,16.733,89.603,2.969
2026-06-02 16:43:56.139,2302175595,113139,1,1.29395,-0.0022,0.57788,213.626,-47.008,17.847
2026-06-02 16:43:56.139,2302175595,113139,2,-0.44116,-0.23682,1.99994,60.947,-138.031,-53.603
2026-06-02 16:43:56.339,2302175795,113339,1,0.80542,-0.04761,0.01318,-128.939,54.122,29.893
2026-06-02 16:43:56.339,2302175795,113339,2,0.76953,-0.12305,0.46729,90.076,250.13,66.084
2026-06-02 16:43:56.539,2302175995,113539,1,0.9104,-0.57397,-0.04565,140.412,-15.542,-70.26
2026-06-02 16:43:56.539,2302175995,113539,2,0.4624,0.38574,1.07422,-37.023,-119.382,-55.832
2026-06-02 16:43:56.739,2302176195,113739,1,0.87769,-0.55151,0.57446,102.771,67.145,-14.863
2026-06-02 16:43:56.739,2302176195,113739,2,-0.45801,-0.31812,1.88965,-6.26,230.641,22.74
2026-06-02 16:43:57.939,2302177395,113939,1,0.97876,-0.25049,0.03394,-7.687,25.893,-72.008
2026-06-02 16:43:57.939,2302177395,113939,2,0.72729,0.12427,0.98169,-54.916,45.29,-123.74
2026-06-02 16:43:57.139,2302176595,114139,1,0.62939,0.33032,0.1731,124.687,-159.84,38.534
2026-06-02 16:43:57.139,2302176595,114139,2,0.52441,0.22974,1.50122,85.878,35.42,92.794
2026-06-02 16:43:57.339,2302176795,114339,1,1.00244,-0.2771,0.08716,236.008,29.237,-9.29
2026-06-02 16:43:57.339,2302176795,114339,2,0.25024,0.59937,1.31226,-12.389,41.626,26.313
2026-06-02 16:43:57.564,2302177020,114563,1,0.83667,-0.16528,0.26294,-130.267,-153.595,44.985
2026-06-02 16:43:57.564,2302177020,114563,2,-0.26416,0.77222,1.35327,-30.649,-107.985,-15.84
2026-06-02 16:43:57.763,2302177219,114763,1,0.80737,-0.17358,-0.1145,124.389,49.992,-38.885
2026-06-02 16:43:57.763,2302177219,114763,2,-0.19263,0.58398,0.74634,-69.786,-67.298,-63.916
2026-06-02 16:43:58.963,2302178419,114963,1,1.0791,0.0188,0.10742,-13.847,-12.389,1.802
2026-06-02 16:43:58.963,2302178419,114963,2,0.18604,0.53003,1.22949,14.382,6.405,19.458
2026-06-02 16:43:58.163,2302177619,115163,1,0.75146,0.30908,0.05542,-26.832,-41.924,39.969
2026-06-02 16:43:58.163,2302177619,115163,2,0.1626,0.60474,1.23633,19.122,33.038,20.053
2026-06-02 16:43:58.363,2302177819,115363,1,0.94702,-0.09204,0.23486,-8.947,39.053,68.137
2026-06-02 16:43:58.363,2302177819,115363,2,0.1875,0.59985,1.17651,8.939,7.527,6.435
2026-06-02 16:43:58.563,2302178019,115563,1,0.96387,0.04224,0.4917,37.038,28.702,-26.504
2026-06-02 16:43:58.563,2302178019,115563,2,0.18579,0.64404,1.18286,1.015,-6.16,-3.931
2026-06-02 16:43:58.763,2302178219,115763,1,0.82251,0.04492,0.50195,-104.58,57.176,-7.198
2026-06-02 16:43:58.763,2302178219,115763,2,0.19067,0.646,1.13428,-5.885,-4.824,7.679
2026-06-02 16:43:59.963,2302179419,115963,1,0.8125,-0.06982,0.4585,-22.397,-36.221,-10.977
2026-06-02 16:43:59.963,2302179419,115963,2,0.25073,0.6189,1.18286,9.656,9.389,9.183
2026-06-02 16:43:59.163,2302178619,116163,1,0.81885,-0.23267,0.40845,-48.641,47.359,20.397
2026-06-02 16:43:59.163,2302178619,116163,2,0.28857,0.6543,1.12939,-0.519,-3.092,2.26
2026-06-02 16:43:59.363,2302178819,116363,1,0.67407,-0.08765,0.63452,187.893,-16.397,99.198
2026-06-02 16:43:59.363,2302178819,116363,2,0.26978,0.73584,1.27271,2.053,-12.824,3.061
2026-06-02 16:43:59.563,2302179019,116563,1,0.85693,-0.16846,0.40918,-0.183,0.244,1.076
2026-06-02 16:43:59.563,2302179019,116563,2,0.32104,0.59033,1.14014,-4.061,2.206,8.473
2026-06-02 16:43:59.763,2302179219,116763,1,0.89429,-0.12671,0.40405,2.137,-13.443,-4.275
2026-06-02 16:43:59.763,2302179219,116763,2,0.29346,0.60791,1.19556,-8.252,4.153,3.42
2026-06-02 16:44:00.963,2302180419,116963,1,0.93701,-0.11914,0.29614,-10.626,-2.656,1.237
2026-06-02 16:44:00.963,2302180419,116963,2,0.64063,1.65112,1.81104,250.13,250.13,16.435
2026-06-02 16:44:00.163,2302179619,117163,1,0.96167,-0.12842,0.38086,2.954,7.748,7.115
2026-06-02 16:44:00.163,2302179619,117163,2,12.125,-0.09424,,,,236.45
2026-06-02 16:44:00.363,2302179819,117363,1,0.91211,-0.13477,0.36768,-1.565,0.832,-0.115
2026-06-02 16:44:00.363,2302179819,117363,2,0.72363,0.24414,0.06177,-15.786,-39.527,91.313
2026-06-02 16:44:00.563,2302180019,117563,1,0.90552,-0.13745,0.36255,-5.656,-1.267,-3.427
2026-06-02 16:44:00.563,2302180019,117563,2,0.66479,0.26367,0.17236,-37.855,-50.985,-39.45
2026-06-02 16:44:00.763,2302180219,117763,1,0.92773,-0.14209,0.34961,-0.26,-4.267,-2.084
2026-06-02 16:44:00.763,2302180219,117763,2,0.52759,0.78418,-0.27905,60.176,-37.26,-65.832
2026-06-02 16:44:01.963,2302181419,117963,1,0.92358,-0.12939,0.36499,-3.87,1.221,0.786
2026-06-02 16:44:01.963,2302181419,117963,2,0.63599,0.32593,-0.25854,-52.954,99.374,167.191
2026-06-02 16:44:01.163,2302180619,118163,1,0.91504,-0.14307,0.3689,-9.87,-3.015,-3.382
2026-06-02 16:44:01.163,2302180619,118163,2,0.80591,0.08984,-0.06641,64.725,-28.244,-14.221
2026-06-02 16:44:01.363,2302180819,118363,1,0.92163,-0.12891,0.33643,-12.267,-1.557,-7.382
2026-06-02 16:44:01.363,2302180819,118363,2,1.23511,0.16162,0.28003,38.237,250.13,-56.863
2026-06-02 16:44:01.563,2302181019,118563,1,0.9375,-0.12036,0.34985,-13.191,3.344,-15.298
2026-06-02 16:44:01.563,2302181019,118563,2,0.6394,0.10254,-0.19336,-20.481,5.427,-104.13
2026-06-02 16:44:01.763,2302181219,118763,1,0.92578,-0.12378,0.34302,-12.725,2.435,-7.893
2026-06-02 16:44:01.763,2302181219,118763,2,0.8645,0.75708,0.4187,-250.137,37.595,-34.107
2026-06-02 16:44:02.963,2302182419,118963,1,0.9292,-0.1123,0.354,-21.763,60.573,-15.924
2026-06-02 16:44:02.963,2302182419,118963,2,0.57739,-0.43433,1.03613,-173.221,3.137,-23.84
2026-06-02 16:44:02.163,2302181619,119163,1,0.90308,-0.09106,0.3877,-2.931,12.947,2.389
2026-06-02 16:44:02.163,2302181619,119163,2,0.84448,-0.25854,0.84937,-60.389,-27.13,-19.443
2026-06-02 16:44:02.363,2302181819,119363,1,0.90771,-0.05444,0.375,11.626,-2.687,10.359
2026-06-02 16:44:02.363,2302181819,119363,2,0.5835,1.04517,0.18091,-2.252,-37.756,-17.58
2026-06-02 16:44:02.563,2302182019,119563,1,1.00977,-0.16553,0.39014,12.244,-10.802,8.038
2026-06-02 16:44:02.563,2302182019,119563,2,1.01172,-0.16309,1.35107,-5.244,88.42,-22.26
2026-06-02 16:44:02.763,2302182219,119763,1,0.93262,-0.05029,0.35547,5.374,-3.229,5.29
2026-06-02 16:44:02.763,2302182219,119763,2,0.77124,0.11084,0.78467,38.237,-51.634,16.076
2026-06-02 16:44:03.963,2302183419,119963,1,0.99487,-0.02368,0.28906,4.298,-2.153,1.687
2026-06-02 16:44:03.963,2302183419,119963,2,0.8894,0.05225,0.95068,-114.382,82.573,-4.718
2026-06-02 16:44:03.163,2302182619,120163,1,0.93066,-0.03784,0.33545,14.611,-6.718,5.023
2026-06-02 16:44:03.163,2302182619,120163,2,0.70752,-0.12476,0.94751,-21.489,55.863,5.481
2026-06-02 16:44:03.363,2302182819,120363,1,0.93579,-0.04175,0.33838,8.924,1.008,6.29
2026-06-02 16:44:03.363,2302182819,120363,2,0.7666,-0.06616,1.05933,10.71,-12.252,8.282
2026-06-02 16:44:03.563,2302183019,120563,1,0.92969,-0.04663,0.35645,5.26,3.611,8.359
2026-06-02 16:44:03.563,2302183019,120563,2,0.7876,-0.05762,0.93848,40.74,-14.015,9.267
2026-06-02 16:44:03.763,2302183219,120763,1,0.9187,-0.06104,0.36914,1.489,9.13,5.626
2026-06-02 16:44:03.763,2302183219,120763,2,0.89209,0.06323,0.87988,138.397,25.664,39.466
2026-06-02 16:44:04.963,2302184419,120963,1,0.91187,-0.04663,0.37964,-6.504,3.076,-0.282
2026-06-02 16:44:04.963,2302184419,120963,2,0.83008,0.09204,0.93628,8.794,2.893,8.618
2026-06-02 16:44:04.163,2302183619,121163,1,0.9082,-0.12549,0.3728,-1.481,-3.779,5.74
2026-06-02 16:44:04.163,2302183619,121163,2,0.82861,0.09521,1.00342,16.481,4.58,6.496
2026-06-02 16:44:04.363,2302183819,121363,1,0.9104,-0.08008,0.37183,6.389,-3.924,4.84
2026-06-02 16:44:04.363,2302183819,121363,2,0.83813,0.12476,0.91333,11.603,2.397,6.099
2026-06-02 16:44:04.563,2302184019,121563,1,0.94604,-0.07251,0.34131,-8.595,-4.191,-8.893
2026-06-02 16:44:04.563,2302184019,121563,2,0.83545,0.07568,0.92065,-14.519,-6.542,-2.0
2026-06-02 16:44:04.763,2302184219,121763,1,0.9519,-0.06567,0.33838,-3.405,-0.588,-3.962
2026-06-02 16:44:04.763,2302184219,121763,2,0.84106,0.09033,0.91382,-1.313,-0.573,1.412
2026-06-02 16:44:05.963,2302185419,121963,1,0.92773,-0.0769,0.35547,-5.748,1.244,-2.244
2026-06-02 16:44:05.963,2302185419,121963,2,0.84302,0.09521,0.90625,-4.099,-1.908,0.595
2026-06-02 16:44:05.163,2302184619,122163,1,0.92358,-0.06421,0.34717,-9.466,-0.023,-9.176
2026-06-02 16:44:05.163,2302184619,122163,2,0.85254,0.07764,0.90308,-4.931,-2.29,3.626
2026-06-02 16:44:05.363,2302184819,122363,1,0.93262,-0.0625,0.33838,-3.58,-0.328,-3.496
2026-06-02 16:44:05.363,2302184819,122363,2,0.84937,0.08447,0.8877,-2.29,1.023,1.527
2026-06-02 16:44:05.563,2302185019,122563,1,0.93848,-0.06763,0.33569,-7.679,1.947,-2.206
2026-06-02 16:44:05.563,2302185019,122563,2,0.85059,0.08301,0.89111,-1.534,0.038,2.542
2026-06-02 16:44:05.763,2302185219,122763,1,0.96265,-0.05737,0.35205,-7.634,4.344,-3.313
2026-06-02 16:44:05.763,2302185219,122763,2,0.85181,0.09521,0.88525,3.42,-1.069,7.107
2026-06-02 16:44:06.963,2302186419,122963,1,0.92603,-0.0564,0.35034,-5.931,0.481,-2.16
2026-06-02 16:44:06.963,2302186419,122963,2,0.84937,0.07568,0.88062,-3.702,-0.015,-0.427
2026-06-02 16:44:06.163,2302185619,123163,1,0.92505,-0.06226,0.35132,-2.252,-0.267,0.206
2026-06-02 16:44:06.163,2302185619,123163,2,0.85352,0.07349,0.88672,-2.641,0.023,2.176
2026-06-02 16:44:06.363,2302185819,123363,1,0.94116,-0.06201,0.34326,-4.618,0.015,-0.466
2026-06-02 16:44:06.363,2302185819,123363,2,0.86426,0.06348,0.87549,-0.275,0.504,2.496
2026-06-02 16:44:06.563,2302186019,123563,1,0.93921,-0.07056,0.35474,-2.374,-2.015,2.947
2026-06-02 16:44:06.563,2302186019,123563,2,0.86401,0.05591,0.86768,-6.626,1.069,-0.702
2026-06-02 16:44:07.814,2302187270,123814,1,0.92236,-0.09131,0.35645,-1.656,-0.809,2.405
2026-06-02 16:44:07.814,2302187270,123814,2,0.85864,0.05859,0.87622,-1.595,0.038,2.237
2026-06-02 16:44:07.014,2302186470,124014,1,0.93701,-0.07959,0.34229,0.405,0.847,1.084
2026-06-02 16:44:07.014,2302186470,124014,2,0.86304,0.05713,0.87036,1.313,1.885,1.29
2026-06-02 16:44:07.214,2302186670,124214,1,0.93848,-0.06494,0.34229,3.435,-0.947,-2.42
2026-06-02 16:44:07.214,2302186670,124214,2,0.85693,0.05444,0.87744,-1.183,2.527,1.489
2026-06-02 16:44:07.414,2302186870,124414,1,0.93311,-0.0686,0.34521,7.626,-3.641,5.55
2026-06-02 16:44:07.414,2302186870,124414,2,0.84668,0.07056,0.88379,0.573,0.176,1.191
2026-06-02 16:44:07.614,2302187070,124614,1,0.94141,-0.08301,0.34131,-4.0,4.473,1.55
2026-06-02 16:44:07.614,2302187070,124614,2,0.86694,0.07959,0.88037,-0.504,-1.076,2.809
2026-06-02 16:44:08.814,2302188270,124814,1,0.93628,-0.07739,0.3418,-3.053,2.779,-2.603
2026-06-02 16:44:08.814,2302188270,124814,2,0.95557,-0.00293,0.90552,13.0,18.557,11.359
2026-06-02 16:44:08.014,2302187470,125014,1,0.9314,-0.08228,0.35718,-7.237,6.847,-3.931
2026-06-02 16:44:08.014,2302187470,125014,2,0.84277,0.04517,0.86035,4.458,-2.863,-0.924
2026-06-02 16:44:08.214,2302187670,125214,1,0.9082,-0.08203,0.36572,4.229,-0.412,6.046
2026-06-02 16:44:08.214,2302187670,125214,2,0.95605,0.06226,0.88062,-6.473,44.359,-9.183
2026-06-02 16:44:08.414,2302187870,125414,1,0.92944,-0.0686,0.39917,-2.321,10.206,7.939
2026-06-02 16:44:08.414,2302187870,125414,2,0.5,-0.11328,0.73999,76.71,-77.985,28.053
2026-06-02 16:44:08.614,2302188070,125614,1,0.92017,-0.06348,0.38208,-7.962,14.305,4.802
2026-06-02 16:44:08.614,2302188070,125614,2,1.46729,0.19189,0.93018,-3.824,-65.405,4.679
2026-06-02 16:44:09.814,2302189270,125814,1,0.95752,-0.0459,0.33276,-47.55,68.634,19.298
2026-06-02 16:44:09.814,2302189270,125814,2,0.75854,0.03198,0.89233,27.756,-6.168,27.13
2026-06-02 16:44:09.014,2302188470,126014,1,0.9353,-0.06348,0.34717,15.107,-14.74,0.809
2026-06-02 16:44:09.014,2302188470,126014,2,0.6416,0.21509,1.11035,28.565,14.061,4.74
2026-06-02 16:44:09.214,2302188670,126214,1,0.92065,-0.08862,0.3584,-3.542,4.779,3.771
2026-06-02 16:44:09.214,2302188670,126214,2,0.85376,0.17358,1.03076,-2.74,4.573,6.634
2026-06-02 16:44:09.414,2302188870,126414,1,0.92603,-0.09204,0.36401,5.504,-1.351,0.702
2026-06-02 16:44:09.414,2302188870,126414,2,0.76245,0.19995,0.98584,0.702,8.489,-0.176
2026-06-02 16:44:09.614,2302189070,126614,1,0.9126,-0.10254,0.3645,-5.595,2.115,-2.672
2026-06-02 16:44:09.614,2302189070,126614,2,0.89453,0.104,0.89893,5.298,-0.298,13.473
2026-06-02 16:44:10.814,2302190270,126814,1,0.93604,-0.09961,0.36328,-5.931,7.794,-0.214
2026-06-02 16:44:10.814,2302190270,126814,2,0.45532,0.27148,1.03882,-10.13,45.809,-45.649
2026-06-02 16:44:10.014,2302189470,127014,1,0.89014,-0.10718,0.45215,-0.137,4.733,3.366
2026-06-02 16:44:10.014,2302189470,127014,2,0.73218,0.19897,1.08691,4.977,9.809,-1.695
2026-06-02 16:44:10.214,2302189670,127214,1,0.92993,-0.08545,0.42065,-12.466,-1.916,-8.588
2026-06-02 16:44:10.214,2302189670,127214,2,0.68726,0.14868,0.9375,-7.214,-41.252,-20.214
2026-06-02 16:44:10.414,2302189870,127414,1,0.88745,-0.15186,0.42944,-10.198,3.939,-3.092
2026-06-02 16:44:10.414,2302189870,127414,2,0.85376,0.28027,1.11719,19.794,-16.206,15.58
2026-06-02 16:44:10.614,2302190070,127614,1,0.81226,-0.18018,0.42114,28.809,-1.038,9.13
2026-06-02 16:44:10.614,2302190070,127614,2,1.00977,-0.03955,0.7793,100.656,26.618,46.221
2026-06-02 16:44:11.814,2302191270,127814,1,0.82251,-0.07764,0.47852,19.252,6.405,22.824
2026-06-02 16:44:11.814,2302191270,127814,2,0.73462,0.21313,0.74146,-5.634,7.71,-14.26
2026-06-02 16:44:11.014,2302190470,128014,1,0.81885,-0.09399,0.49292,1.687,-8.779,-11.733
2026-06-02 16:44:11.014,2302190470,128014,2,0.78394,0.15698,0.97192,12.87,10.725,29.542
2026-06-02 16:44:11.214,2302190670,128214,1,0.92358,-0.06738,0.47607,-25.786,-8.008,-25.321
2026-06-02 16:44:11.214,2302190670,128214,2,0.81958,0.17334,0.98779,-25.198,-18.908,-5.702
2026-06-02 16:44:11.414,2302190870,128414,1,0.86279,-0.10376,0.41943,-4.107,-5.542,-11.809
2026-06-02 16:44:11.414,2302190870,128414,2,0.91577,0.06201,0.91479,-25.153,-10.26,0.359
2026-06-02 16:44:11.614,2302191070,128614,1,0.89038,-0.03662,0.42578,3.321,-2.771,-10.252
2026-06-02 16:44:11.614,2302191070,128614,2,0.7981,0.18848,0.92896,-15.145,8.061,10.107
2026-06-02 16:44:12.814,2302192270,128814,1,0.91846,0.0188,0.42334,-22.901,-2.664,-35.45
2026-06-02 16:44:12.814,2302192270,128814,2,0.87134,0.06763,0.99756,-18.511,8.038,18.573
2026-06-02 16:44:12.014,2302191470,129014,1,0.87842,-0.0354,0.43384,-7.603,5.885,-6.511
2026-06-02 16:44:12.014,2302191470,129014,2,0.83716,0.10742,0.94824,17.427,13.687,-2.496
2026-06-02 16:44:12.214,2302191670,129214,1,0.82495,-0.00854,0.45068,-23.718,9.176,-10.802
2026-06-02 16:44:12.214,2302191670,129214,2,0.68481,0.09009,1.01807,-7.58,22.756,21.229
2026-06-02 16:44:12.414,2302191870,129414,1,0.89478,0.03491,0.45996,7.794,-8.389,1.321
2026-06-02 16:44:12.414,2302191870,129414,2,0.78003,0.13159,1.08862,10.046,3.962,4.397
2026-06-02 16:44:12.614,2302192070,129614,1,0.85107,-0.00659,0.48584,4.038,3.802,10.145
2026-06-02 16:44:12.614,2302192070,129614,2,0.7356,0.07373,1.02344,55.221,0.084,45.565
2026-06-02 16:44:13.814,2302193270,129814,1,0.83203,0.05176,0.49805,-4.618,2.969,-4.046
2026-06-02 16:44:13.814,2302193270,129814,2,0.85474,0.03613,0.90308,20.023,17.0,-0.573
2026-06-02 16:44:13.014,2302192470,130014,1,0.97314,0.12231,0.31592,-27.076,-12.786,-14.16
2026-06-02 16:44:13.014,2302192470,130014,2,0.75488,-0.03564,1.14478,-48.275,-8.931,-22.557
2026-06-02 16:44:13.214,2302192670,130214,1,0.82666,-0.0498,0.44678,-27.313,-2.695,-20.855
2026-06-02 16:44:13.214,2302192670,130214,2,0.77881,-0.01587,1.04858,-27.58,1.885,-18.924
2026-06-02 16:44:13.414,2302192870,130414,1,0.84766,-0.04077,0.46143,-36.779,3.153,-22.863
2026-06-02 16:44:13.414,2302192870,130414,2,0.73145,0.0542,1.01758,-15.603,29.153,-29.672
2026-06-02 16:44:13.614,2302193070,130614,1,0.86377,-0.05493,0.45898,-19.023,-3.267,-11.595
2026-06-02 16:44:13.614,2302193070,130614,2,0.73364,-0.00269,1.10645,-17.397,12.282,-16.153
2026-06-02 16:44:14.814,2302194270,130814,1,0.86011,-0.0957,0.43604,-28.282,-4.519,-8.924
2026-06-02 16:44:14.814,2302194270,130814,2,0.71484,0.01196,1.09473,-24.435,-3.031,-7.901
2026-06-02 16:44:14.014,2302193470,131014,1,0.88062,-0.11255,0.41455,-14.595,-5.481,-5.191
2026-06-02 16:44:14.014,2302193470,131014,2,0.7312,-0.0271,1.05273,-37.656,-10.176,-22.634
2026-06-02 16:44:14.214,2302193670,131214,1,0.91382,-0.12769,0.38208,-9.122,2.618,-1.214
2026-06-02 16:44:14.214,2302193670,131214,2,0.76099,0.03369,1.02563,24.061,3.832,0.504
2026-06-02 16:44:14.414,2302193870,131414,1,0.85864,-0.10181,0.44434,43.328,-6.107,13.015
2026-06-02 16:44:14.414,2302193870,131414,2,0.81665,0.2002,1.27466,7.275,44.664,-15.855
2026-06-02 16:44:14.614,2302194070,131614,1,0.88135,-0.08765,0.40698,24.466,-10.473,24.763
2026-06-02 16:44:14.614,2302194070,131614,2,0.71313,0.13647,1.08154,10.298,7.779,4.069
2026-06-02 16:44:15.814,2302195270,131814,1,0.90112,-0.07959,0.41333,27.534,0.603,17.802
2026-06-02 16:44:15.814,2302195270,131814,2,0.69067,0.19922,0.96558,-0.084,-51.427,17.962
2026-06-02 16:44:15.014,2302194470,132014,1,0.8269,-0.1062,0.45337,10.771,0.817,7.046
2026-06-02 16:44:15.014,2302194470,132014,2,0.67407,0.16064,1.0293,42.344,35.443,19.206
2026-06-02 16:44:15.214,2302194670,132214,1,0.91479,-0.03809,0.41846,-28.603,-3.023,-14.214
2026-06-02 16:44:15.214,2302194670,132214,2,0.78223,0.08887,1.0,-4.107,21.45,29.809
2026-06-02 16:44:15.414,2302194870,132414,1,0.91187,-0.07935,0.37891,-38.282,-10.756,-24.924
2026-06-02 16:44:15.414,2302194870,132414,2,0.7373,0.05737,1.08398,-47.817,-21.389,-12.763
2026-06-02 16:44:15.614,2302195070,132614,1,0.94019,-0.10303,0.33447,-21.985,-0.885,-18.504
2026-06-02 16:44:15.614,2302195070,132614,2,0.7832,-0.03931,1.04102,-44.046,-11.466,-25.0
2026-06-02 16:44:16.814,2302196270,132814,1,0.94653,-0.09082,0.33154,1.985,-1.618,-1.679
2026-06-02 16:44:16.814,2302196270,132814,2,0.76587,-0.03662,0.9856,-20.267,-9.206,-16.542
2026-06-02 16:44:16.014,2302195470,133014,1,0.93604,-0.08447,0.34985,10.947,-2.344,11.42
2026-06-02 16:44:16.014,2302195470,133014,2,0.88281,0.04785,0.99268,12.183,-8.733,3.557
2026-06-02 16:44:16.214,2302195670,133214,1,0.94531,-0.07544,0.32349,12.489,-2.351,9.038
2026-06-02 16:44:16.214,2302195670,133214,2,0.8313,0.06909,0.95313,21.977,27.29,0.244
2026-06-02 16:44:16.414,2302195870,133414,1,0.97192,-0.04419,0.31567,17.45,2.313,5.542
2026-06-02 16:44:16.414,2302195870,133414,2,0.79053,0.06323,0.93115,-6.924,-2.366,-20.641
2026-06-02 16:44:16.614,2302196070,133614,1,0.93188,-0.03101,0.35254,11.519,-0.473,10.351
2026-06-02 16:44:16.614,2302196070,133614,2,0.62061,0.05688,1.01538,34.695,-9.725,20.336
2026-06-02 16:44:17.814,2302197270,133814,1,0.92749,-0.07007,0.34766,-3.588,3.542,8.595
2026-06-02 16:44:17.814,2302197270,133814,2,1.03076,-0.28687,1.1272,44.069,21.099,5.702
2026-06-02 16:44:17.014,2302196470,134014,1,0.93823,-0.07837,0.33887,12.855,-2.893,6.122
2026-06-02 16:44:17.014,2302196470,134014,2,0.69604,0.15039,1.05054,-5.794,-14.832,-7.985
2026-06-02 16:44:17.214,2302196670,134214,1,0.95679,-0.03027,0.34619,18.733,2.214,7.718
2026-06-02 16:44:17.214,2302196670,134214,2,0.73193,0.17407,1.10254,15.511,-6.45,10.878
2026-06-02 16:44:17.414,2302196870,134414,1,0.94263,-0.05005,0.30957,19.489,-1.405,6.718
2026-06-02 16:44:17.414,2302196870,134414,2,0.73999,0.07617,0.98438,38.58,-6.725,49.656
2026-06-02 16:44:17.614,2302197070,134614,1,0.9187,-0.02637,0.34131,11.237,4.107,3.038
2026-06-02 16:44:17.614,2302197070,134614,2,0.8877,0.09375,0.90479,2.756,16.664,-0.771
2026-06-02 16:44:18.814,2302198270,134814,1,0.95703,-0.02515,0.33643,5.023,2.962,0.878
2026-06-02 16:44:18.814,2302198270,134814,2,0.87915,0.08374,0.89624,-3.496,-3.252,-0.649
2026-06-02 16:44:18.066,2302197522,135066,1,0.95142,-0.01221,0.31738,0.313,-6.053,-0.863
2026-06-02 16:44:18.066,2302197522,135066,2,0.81152,0.04761,0.87476,-2.458,7.168,-1.168
2026-06-02 16:44:18.266,2302197722,135266,1,0.95801,-0.04028,0.31641,-0.817,2.099,4.031
2026-06-02 16:44:18.266,2302197722,135266,2,0.80078,0.0647,0.85938,2.466,-7.122,2.58
2026-06-02 16:44:18.466,2302197922,135466,1,0.92407,-0.05591,0.32544,15.611,17.466,12.221
2026-06-02 16:44:18.466,2302197922,135466,2,0.84375,0.0791,0.89624,27.947,-10.626,15.176
2026-06-02 16:44:18.666,2302198122,135666,1,0.93384,-0.01294,0.34131,18.504,8.695,15.893
2026-06-02 16:44:18.666,2302198122,135666,2,0.87134,0.07715,0.86841,38.45,9.977,10.13
2026-06-02 16:44:19.866,2302199322,135866,1,0.9231,-0.05078,0.36816,25.595,-5.298,19.679
2026-06-02 16:44:19.866,2302199322,135866,2,0.89331,0.11157,0.83276,10.664,11.015,-4.504
2026-06-02 16:44:19.066,2302198522,136066,1,0.93066,-0.05859,0.37061,26.832,3.565,13.855
2026-06-02 16:44:19.066,2302198522,136066,2,0.85352,0.18726,0.8855,-4.664,-11.198,-31.939
2026-06-02 16:44:19.266,2302198722,136266,1,0.92432,-0.02393,0.38696,26.916,-0.893,16.931
2026-06-02 16:44:19.266,2302198722,136266,2,0.92456,0.30762,0.79956,21.183,-17.382,1.198
2026-06-02 16:44:19.466,2302198922,136466,1,0.8999,0.02832,0.40625,7.489,-4.618,2.298
2026-06-02 16:44:19.466,2302198922,136466,2,0.83521,0.22192,0.77002,12.626,4.824,17.237
2026-06-02 16:44:19.666,2302199122,136666,1,0.9248,-0.02271,0.38135,12.168,-2.573,7.527
2026-06-02 16:44:19.666,2302199122,136666,2,0.86108,0.16846,0.83032,35.176,-0.038,39.45
2026-06-02 16:44:20.866,2302200322,136866,1,0.88794,-0.01587,0.36621,20.756,-4.252,13.0
2026-06-02 16:44:20.866,2302200322,136866,2,0.91919,0.07471,0.71362,11.573,-2.038,16.305
2026-06-02 16:44:20.066,2302199522,137066,1,0.95166,-0.04272,0.33643,-0.702,-4.908,1.229
2026-06-02 16:44:20.066,2302199522,137066,2,0.87524,0.05249,0.75073,-1.237,1.863,6.809
2026-06-02 16:44:20.266,2302199722,137266,1,0.95532,-0.0354,0.32593,2.992,-4.16,1.26
2026-06-02 16:44:20.266,2302199722,137266,2,0.90845,0.06152,0.74316,-3.649,-0.137,1.458
2026-06-02 16:44:20.466,2302199922,137466,1,0.95288,-0.02466,0.32788,1.176,-1.29,2.107
2026-06-02 16:44:20.466,2302199922,137466,2,0.89502,0.06226,0.73804,5.611,6.237,-3.092
2026-06-02 16:44:20.666,2302200122,137666,1,0.94702,0.01123,0.36035,-6.298,7.496,-0.84
2026-06-02 16:44:20.666,2302200122,137666,2,0.54956,-0.0144,0.62427,26.053,-4.305,-11.527
2026-06-02 16:44:21.866,2302201322,137866,1,0.91772,-0.01904,0.35254,-3.924,-0.824,0.115
2026-06-02 16:44:21.866,2302201322,137866,2,0.85791,0.11572,0.83887,-11.221,3.863,-6.076
2026-06-02 16:44:21.066,2302200522,138066,1,0.95239,-0.0105,0.31421,-35.397,-5.748,-15.0
2026-06-02 16:44:21.066,2302200522,138066,2,0.87695,0.10962,0.84546,-37.305,1.092,-2.794
2026-06-02 16:44:21.266,2302200722,138266,1,1.00879,-0.03369,0.28467,-39.137,6.908,-5.931
2026-06-02 16:44:21.266,2302200722,138266,2,0.83374,0.07031,0.89429,-37.534,11.031,-11.282
2026-06-02 16:44:21.466,2302200922,138466,1,0.92041,-0.16724,0.37476,-37.092,19.336,-4.145
2026-06-02 16:44:21.466,2302200922,138466,2,0.83716,0.00488,0.94971,-0.168,12.267,-2.832
2026-06-02 16:44:21.666,2302201122,138666,1,0.88696,-0.19409,0.36523,-18.573,8.649,-10.198
2026-06-02 16:44:21.666,2302201122,138666,2,0.84058,-0.00781,0.97852,-1.115,1.313,3.908
2026-06-02 16:44:22.866,2302202322,138866,1,0.88892,-0.17163,0.34644,-6.542,5.351,1.13
2026-06-02 16:44:22.866,2302202322,138866,2,0.82837,0.05835,0.98901,14.565,5.366,2.031
2026-06-02 16:44:22.066,2302201522,139066,1,0.90137,-0.11548,0.40332,15.931,2.84,15.221
2026-06-02 16:44:22.066,2302201522,139066,2,0.59766,0.62817,0.27979,-108.267,-92.641,-28.924
2026-06-02 16:44:22.266,2302201722,139266,1,0.9104,-0.03906,0.31787,14.389,-8.595,16.489
2026-06-02 16:44:22.266,2302201722,139266,2,0.89648,-0.01709,0.89551,22.084,73.962,-35.649
2026-06-02 16:44:22.466,2302201922,139466,1,0.94067,-0.05786,0.39233,13.489,-35.725,22.985
2026-06-02 16:44:22.466,2302201922,139466,2,0.8855,0.15479,0.92236,-43.641,-34.145,-6.466
2026-06-02 16:44:22.666,2302202122,139666,1,0.80078,-0.1687,0.44336,19.137,-27.313,11.221
2026-06-02 16:44:22.666,2302202122,139666,2,0.78223,0.08911,0.91333,-15.214,-8.542,-11.748
2026-06-02 16:44:23.866,2302203322,139866,1,0.92065,-0.24805,0.35718,-27.534,12.29,-14.092
2026-06-02 16:44:23.866,2302203322,139866,2,0.81714,0.02173,0.85376,37.496,26.153,33.481
2026-06-02 16:44:23.066,2302202522,140066,1,0.88647,-0.24072,0.26636,-16.924,8.969,-9.458
2026-06-02 16:44:23.066,2302202522,140066,2,1.31128,-0.95166,-1.20117,-22.107,118.878,-9.176
2026-06-02 16:44:23.266,2302202722,140266,1,1.01782,-0.13599,0.39258,7.244,-16.076,-38.221
2026-06-02 16:44:23.266,2302202722,140266,2,0.80591,-0.34375,0.96533,-75.42,-103.725,16.267
2026-06-02 16:44:23.466,2302202922,140466,1,0.93921,0.0127,0.41235,-12.992,8.947,-24.725
2026-06-02 16:44:23.466,2302202922,140466,2,0.90161,-0.1731,0.74463,-54.122,-7.641,-16.969
2026-06-02 16:44:23.666,2302203122,140666,1,0.91064,0.00781,0.31592,-13.282,16.351,-0.092
2026-06-02 16:44:23.666,2302203122,140666,2,0.84302,-0.06299,0.91577,128.115,57.046,-6.183
2026-06-02 16:44:24.866,2302204322,140866,1,0.92139,-0.10059,0.29199,-4.771,-25.802,-10.382
2026-06-02 16:44:24.866,2302204322,140866,2,0.89233,0.02344,0.8833,-113.87,-25.87,-28.351
2026-06-02 16:44:24.066,2302203522,141066,1,0.9519,-0.10913,0.38623,-15.832,5.74,-4.718
2026-06-02 16:44:24.066,2302203522,141066,2,0.76587,0.17871,0.78174,33.679,-18.748,4.153
2026-06-02 16:44:24.266,2302203722,141266,1,0.91504,-0.17041,0.38208,-48.153,27.725,-20.206
2026-06-02 16:44:24.266,2302203722,141266,2,0.81909,-0.00708,0.85205,4.634,14.832,4.092
2026-06-02 16:44:24.466,2302203922,141466,1,0.89429,-0.17261,0.29443,-19.901,5.901,-8.702
2026-06-02 16:44:24.466,2302203922,141466,2,0.8457,-0.05615,0.84937,-5.282,2.87,1.626
2026-06-02 16:44:24.666,2302204122,141666,1,1.06738,-0.08594,0.28882,-17.672,-9.664,-29.198
2026-06-02 16:44:24.666,2302204122,141666,2,0.93848,-0.05786,1.00977,-58.947,7.702,-14.229
2026-06-02 16:44:25.866,2302205322,141866,1,0.75366,-0.15039,0.35913,-40.924,6.359,-16.908
2026-06-02 16:44:25.866,2302205322,141866,2,0.90723,0.20728,0.90063,13.695,32.107,-38.588
2026-06-02 16:44:25.066,2302204522,142066,1,0.90942,0.02222,0.29126,-76.74,15.305,-46.794
2026-06-02 16:44:25.066,2302204522,142066,2,0.83447,0.14526,0.76416,-82.237,-9.756,-50.435
2026-06-02 16:44:25.266,2302204722,142266,1,0.95776,0.05591,0.33911,-114.221,30.603,-72.023
2026-06-02 16:44:25.266,2302204722,142266,2,0.95825,0.12427,0.7854,-133.901,-1.718,-73.382
2026-06-02 16:44:25.466,2302204922,142466,1,0.71021,-0.4978,0.43481,-111.687,117.84,-65.092
2026-06-02 16:44:25.466,2302204922,142466,2,0.81372,-0.14331,0.82397,-124.237,-20.939,-117.366
2026-06-02 16:44:25.666,2302205122,142666,1,0.84082,-0.36157,0.36963,-111.527,47.985,-81.16
2026-06-02 16:44:25.666,2302205122,142666,2,0.78516,0.0686,1.04077,-111.824,-8.87,-81.229
2026-06-02 16:44:26.866,2302206322,142866,1,0.49927,-0.28027,0.54419,-32.267,79.618,-71.58
2026-06-02 16:44:26.866,2302206322,142866,2,0.54077,0.03125,1.15942,-127.908,3.618,-65.939
2026-06-02 16:44:26.066,2302205522,143066,1,0.55151,-0.20752,0.64307,-60.878,35.626,-42.389
2026-06-02 16:44:26.066,2302205522,143066,2,0.63184,0.29395,1.14722,-98.931,-6.42,-57.321
2026-06-02 16:44:26.266,2302205722,143266,1,0.49023,-0.50806,0.81396,-58.71,26.511,-18.061
2026-06-02 16:44:26.266,2302205722,143266,2,0.62305,0.07813,1.19019,-22.313,-7.466,-23.008
2026-06-02 16:44:26.466,2302205922,143466,1,0.58862,-0.40894,0.55029,-6.145,-4.939,-31.389
2026-06-02 16:44:26.466,2302205922,143466,2,0.66333,0.11841,1.1333,-17.298,-16.321,-16.069
2026-06-02 16:44:26.666,2302206122,143666,1,0.67456,-0.48193,0.54688,-12.748,4.641,-30.916
2026-06-02 16:44:26.666,2302206122,143666,2,0.74194,0.08936,1.10742,6.504,-11.71,-26.344
2026-06-02 16:44:27.866,2302207322,143866,1,0.61499,-0.35278,0.58008,1.397,15.611,-25.031
2026-06-02 16:44:27.866,2302207322,143866,2,0.66211,0.06226,1.24902,15.756,-14.412,5.847
2026-06-02 16:44:27.066,2302206522,144066,1,0.51685,-0.24756,0.68555,27.649,7.42,6.84
2026-06-02 16:44:27.066,2302206522,144066,2,0.62744,0.37598,1.07031,33.336,-0.015,-10.107
2026-06-02 16:44:27.266,2302206722,144266,1,0.49121,-0.23364,0.69263,-10.511,7.031,-4.489
2026-06-02 16:44:27.266,2302206722,144266,2,0.59058,0.42993,0.95947,12.519,-0.282,-2.305
2026-06-02 16:44:27.466,2302206922,144466,1,0.54443,-0.33545,0.71606,-18.084,0.29,-28.405
2026-06-02 16:44:27.466,2302206922,144466,2,0.70605,0.2373,1.11255,-26.137,-17.244,-11.13
2026-06-02 16:44:27.666,2302207122,144666,1,0.52832,-0.33154,0.66992,-20.794,-4.817,-44.397
2026-06-02 16:44:27.666,2302207122,144666,2,0.65869,0.29688,0.97632,-21.878,-27.748,-15.008
2026-06-02 16:44:28.866,2302208322,144866,1,0.67676,-0.12988,0.62744,-28.038,-5.916,-42.427
2026-06-02 16:44:28.866,2302208322,144866,2,0.78003,0.31201,0.94141,-16.809,-5.954,-8.519
2026-06-02 16:44:28.066,2302207522,145066,1,0.69531,-0.1189,0.66943,-14.924,12.573,-13.214
2026-06-02 16:44:28.066,2302207522,145066,2,0.81494,0.30615,0.94995,-62.496,-6.878,-24.198
2026-06-02 16:44:28.266,2302207722,145266,1,0.6582,-0.36987,0.55249,-37.557,31.458,-26.588
2026-06-02 16:44:28.266,2302207722,145266,2,0.70337,0.22632,1.05859,-52.336,12.237,-43.29
2026-06-02 16:44:28.466,2302207922,145466,1,0.54175,-0.53979,0.61426,-40.55,20.473,-13.817
2026-06-02 16:44:28.466,2302207922,145466,2,0.61987,0.11646,1.16138,-29.924,12.924,-20.244
2026-06-02 16:44:28.666,2302208122,145666,1,0.48438,-0.51221,0.57446,-2.389,9.71,7.038
2026-06-02 16:44:28.666,2302208122,145666,2,0.56274,0.12256,1.23853,-0.328,6.969,1.29
2026-06-02 16:44:29.866,2302209322,145866,1,0.47095,-0.54761,0.65308,9.466,-19.786,20.649
2026-06-02 16:44:29.866,2302209322,145866,2,0.56372,0.15674,1.20117,23.336,-4.282,25.313
2026-06-02 16:44:29.066,2302208522,146066,1,0.51172,-0.50269,0.61499,38.901,-33.748,22.099
2026-06-02 16:44:29.066,2302208522,146066,2,0.68799,0.26147,1.09985,50.748,-12.641,37.664
2026-06-02 16:44:29.266,2302208722,146266,1,0.63623,-0.2439,0.5874,37.42,-26.718,8.359
2026-06-02 16:44:29.266,2302208722,146266,2,0.72534,0.31348,0.93311,31.611,-13.321,36.893
2026-06-02 16:44:29.466,2302208922,146466,1,0.79688,-0.08228,0.54224,12.931,-21.046,-19.008
2026-06-02 16:44:29.466,2302208922,146466,2,0.76025,0.29541,0.93384,9.496,-8.725,14.115
2026-06-02 16:44:29.666,2302209122,146666,1,0.71729,-0.09106,0.62891,20.573,-1.443,4.58
2026-06-02 16:44:29.666,2302209122,146666,2,0.74829,0.16699,1.1499,11.817,7.183,12.656
2026-06-02 16:44:30.866,2302210322,146866,1,0.71997,-0.12842,0.59106,48.58,0.473,30.939
2026-06-02 16:44:30.866,2302210322,146866,2,0.81958,0.27856,0.97559,24.58,-2.122,12.115
2026-06-02 16:44:30.066,2302209522,147066,1,0.77686,-0.13818,0.45947,-21.473,-8.786,-8.74
2026-06-02 16:44:30.066,2302209522,147066,2,0.82275,0.09253,0.94702,-8.779,-4.099,6.672
2026-06-02 16:44:30.266,2302209722,147266,1,0.80688,-0.17041,0.48901,-2.924,-6.099,-4.855
2026-06-02 16:44:30.266,2302209722,147266,2,0.74121,0.17383,1.05566,-35.305,-3.779,-22.595
2026-06-02 16:44:30.466,2302209922,147466,1,0.7417,-0.1416,0.58521,-22.122,-1.389,-13.466
2026-06-02 16:44:30.466,2302209922,147466,2,0.77808,0.31055,1.05151,-29.45,-8.496,-10.069
