datetime,epoch_ms,ts_millis,mpu_id,ax,ay,az,gx,gy,gz
2026-06-01 16:05:02.127,2213441583,614127,2,0.87427,-0.00854,0.47803,10.87,-9.405,7.55
2026-06-01 16:05:02.337,2213441793,614337,1,0.3623,-0.38306,1.00928,8.863,-14.466,3.588
2026-06-01 16:05:02.337,2213441793,614337,2,0.88672,-0.00562,0.45605,7.733,-12.336,2.405
2026-06-01 16:05:02.537,2213441993,614537,1,0.396,-0.34302,0.98755,8.481,-12.611,-11.031
2026-06-01 16:05:02.537,2213441993,614537,2,0.91577,0.00781,0.40698,-7.321,-19.87,-6.061
2026-06-01 16:05:02.737,2213442193,614737,1,0.46704,-0.28296,0.97095,-1.733,-19.29,-37.191
2026-06-01 16:05:02.737,2213442193,614737,2,0.94653,0.00928,0.29614,-24.336,-26.382,-7.374
2026-06-01 16:05:03.937,2213443393,614937,1,0.5791,-0.27051,0.92358,-21.153,-20.832,-58.229
2026-06-01 16:05:03.937,2213443393,614937,2,0.96289,-0.06348,0.23657,-45.137,-21.916,-8.42
2026-06-01 16:05:03.137,2213442593,615137,1,0.69238,-0.2207,0.85352,-37.656,-19.122,-61.832
2026-06-01 16:05:03.137,2213442593,615137,2,0.98657,-0.06543,0.20532,-77.489,-17.954,-17.481
2026-06-01 16:05:03.337,2213442793,615337,1,0.72095,-0.24097,0.80469,-41.756,-11.008,-58.45
2026-06-01 16:05:03.337,2213442793,615337,2,1.00806,-0.10254,0.22119,-60.71,-19.115,-13.198
2026-06-01 16:05:03.537,2213442993,615537,1,0.82251,-0.11084,0.79346,-4.603,3.748,-35.511
2026-06-01 16:05:03.537,2213442993,615537,2,1.08276,0.01318,0.11597,-10.55,7.679,-1.626
2026-06-01 16:05:03.737,2213443193,615737,1,1.01514,-0.02002,0.5813,-25.13,1.939,-40.702
2026-06-01 16:05:03.737,2213443193,615737,2,1.00977,-0.01123,0.06738,-63.824,-35.664,-18.137
2026-06-01 16:05:04.937,2213444393,615937,1,0.82275,0.10156,0.68677,35.405,1.42,-20.221
2026-06-01 16:05:04.937,2213444393,615937,2,1.00952,0.01514,-0.00659,0.366,7.786,-14.183
2026-06-01 16:05:04.137,2213443593,616137,1,0.85083,0.19702,0.69922,19.672,-8.015,-11.969
2026-06-01 16:05:04.137,2213443593,616137,2,1.02661,0.03491,-0.03711,-0.26,-26.176,3.626
2026-06-01 16:05:04.337,2213443793,616337,1,0.85083,0.20313,0.66968,15.008,-1.405,-3.695
2026-06-01 16:05:04.337,2213443793,616337,2,1.02271,0.07153,-0.03564,6.641,-13.542,-2.374
2026-06-01 16:05:04.537,2213443993,616537,1,0.85962,0.23828,0.65894,13.977,-2.099,1.763
2026-06-01 16:05:04.537,2213443993,616537,2,1.01587,0.08032,-0.08911,13.435,-4.206,0.267
2026-06-01 16:05:04.737,2213444193,616737,1,0.87573,0.26758,0.625,10.611,-1.267,3.29
2026-06-01 16:05:04.737,2213444193,616737,2,1.02637,0.06665,-0.11963,3.786,-0.954,2.603
2026-06-01 16:05:05.937,2213445393,616937,1,0.87549,0.26099,0.61377,-5.008,-0.168,2.16
2026-06-01 16:05:05.937,2213445393,616937,2,1.01782,0.05225,-0.10107,-7.115,1.809,4.466
2026-06-01 16:05:05.137,2213444593,617137,1,0.90405,0.22559,0.61133,-8.42,3.611,3.168
2026-06-01 16:05:05.137,2213444593,617137,2,1.03857,0.0166,-0.10913,-1.664,6.504,5.443
2026-06-01 16:05:05.337,2213444793,617337,1,0.84937,0.16162,0.66162,-12.405,-0.122,12.092
2026-06-01 16:05:05.337,2213444793,617337,2,1.0144,0.02051,-0.01855,-5.542,8.237,6.473
2026-06-01 16:05:05.537,2213444993,617537,1,0.88281,0.08789,0.65308,-6.145,-3.588,16.527
2026-06-01 16:05:05.537,2213444993,617537,2,1.04272,-0.01831,-0.02271,0.939,-5.076,7.0
2026-06-01 16:05:05.737,2213445193,617737,1,0.91968,0.04321,0.63232,11.29,4.458,16.206
2026-06-01 16:05:05.737,2213445193,617737,2,1.02759,-0.04858,-0.06128,11.405,-0.313,3.282
2026-06-01 16:05:06.937,2213446393,617937,1,0.92578,0.03882,0.61182,12.076,3.198,10.374
2026-06-01 16:05:06.937,2213446393,617937,2,1.05908,-0.02466,-0.07715,8.885,2.359,-0.198
2026-06-01 16:05:06.137,2213445593,618137,1,0.91943,0.07251,0.61841,8.802,8.947,1.26
2026-06-01 16:05:06.137,2213445593,618137,2,1.03955,-0.02197,-0.06201,-0.733,7.198,-7.275
2026-06-01 16:05:06.337,2213445793,618337,1,0.87744,0.0769,0.66016,-4.481,7.099,-2.183
2026-06-01 16:05:06.337,2213445793,618337,2,1.04053,0.01563,-0.06445,1.137,0.275,-0.328
2026-06-01 16:05:06.537,2213445993,618537,1,0.88867,0.06909,0.65771,-4.137,4.443,0.214
2026-06-01 16:05:06.537,2213445993,618537,2,1.03784,0.00317,-0.07153,-7.168,1.496,3.008
2026-06-01 16:05:06.737,2213446193,618737,1,0.875,0.03711,0.68384,-10.649,3.618,1.214
2026-06-01 16:05:06.737,2213446193,618737,2,1.03174,-0.00269,-0.03809,-12.618,1.878,-0.115
2026-06-01 16:05:07.937,2213447393,618937,1,0.91357,-0.0022,0.6604,-1.023,4.412,9.023
2026-06-01 16:05:07.937,2213447393,618937,2,1.02319,-0.04004,-0.02881,-6.183,3.84,-1.137
2026-06-01 16:05:07.137,2213446593,619137,1,0.85205,0.0022,0.70166,-25.611,16.809,18.244
2026-06-01 16:05:07.137,2213446593,619137,2,1.03882,-0.02295,-0.00635,-24.031,19.496,13.183
2026-06-01 16:05:07.337,2213446793,619337,1,0.7959,-0.22998,0.73267,-57.206,32.061,5.718
2026-06-01 16:05:07.337,2213446793,619337,2,0.99805,-0.10181,0.14282,-45.55,32.901,10.71
2026-06-01 16:05:07.537,2213446993,619537,1,0.6875,-0.40405,0.79224,-43.305,33.191,-4.534
2026-06-01 16:05:07.537,2213446993,619537,2,0.98022,-0.16357,0.21362,-31.733,23.969,1.504
2026-06-01 16:05:07.737,2213447193,619737,1,0.62061,-0.45898,0.83179,-24.771,31.817,-1.939
2026-06-01 16:05:07.737,2213447193,619737,2,0.95776,-0.1875,0.25879,-28.824,21.42,-3.901
2026-06-01 16:05:08.937,2213448393,619937,1,0.5542,-0.48853,0.87524,-23.412,18.672,-9.702
2026-06-01 16:05:08.937,2213448393,619937,2,0.94824,-0.22119,0.30127,-17.756,8.863,0.206
2026-06-01 16:05:08.137,2213447593,620137,1,0.54858,-0.50879,0.85718,-4.58,6.893,-3.748
2026-06-01 16:05:08.137,2213447593,620137,2,0.93384,-0.19336,0.3147,-12.458,-2.153,-1.931
2026-06-01 16:05:08.337,2213447793,620337,1,0.56348,-0.4729,0.84473,5.473,0.053,-1.473
2026-06-01 16:05:08.337,2213447793,620337,2,0.95874,-0.18921,0.29272,-1.618,-4.771,-1.779
2026-06-01 16:05:08.537,2213447993,620537,1,0.58423,-0.44287,0.84351,1.511,-1.473,2.962
2026-06-01 16:05:08.537,2213447993,620537,2,0.95117,-0.18701,0.27759,2.779,-1.656,1.031
2026-06-01 16:05:08.737,2213448193,620737,1,0.57349,-0.47656,0.86035,9.817,-3.481,3.221
2026-06-01 16:05:08.737,2213448193,620737,2,0.93726,-0.18677,0.2915,17.87,-7.412,1.687
2026-06-01 16:05:09.937,2213449393,620937,1,0.59033,-0.46045,0.83472,20.519,-14.878,8.13
2026-06-01 16:05:09.937,2213449393,620937,2,0.948,-0.20459,0.26221,39.985,-14.748,5.985
2026-06-01 16:05:09.137,2213448593,621137,1,0.66626,-0.40601,0.79175,36.252,-12.687,26.26
2026-06-01 16:05:09.137,2213448593,621137,2,0.98608,-0.198,0.22412,65.969,-12.321,5.42
2026-06-01 16:05:09.337,2213448793,621337,1,0.70093,-0.38818,0.77856,64.206,-6.13,46.687
2026-06-01 16:05:09.337,2213448793,621337,2,1.08374,-0.15894,0.19824,70.611,-7.924,-5.427
2026-06-01 16:05:09.537,2213448993,621537,1,0.49902,-0.10181,0.92798,65.908,58.0,53.321
2026-06-01 16:05:09.537,2213448993,621537,2,0.94067,0.23096,0.19141,80.275,40.611,-17.908
2026-06-01 16:05:09.737,2213449193,621737,1,0.25391,0.10938,1.0791,31.901,56.542,26.481
2026-06-01 16:05:09.737,2213449193,621737,2,0.80664,0.52661,0.24658,2.87,24.092,-8.084
2026-06-01 16:05:10.937,2213450393,621937,1,0.13867,-0.09521,1.11401,33.0,32.489,30.015
2026-06-01 16:05:10.937,2213450393,621937,2,0.85864,0.23657,0.4519,-15.046,21.13,-17.0
2026-06-01 16:05:10.137,2213449593,622137,1,-0.03809,0.01807,1.12305,12.183,42.405,8.305
2026-06-01 16:05:10.137,2213449593,622137,2,0.76855,0.27661,0.56372,-6.008,28.084,-8.489
2026-06-01 16:05:10.337,2213449793,622337,1,-0.12402,-0.03687,1.09375,-2.611,31.153,4.145
2026-06-01 16:05:10.337,2213449793,622337,2,0.69556,0.28833,0.61816,0.847,22.763,-3.802
2026-06-01 16:05:10.537,2213449993,622537,1,-0.20947,-0.0166,1.11206,5.084,13.756,1.008
2026-06-01 16:05:10.537,2213449993,622537,2,0.66699,0.35083,0.61963,0.282,7.618,-3.58
2026-06-01 16:05:10.737,2213450193,622737,1,-0.20923,0.02588,1.08276,3.55,4.252,-2.824
2026-06-01 16:05:10.737,2213450193,622737,2,0.66284,0.35352,0.6377,-1.817,0.618,-3.771
2026-06-01 16:05:11.937,2213451393,622937,1,-0.20825,0.03906,1.06641,2.565,4.855,-2.031
2026-06-01 16:05:11.937,2213451393,622937,2,0.64697,0.36011,0.62598,-1.397,3.061,-0.534
2026-06-01 16:05:11.137,2213450593,623137,1,-0.21362,0.03149,1.08276,0.725,3.802,-2.405
2026-06-01 16:05:11.137,2213450593,623137,2,0.65015,0.36108,0.63794,-1.29,0.977,-0.237
2026-06-01 16:05:11.337,2213450793,623337,1,-0.2146,0.03296,1.07275,-0.13,3.053,-1.519
2026-06-01 16:05:11.337,2213450793,623337,2,0.64868,0.35767,0.63721,-2.16,1.626,0.122
2026-06-01 16:05:11.537,2213450993,623537,1,-0.2229,0.03833,1.07471,4.29,3.687,2.664
2026-06-01 16:05:11.537,2213450993,623537,2,0.646,0.35913,0.63354,-0.527,1.687,1.427
2026-06-01 16:05:11.737,2213451193,623737,1,-0.22095,0.02222,1.07617,-4.023,4.198,0.344
2026-06-01 16:05:11.737,2213451193,623737,2,0.6543,0.34888,0.63745,-0.863,3.015,0.977
2026-06-01 16:05:12.937,2213452393,623937,1,-0.23755,0.02393,1.07495,-0.962,3.817,0.198
2026-06-01 16:05:12.937,2213452393,623937,2,0.64014,0.35742,0.64844,-0.649,1.511,1.58
2026-06-01 16:05:12.137,2213451593,624137,1,-0.2356,0.02271,1.05615,-2.13,4.817,-0.069
2026-06-01 16:05:12.137,2213451593,624137,2,0.63232,0.36694,0.6521,-1.878,2.351,0.573
2026-06-01 16:05:12.337,2213451793,624337,1,-0.25024,0.01733,1.06567,0.496,4.519,1.924
2026-06-01 16:05:12.337,2213451793,624337,2,0.63062,0.37012,0.65063,-1.0,2.832,0.305
2026-06-01 16:05:12.537,2213451993,624537,1,-0.27124,0.02197,1.05591,-2.176,3.16,-0.969
2026-06-01 16:05:12.537,2213451993,624537,2,0.61914,0.36694,0.67529,-1.954,2.779,1.733
2026-06-01 16:05:12.737,2213452193,624737,1,-0.26392,0.00903,1.06421,0.191,2.641,1.969
2026-06-01 16:05:12.737,2213452193,624737,2,0.61426,0.36328,0.66309,0.069,2.282,1.878
2026-06-01 16:05:13.937,2213453393,624937,1,-0.28613,0.00317,1.06714,-0.214,2.695,1.634
2026-06-01 16:05:13.937,2213453393,624937,2,0.60864,0.36426,0.6665,0.878,0.992,2.771
2026-06-01 16:05:13.137,2213452593,625137,1,-0.26611,-0.0022,1.06079,-0.397,0.725,0.74
2026-06-01 16:05:13.137,2213452593,625137,2,0.61182,0.37231,0.65991,0.191,-0.42,1.695
2026-06-01 16:05:13.337,2213452793,625337,1,-0.26904,0.00928,1.06006,0.382,0.374,-0.916
2026-06-01 16:05:13.337,2213452793,625337,2,0.6272,0.36646,0.66724,-2.672,-1.221,1.344
2026-06-01 16:05:13.537,2213452993,625537,1,-0.2522,0.00952,1.0481,-0.725,0.046,-1.412
2026-06-01 16:05:13.537,2213452993,625537,2,0.62524,0.34497,0.65137,-2.924,0.649,0.504
2026-06-01 16:05:13.737,2213453193,625737,1,-0.25415,-0.01904,1.04028,-4.634,7.954,-3.183
2026-06-01 16:05:13.737,2213453193,625737,2,0.60376,0.33911,0.69067,-8.115,8.443,-1.046
2026-06-01 16:05:14.937,2213454393,625937,1,-0.28369,-0.03076,0.95459,-5.168,8.023,-1.542
2026-06-01 16:05:14.937,2213454393,625937,2,0.49805,0.25244,0.64893,8.229,8.046,0.115
2026-06-01 16:05:14.137,2213453593,626137,1,-0.29443,-0.03271,0.96729,-1.588,-6.84,17.939
2026-06-01 16:05:14.137,2213453593,626137,2,0.61133,0.24756,0.74951,23.435,11.344,29.496
2026-06-01 16:05:14.337,2213453793,626337,1,-0.33008,0.13867,0.95386,-4.527,-19.313,-2.389
2026-06-01 16:05:14.337,2213453793,626337,2,0.5625,0.4043,0.44019,-24.87,-39.382,21.13
2026-06-01 16:05:14.537,2213453993,626537,1,-0.11743,-0.08203,1.09595,-14.87,-74.725,-29.191
2026-06-01 16:05:14.537,2213453993,626537,2,0.80786,0.1936,0.66553,11.412,-57.58,10.733
2026-06-01 16:05:14.737,2213454193,626737,1,0.1604,-0.00146,1.27393,-10.473,-36.351,-8.313
2026-06-01 16:05:14.737,2213454193,626737,2,1.02222,0.10864,0.60449,-6.42,-17.962,13.229
2026-06-01 16:05:15.937,2213455393,626937,1,0.10352,0.12354,1.18506,24.916,-14.221,-5.031
2026-06-01 16:05:15.937,2213455393,626937,2,0.88208,0.10278,0.42676,-13.595,-29.244,12.397
2026-06-01 16:05:15.137,2213454593,627137,1,0.24585,0.09375,1.1311,8.954,-26.443,-6.649
2026-06-01 16:05:15.137,2213454593,627137,2,1.00366,0.09229,0.35767,-0.611,-21.42,4.427
2026-06-01 16:05:15.337,2213454793,627337,1,0.38525,0.17651,1.06323,-2.656,-7.924,3.824
2026-06-01 16:05:15.337,2213454793,627337,2,1.0249,0.09009,0.30103,4.237,-2.397,0.389
2026-06-01 16:05:15.537,2213454993,627537,1,0.31128,0.12402,1.06909,-9.702,3.191,3.008
2026-06-01 16:05:15.537,2213454993,627537,2,0.92651,0.1062,0.34619,-6.137,4.443,-1.069
2026-06-01 16:05:15.737,2213455193,627737,1,0.31274,0.12598,1.07397,1.458,3.0,-1.344
2026-06-01 16:05:15.737,2213455193,627737,2,0.93799,0.10571,0.34229,-2.595,1.901,1.939
2026-06-01 16:05:16.937,2213456393,627937,1,0.31885,0.11719,1.06714,-3.504,6.786,0.382
2026-06-01 16:05:16.937,2213456393,627937,2,0.95435,0.12207,0.34009,-4.107,7.786,1.626
2026-06-01 16:05:16.137,2213455593,628137,1,0.30298,0.05713,1.05615,-4.466,13.687,-2.756
2026-06-01 16:05:16.137,2213455593,628137,2,0.92383,0.13281,0.38965,-5.267,9.908,-1.282
2026-06-01 16:05:16.337,2213455793,628337,1,0.18042,0.04272,1.09521,4.664,4.786,-4.542
2026-06-01 16:05:16.337,2213455793,628337,2,0.83838,0.12061,0.39844,-7.519,-2.374,2.328
2026-06-01 16:05:16.537,2213455993,628537,1,0.37646,0.19531,1.30542,15.718,21.962,-3.977
2026-06-01 16:05:16.537,2213455993,628537,2,1.14502,0.14722,0.47021,-2.55,35.878,-18.26
2026-06-01 16:05:16.737,2213456193,628737,1,0.11133,0.19092,1.06665,21.458,72.221,16.282
2026-06-01 16:05:16.737,2213456193,628737,2,0.81201,0.23511,0.41113,46.496,62.489,-25.0
2026-06-01 16:05:17.937,2213457393,628937,1,-0.47705,0.23779,0.79248,-68.58,39.733,-45.924
2026-06-01 16:05:17.937,2213457393,628937,2,0.61987,0.13696,0.89209,-147.962,-35.496,43.908
2026-06-01 16:05:17.137,2213456593,629137,1,-0.23193,-0.00562,1.13818,79.282,7.13,56.481
2026-06-01 16:05:17.137,2213456593,629137,2,0.28613,-0.21606,0.54907,28.168,-13.878,12.756
2026-06-01 16:05:17.337,2213456793,629337,1,-0.08374,0.29224,1.12207,153.847,-78.916,88.168
2026-06-01 16:05:17.337,2213456793,629337,2,0.96362,0.30444,0.44287,30.198,-96.641,50.42
2026-06-01 16:05:17.537,2213456993,629537,1,0.5481,0.38818,1.1062,39.214,-52.969,10.405
2026-06-01 16:05:17.537,2213456993,629537,2,1.13159,0.1897,0.17529,18.26,-21.55,9.061
2026-06-01 16:05:17.737,2213457193,629737,1,0.65552,0.44458,1.07983,-1.84,-16.771,11.595
2026-06-01 16:05:17.737,2213457193,629737,2,1.38184,0.10864,0.18164,2.641,7.382,-1.901
2026-06-01 16:05:18.937,2213458393,629937,1,0.80396,0.13843,1.24023,-30.771,35.634,5.473
2026-06-01 16:05:18.937,2213458393,629937,2,1.24658,0.10767,0.16821,0.573,50.496,-35.061
2026-06-01 16:05:18.137,2213457593,630137,1,0.24512,0.14404,1.12183,21.504,44.252,0.992
2026-06-01 16:05:18.137,2213457593,630137,2,0.91895,0.27661,0.22852,-11.076,26.214,-29.496
2026-06-01 16:05:18.337,2213457793,630337,1,-0.04663,0.11157,0.91675,11.611,17.176,-13.321
2026-06-01 16:05:18.337,2213457793,630337,2,0.5293,0.24194,0.27271,-11.145,-12.45,-4.87
2026-06-01 16:05:18.537,2213457993,630537,1,0.1333,0.03076,0.94214,-9.298,-57.748,-16.481
2026-06-01 16:05:18.537,2213457993,630537,2,0.72217,0.27612,0.24829,12.588,-16.244,10.55
2026-06-01 16:05:18.737,2213458193,630737,1,0.42236,0.11084,0.86279,-0.382,-1.29,-23.206
2026-06-01 16:05:18.737,2213458193,630737,2,0.89111,0.29321,0.28418,-1.031,-0.115,-12.893
2026-06-01 16:05:19.937,2213459393,630937,1,0.29126,0.22437,1.00684,11.656,36.611,-4.023
2026-06-01 16:05:19.937,2213459393,630937,2,0.92798,0.38989,0.25073,-5.794,12.412,-10.58
2026-06-01 16:05:19.137,2213458593,631137,1,0.15308,0.15845,1.00903,22.977,49.74,21.076
2026-06-01 16:05:19.137,2213458593,631137,2,0.78516,0.42773,0.4043,-11.458,40.099,-23.397
2026-06-01 16:05:19.337,2213458793,631337,1,-0.13989,0.11694,1.12988,-15.191,65.374,0.046
2026-06-01 16:05:19.337,2213458793,631337,2,0.69873,0.42334,0.57446,-11.74,48.389,-18.252
2026-06-01 16:05:19.537,2213458993,631537,1,-0.31836,0.06958,1.09546,-8.191,56.855,-6.893
2026-06-01 16:05:19.537,2213458993,631537,2,0.54736,0.3916,0.65356,-12.176,41.626,-17.763
2026-06-01 16:05:19.737,2213459193,631737,1,-0.42114,0.07886,0.94189,5.374,31.069,0.443
2026-06-01 16:05:19.737,2213459193,631737,2,0.43921,0.43262,0.73779,-6.183,35.985,-17.664
2026-06-01 16:05:20.937,2213460393,631937,1,-0.59277,0.13892,0.96533,4.122,31.16,5.023
2026-06-01 16:05:20.937,2213460393,631937,2,0.34131,0.45361,0.74438,-5.824,25.748,-8.603
2026-06-01 16:05:20.137,2213459593,632137,1,-0.63843,0.01978,0.90479,9.595,-7.527,10.252
2026-06-01 16:05:20.137,2213459593,632137,2,0.31934,0.41309,0.81421,0.496,-5.397,5.611
2026-06-01 16:05:20.337,2213459793,632337,1,-0.60889,0.07788,0.95508,-5.611,-19.069,-0.534
2026-06-01 16:05:20.337,2213459793,632337,2,0.33032,0.40601,0.81641,0.802,-19.061,15.305
2026-06-01 16:05:20.537,2213459993,632537,1,-0.42505,0.07007,0.89893,1.595,-25.214,2.954
2026-06-01 16:05:20.537,2213459993,632537,2,0.4458,0.41772,0.73022,0.519,-24.45,12.565
2026-06-01 16:05:20.737,2213460193,632737,1,-0.39087,0.09277,1.00244,10.702,-14.74,2.344
2026-06-01 16:05:20.737,2213460193,632737,2,0.52686,0.40039,0.68799,6.382,-18.924,7.824
2026-06-01 16:05:21.937,2213461393,632937,1,-0.29688,0.10791,0.98315,-11.092,-9.557,-12.305
2026-06-01 16:05:21.937,2213461393,632937,2,0.60059,0.38477,0.64941,-8.885,0.053,1.908
2026-06-01 16:05:21.137,2213460593,633137,1,-0.30444,0.01147,1.03687,-10.031,6.969,-16.061
2026-06-01 16:05:21.137,2213460593,633137,2,0.57129,0.35107,0.70996,-8.244,6.618,-4.802
2026-06-01 16:05:21.337,2213460793,633337,1,-0.36694,-0.01587,1.05029,4.969,3.458,-4.237
2026-06-01 16:05:21.337,2213460793,633337,2,0.54272,0.3811,0.70313,-1.267,-3.466,-4.214
2026-06-01 16:05:21.537,2213460993,633537,1,-0.35254,0.04541,0.99902,11.786,1.542,-2.191
2026-06-01 16:05:21.537,2213460993,633537,2,0.55444,0.39478,0.69019,-2.863,-2.115,-4.191
2026-06-01 16:05:21.737,2213461193,633737,1,-0.37573,0.0564,1.01636,0.718,6.183,-5.282
2026-06-01 16:05:21.737,2213461193,633737,2,0.53662,0.39575,0.7002,-4.725,1.176,-3.252
2026-06-01 16:05:22.937,2213462393,633937,1,-0.37573,0.05078,1.00586,3.58,3.351,-2.511
2026-06-01 16:05:22.937,2213462393,633937,2,0.53125,0.39722,0.70898,-2.84,0.748,-1.832
2026-06-01 16:05:22.137,2213461593,634137,1,-0.38916,0.05322,1.00757,4.244,2.382,-2.557
2026-06-01 16:05:22.137,2213461593,634137,2,0.54053,0.40039,0.70264,-1.382,-1.191,-2.664
2026-06-01 16:05:22.337,2213461793,634337,1,-0.3877,0.07056,1.00708,0.634,1.733,-3.458
2026-06-01 16:05:22.337,2213461793,634337,2,0.52759,0.4021,0.70264,-3.046,0.427,-0.664
2026-06-01 16:05:22.537,2213461993,634537,1,-0.38232,0.05249,0.99463,-0.282,0.832,-2.893
2026-06-01 16:05:22.537,2213461993,634537,2,0.53442,0.39795,0.71411,-2.885,1.947,0.489
2026-06-01 16:05:22.737,2213462193,634737,1,-0.37573,0.0376,1.00366,0.061,5.137,0.137
2026-06-01 16:05:22.737,2213462193,634737,2,0.53589,0.39209,0.70239,-0.55,2.817,-0.664
2026-06-01 16:05:23.937,2213463393,634937,1,-0.40332,0.05273,1.00293,-3.382,3.183,1.221
2026-06-01 16:05:23.937,2213463393,634937,2,0.51245,0.40625,0.70898,-0.443,5.55,3.145
2026-06-01 16:05:23.137,2213462593,635137,1,-0.39648,0.04834,0.98071,-4.992,5.962,1.733
2026-06-01 16:05:23.137,2213462593,635137,2,0.48364,0.41455,0.71265,-2.695,12.771,1.679
2026-06-01 16:05:23.337,2213462793,635337,1,-0.43335,0.01294,0.96191,-9.527,10.229,5.496
2026-06-01 16:05:23.337,2213462793,635337,2,0.47925,0.34058,0.8396,-9.16,9.244,0.893
2026-06-01 16:05:23.537,2213462993,635537,1,-0.41699,0.04419,0.93701,9.557,5.115,25.664
2026-06-01 16:05:23.537,2213462993,635537,2,0.40869,0.40942,0.75903,9.389,12.817,-1.038
2026-06-01 16:05:23.737,2213463193,635737,1,-0.50195,0.12988,0.99658,-3.931,13.824,11.672
2026-06-01 16:05:23.737,2213463193,635737,2,0.39722,0.44214,0.78638,-2.29,12.313,10.298
2026-06-01 16:05:24.937,2213464393,635937,1,-0.64038,0.08301,1.09766,7.107,-18.885,7.679
2026-06-01 16:05:24.937,2213464393,635937,2,0.43433,0.4812,0.80713,16.832,-36.359,16.282
2026-06-01 16:05:24.137,2213463593,636137,1,-0.52563,0.14697,1.09497,-0.008,-92.122,3.237
2026-06-01 16:05:24.137,2213463593,636137,2,0.56836,0.40454,0.58228,-10.618,-95.656,45.893
2026-06-01 16:05:24.337,2213463793,636337,1,0.0791,0.05713,0.9126,-30.099,-132.008,-4.107
2026-06-01 16:05:24.337,2213463793,636337,2,0.89722,0.11865,0.33496,-1.076,-74.153,60.099
2026-06-01 16:05:24.537,2213463993,636537,1,0.51416,-0.15845,0.86401,-20.038,-97.435,-7.275
2026-06-01 16:05:24.537,2213463993,636537,2,0.98022,-0.01245,0.27197,-31.939,-43.092,25.763
2026-06-01 16:05:24.737,2213464193,636737,1,0.68604,-0.1814,0.78442,18.786,-58.321,3.45
2026-06-01 16:05:24.737,2213464193,636737,2,1.0332,-0.06689,0.22266,3.275,-35.885,2.275
2026-06-01 16:05:25.937,2213465393,636937,1,0.89722,-0.02222,0.74512,27.107,-25.282,1.527
2026-06-01 16:05:25.937,2213465393,636937,2,1.02905,0.03882,0.10352,35.405,2.771,-0.084
2026-06-01 16:05:25.137,2213464593,637137,1,0.91309,0.05469,0.67407,39.634,7.534,-8.328
2026-06-01 16:05:25.137,2213464593,637137,2,1.10181,0.01807,-0.02979,65.038,13.389,-3.634
2026-06-01 16:05:25.337,2213464793,637337,1,0.83521,0.22241,0.63452,54.573,-0.985,11.763
2026-06-01 16:05:25.337,2213464793,637337,2,0.99121,0.08521,-0.16089,23.244,-9.321,-15.313
2026-06-01 16:05:25.537,2213464993,637537,1,0.88672,0.26563,0.62451,5.359,-5.26,-15.74
2026-06-01 16:05:25.537,2213464993,637537,2,1.04565,0.11182,-0.11841,21.534,-2.519,-3.878
2026-06-01 16:05:25.737,2213465193,637737,1,0.82666,0.40161,0.58838,36.359,4.534,8.992
2026-06-01 16:05:25.737,2213465193,637737,2,0.99243,0.10693,-0.22119,-10.641,-5.206,4.473
2026-06-01 16:05:26.937,2213466393,637937,1,0.8606,0.34668,0.57373,-54.893,5.84,-13.298
2026-06-01 16:05:26.937,2213466393,637937,2,1.02612,0.12744,-0.13184,-32.557,25.046,14.023
2026-06-01 16:05:26.137,2213465593,638137,1,0.85962,0.27051,0.63867,-76.084,5.916,-4.198
2026-06-01 16:05:26.137,2213465593,638137,2,1.20972,0.07715,0.10571,-99.221,2.229,6.763
2026-06-01 16:05:26.337,2213465793,638337,1,0.79224,-0.1604,0.93237,-76.13,29.496,-5.557
2026-06-01 16:05:26.337,2213465793,638337,2,0.95923,-0.17993,0.27344,-25.916,12.504,15.153
2026-06-01 16:05:26.537,2213465993,638537,1,0.72168,-0.17212,0.79028,-22.527,-15.618,-8.687
2026-06-01 16:05:26.537,2213465993,638537,2,0.99438,-0.12256,0.1687,-11.603,4.519,26.282
2026-06-01 16:05:26.737,2213466193,638737,1,0.79297,-0.26318,0.80396,8.206,-1.992,10.817
2026-06-01 16:05:26.737,2213466193,638737,2,0.98682,-0.19751,0.19727,-5.664,-7.687,-0.626
2026-06-01 16:05:27.937,2213467393,638937,1,0.79785,-0.20752,0.77002,13.565,0.137,7.863
2026-06-01 16:05:27.937,2213467393,638937,2,1.01172,-0.14575,0.16943,9.977,0.397,-0.687
2026-06-01 16:05:27.137,2213466593,639137,1,0.77197,-0.17017,0.77271,5.649,6.443,0.71
2026-06-01 16:05:27.137,2213466593,639137,2,0.97095,-0.14063,0.17285,6.603,3.046,-0.405
2026-06-01 16:05:27.337,2213466793,639337,1,0.75952,-0.17358,0.83667,2.504,-1.099,-2.244
2026-06-01 16:05:27.337,2213466793,639337,2,0.97803,-0.15723,0.13354,-5.664,-11.458,-5.542
2026-06-01 16:05:27.537,2213466993,639537,1,0.76807,-0.15918,0.76294,20.74,-11.427,0.588
2026-06-01 16:05:27.537,2213466993,639537,2,0.98804,-0.15552,0.10083,3.198,-14.458,-8.092
2026-06-01 16:05:27.737,2213467193,639737,1,0.80884,-0.00708,0.68115,78.931,6.405,-0.939
2026-06-01 16:05:27.737,2213467193,639737,2,0.85718,-0.03931,0.07959,55.519,13.771,-13.947
2026-06-01 16:05:28.937,2213468393,639937,1,0.88965,0.23242,0.67676,-37.687,-8.282,-7.618
2026-06-01 16:05:28.937,2213468393,639937,2,0.94775,0.03052,-0.15723,-98.336,-19.061,-9.351
2026-06-01 16:05:28.137,2213467593,640137,1,0.74951,0.14551,0.95288,-133.504,46.809,-35.618
2026-06-01 16:05:28.137,2213467593,640137,2,0.92456,0.01416,-0.28833,-17.191,-14.244,27.191
2026-06-01 16:05:28.337,2213467793,640337,1,0.72168,-0.18359,0.79541,-82.015,17.595,-50.702
2026-06-01 16:05:28.337,2213467793,640337,2,0.91553,-0.25269,0.08447,-88.443,15.511,-2.687
2026-06-01 16:05:28.537,2213467993,640537,1,0.73999,-0.40234,0.79858,-53.275,3.122,-37.87
2026-06-01 16:05:28.537,2213467993,640537,2,0.95654,-0.32275,0.3103,-51.939,2.542,-3.718
2026-06-01 16:05:28.737,2213468193,640737,1,0.84863,-0.29028,0.74902,-8.176,-5.084,-13.977
2026-06-01 16:05:28.737,2213468193,640737,2,1.06494,-0.29785,0.28149,31.214,2.847,-9.252
2026-06-01 16:05:29.937,2213469393,640937,1,0.76245,-0.31323,0.79126,-16.71,0.237,1.626
2026-06-01 16:05:29.937,2213469393,640937,2,0.95386,-0.23999,0.16333,23.733,-12.573,-4.473
2026-06-01 16:05:29.137,2213468593,641137,1,0.77539,-0.35815,0.74341,-0.74,-18.038,9.847
2026-06-01 16:05:29.137,2213468593,641137,2,0.98901,-0.31885,0.073,1.198,-26.718,-9.099
2026-06-01 16:05:29.337,2213468793,641337,1,0.85791,-0.18286,0.71362,17.458,-10.733,0.977
2026-06-01 16:05:29.337,2213468793,641337,2,1.18677,-0.09888,-0.09058,59.351,-14.542,-4.107
2026-06-01 16:05:29.537,2213468993,641537,1,0.92578,0.05713,0.67651,38.74,43.084,-13.809
2026-06-01 16:05:29.537,2213468993,641537,2,1.04834,-0.07153,-0.03442,38.779,-48.511,-3.656
2026-06-01 16:05:29.737,2213469193,641737,1,0.90601,0.2666,0.58105,32.985,10.221,0.313
2026-06-01 16:05:29.737,2213469193,641737,2,0.89038,0.03223,-0.27612,67.504,-40.832,40.282
2026-06-01 16:05:30.937,2213470393,641937,1,0.82739,0.09595,0.80078,-51.069,18.443,-5.405
2026-06-01 16:05:30.937,2213470393,641937,2,0.99683,0.09961,0.21973,-34.115,28.527,4.489
2026-06-01 16:05:30.137,2213469593,642137,1,0.81445,0.04883,0.77319,-74.359,6.901,1.466
2026-06-01 16:05:30.137,2213469593,642137,2,1.10034,0.13184,0.16895,-67.145,-13.214,24.74
2026-06-01 16:05:30.337,2213469793,642337,1,0.83472,-0.19873,0.78613,-15.275,-38.084,16.076
2026-06-01 16:05:30.337,2213469793,642337,2,0.8667,-0.00342,0.23438,16.527,45.351,-12.267
2026-06-01 16:05:30.537,2213469993,642537,1,0.82861,-0.28027,0.79224,14.565,3.198,26.45
2026-06-01 16:05:30.537,2213469993,642537,2,1.06714,-0.0332,-0.00415,-17.183,0.26,-11.969
2026-06-01 16:05:30.737,2213470193,642737,1,0.69019,-0.36548,0.84644,29.786,14.183,-8.992
2026-06-01 16:05:30.737,2213470193,642737,2,0.90796,-0.05664,0.20752,9.351,-28.534,-12.931
2026-06-01 16:05:31.937,2213471393,642937,1,1.09375,-0.43726,-0.19141,-199.542,-157.863,-193.649
2026-06-01 16:05:31.937,2213471393,642937,2,0.94922,-0.42627,0.49463,-21.092,-10.305,-26.45
2026-06-01 16:05:31.137,2213470593,643137,1,0.86157,0.53198,0.91821,250.13,84.71,235.473
2026-06-01 16:05:31.137,2213470593,643137,2,1.24487,0.29321,0.07861,-195.313,-6.42,14.015
2026-06-01 16:05:31.337,2213470793,643337,1,0.89331,0.21411,0.56958,227.733,-0.519,140.977
2026-06-01 16:05:31.337,2213470793,643337,2,1.00806,0.14063,-0.12573,159.458,11.107,-10.298
2026-06-01 16:05:31.537,2213470993,643537,1,0.93872,0.15283,0.51758,17.695,-10.611,14.221
2026-06-01 16:05:31.537,2213470993,643537,2,1.05493,0.09814,-0.0498,11.229,-27.542,-20.008
2026-06-01 16:05:31.737,2213471193,643737,1,0.83398,0.24634,0.59766,53.168,11.382,9.069
2026-06-01 16:05:31.737,2213471193,643737,2,1.00244,0.06665,-0.11377,51.55,8.069,3.405
2026-06-01 16:05:32.937,2213472393,643937,1,0.86743,0.23511,0.58618,25.267,6.641,25.542
2026-06-01 16:05:32.937,2213472393,643937,2,1.03101,0.14868,0.05835,33.557,23.557,22.962
2026-06-01 16:05:32.137,2213471593,644137,1,0.96411,0.07495,0.66699,8.649,7.282,32.557
2026-06-01 16:05:32.137,2213471593,644137,2,1.21191,0.02075,0.05566,45.885,8.153,-6.321
2026-06-01 16:05:32.337,2213471793,644337,1,0.92725,0.04785,0.63672,24.481,23.802,25.008
2026-06-01 16:05:32.337,2213471793,644337,2,1.10693,-0.2041,-0.07178,15.336,20.611,4.496
2026-06-01 16:05:32.537,2213471993,644537,1,0.76929,-0.05884,0.6792,13.527,32.313,18.0
2026-06-01 16:05:32.537,2213471993,644537,2,0.90601,-0.10571,0.02686,-38.603,-41.29,9.634
2026-06-01 16:05:32.737,2213472193,644737,1,0.82739,-0.14526,0.7002,29.885,-23.588,15.687
2026-06-01 16:05:32.737,2213472193,644737,2,1.0105,-0.04883,0.02148,-18.542,-21.336,-12.58
2026-06-01 16:05:33.937,2213473393,644937,1,0.96875,-0.03955,0.66895,-21.588,-14.053,-15.649
2026-06-01 16:05:33.937,2213473393,644937,2,1.125,-0.00171,0.06738,2.015,8.656,4.16
2026-06-01 16:05:33.137,2213472593,645137,1,0.9646,0.104,0.57886,-4.695,-1.191,-22.71
2026-06-01 16:05:33.137,2213472593,645137,2,1.22876,0.1145,0.02637,20.45,6.42,11.542
2026-06-01 16:05:33.337,2213472793,645337,1,0.83423,0.12085,0.59009,27.275,-3.061,9.359
2026-06-01 16:05:33.337,2213472793,645337,2,0.94458,0.04565,-0.07739,6.901,-10.695,-9.168
2026-06-01 16:05:33.537,2213472993,645537,1,0.92236,0.10913,0.59937,-5.45,-6.962,-6.473
2026-06-01 16:05:33.537,2213472993,645537,2,1.00488,0.02368,-0.11621,-9.412,-13.084,3.137
2026-06-01 16:05:33.737,2213473193,645737,1,0.93408,0.13818,0.56006,9.252,-5.718,-6.176
2026-06-01 16:05:33.737,2213473193,645737,2,1.01782,0.00659,-0.06689,21.481,5.42,4.618
2026-06-01 16:05:34.937,2213474393,645937,1,0.97803,0.12866,0.54443,21.244,-6.244,19.008
2026-06-01 16:05:34.937,2213474393,645937,2,1.0415,0.01587,-0.07788,8.061,-6.603,6.947
2026-06-01 16:05:34.137,2213473593,646137,1,0.97388,0.08154,0.53467,13.855,0.687,14.153
2026-06-01 16:05:34.137,2213473593,646137,2,1.02808,0.03247,-0.08838,-7.763,-0.496,-3.511
2026-06-01 16:05:34.337,2213473793,646337,1,0.95117,0.07397,0.54663,-13.534,2.977,-13.359
2026-06-01 16:05:34.337,2213473793,646337,2,1.0459,0.01172,-0.02954,3.458,6.099,6.031
2026-06-01 16:05:34.537,2213473993,646537,1,0.93726,0.04956,0.57056,-4.351,3.626,-4.183
2026-06-01 16:05:34.537,2213473993,646537,2,1.03052,-0.00732,-0.02173,-0.496,1.718,-1.092
2026-06-01 16:05:34.737,2213474193,646737,1,0.93579,0.09131,0.56934,-2.244,1.786,-4.237
2026-06-01 16:05:34.737,2213474193,646737,2,1.03979,-0.00952,-0.04443,-5.076,-0.496,4.115
2026-06-01 16:05:35.937,2213475393,646937,1,0.9458,0.09302,0.54346,-6.695,-5.351,-5.344
2026-06-01T16:05:35.698836,,,,,,,,,
2026-06-01 16:05:35.937,2213475393,646937,2,1.03809,-0.01636,-0.01563,-8.779,-1.29,2.023
2026-06-01 16:05:35.137,2213474593,647137,1,0.95605,0.08105,0.55054,1.496,0.427,1.076
2026-06-01 16:05:35.137,2213474593,647137,2,1.03857,-0.01221,-0.04102,2.756,-3.023,1.023
2026-06-01 16:05:35.337,2213474793,647337,1,0.95923,0.09253,0.54688,2.618,0.328,-0.038
2026-06-01 16:05:35.337,2213474793,647337,2,1.03271,-0.00391,-0.0564,-1.45,-0.252,-1.802
2026-06-01 16:05:35.537,2213474993,647537,1,0.96436,0.10254,0.53589,0.046,5.321,-5.427
2026-06-01 16:05:35.537,2213474993,647537,2,1.03955,-0.00732,-0.05811,5.756,3.603,-2.092
2026-06-01 16:05:35.737,2213475193,647737,1,0.94629,0.12646,0.55762,-6.573,8.084,-6.244
2026-06-01 16:05:35.737,2213475193,647737,2,1.02588,-0.02734,-0.03394,-3.649,5.198,2.527
2026-06-01 16:05:36.937,2213476393,647937,1,0.9502,0.10107,0.58008,-7.985,3.198,-0.206
2026-06-01 16:05:36.937,2213476393,647937,2,1.03174,-0.01563,-0.03271,-3.626,1.557,-0.664
2026-06-01 16:05:36.137,2213475593,648137,1,0.93994,0.08301,0.57813,2.176,1.695,2.824
2026-06-01 16:05:36.137,2213475593,648137,2,1.052,0.01587,-0.0249,-1.763,-2.504,-5.908
2026-06-01 16:05:36.337,2213475793,648337,1,0.90942,0.10645,0.57837,4.275,3.466,2.473
2026-06-01 16:05:36.337,2213475793,648337,2,1.02246,-0.01123,-0.06592,8.458,0.092,5.16
2026-06-01 16:05:36.537,2213475993,648537,1,0.97974,0.07495,0.51782,14.748,2.366,7.565
2026-06-01 16:05:36.537,2213475993,648537,2,1.09521,0.00854,-0.06909,31.412,7.557,-1.183
2026-06-01 16:05:36.737,2213476193,648737,1,0.94263,0.13306,0.5376,1.748,9.611,7.206
2026-06-01 16:05:36.737,2213476193,648737,2,1.01904,-0.04053,-0.12524,11.527,12.389,-0.13
2026-06-01 16:05:37.937,2213477393,648937,1,1.03638,0.08472,0.63672,-22.863,-13.214,2.542
2026-06-01 16:05:37.937,2213477393,648937,2,0.97266,0.0481,-0.14307,-2.901,-12.939,-1.901
2026-06-01 16:05:37.143,2213476599,649143,1,0.93481,0.07642,0.65869,-14.336,2.405,1.489
2026-06-01 16:05:37.143,2213476599,649143,2,0.97119,0.00391,-0.04517,51.26,11.634,13.389
2026-06-01 16:05:37.343,2213476799,649343,1,0.96631,-0.15283,0.71387,1.763,3.198,3.099
2026-06-01 16:05:37.343,2213476799,649343,2,1.01099,-0.17822,0.05737,39.847,4.595,-12.611
2026-06-01 16:05:37.543,2213476999,649543,1,0.93774,-0.06396,0.60229,47.557,3.366,17.069
2026-06-01 16:05:37.543,2213476999,649543,2,1.08301,-0.10107,0.01782,6.641,-6.794,-3.076
2026-06-01 16:05:37.743,2213477199,649743,1,0.87915,0.00513,0.59937,41.756,2.87,14.794
2026-06-01 16:05:37.743,2213477199,649743,2,0.99536,-0.07373,0.00098,34.145,-0.733,13.328
2026-06-01 16:05:38.943,2213478399,649943,1,1.00317,0.1521,0.61768,18.878,16.16,-7.603
2026-06-01 16:05:38.943,2213478399,649943,2,1.00806,0.00732,0.01465,16.702,7.389,20.183
2026-06-01 16:05:38.143,2213477599,650143,1,0.90796,0.27246,0.61963,59.244,6.641,36.031
2026-06-01 16:05:38.143,2213477599,650143,2,1.03296,0.07471,-0.12549,31.382,-4.489,-7.191
2026-06-01 16:05:38.343,2213477799,650343,1,0.9021,0.17993,0.56738,18.718,-6.366,8.344
2026-06-01 16:05:38.343,2213477799,650343,2,1.09351,-0.02368,0.10962,2.771,8.061,16.916
2026-06-01 16:05:38.543,2213477999,650543,1,0.91846,0.10864,0.61719,17.718,11.58,14.489
2026-06-01 16:05:38.543,2213477999,650543,2,1.02954,0.02832,0.07129,2.824,-8.061,-6.412
2026-06-01 16:05:38.743,2213478199,650743,1,0.91455,0.09644,0.61621,-3.618,-1.084,-4.076
2026-06-01 16:05:38.743,2213478199,650743,2,1.03101,0.02002,-0.00659,-0.328,2.611,0.336
2026-06-01 16:05:39.943,2213479399,650943,1,0.91821,0.09375,0.60376,4.496,0.672,-0.786
2026-06-01 16:05:39.943,2213479399,650943,2,1.02979,0.00708,-0.00903,1.931,-2.458,-2.405
2026-06-01 16:05:39.143,2213478599,651143,1,0.91211,0.10571,0.59717,1.58,2.053,-8.466
2026-06-01 16:05:39.143,2213478599,651143,2,1.03955,0.01489,-0.04102,-6.595,-3.023,0.916
2026-06-01 16:05:39.343,2213478799,651343,1,0.90894,0.13232,0.60669,-0.298,-1.176,-9.656
2026-06-01 16:05:39.343,2213478799,651343,2,1.02368,0.01758,-0.01636,-4.221,-1.481,-2.214
2026-06-01 16:05:39.543,2213478999,651543,1,0.90625,0.16064,0.60547,8.145,-0.58,-1.237
2026-06-01 16:05:39.543,2213478999,651543,2,1.01855,0.03833,-0.02417,5.45,-3.344,1.794
2026-06-01 16:05:39.743,2213479199,651743,1,0.92456,0.17944,0.5791,8.71,-0.328,4.481
2026-06-01 16:05:39.743,2213479199,651743,2,1.03979,0.04175,-0.08057,0.84,-6.588,0.191
2026-06-01 16:05:40.943,2213480399,651943,1,0.92896,0.18384,0.55151,-3.45,-4.824,-1.695
2026-06-01 16:05:40.943,2213480399,651943,2,1.03174,0.02246,-0.0769,-9.947,-0.664,4.099
2026-06-01 16:05:40.143,2213479599,652143,1,0.94702,0.15674,0.54419,-4.435,1.489,-3.786
2026-06-01 16:05:40.143,2213479599,652143,2,1.03345,0.03369,-0.04492,-1.252,-0.107,-0.191
2026-06-01 16:05:40.343,2213479799,652343,1,0.9209,0.17407,0.56299,-4.031,5.626,-4.168
2026-06-01 16:05:40.343,2213479799,652343,2,1.03003,0.01636,-0.07666,0.527,1.947,-0.26
2026-06-01 16:05:40.543,2213479999,652543,1,0.92944,0.21362,0.54126,4.618,9.786,1.046
2026-06-01 16:05:40.543,2213479999,652543,2,1.03149,0.04614,-0.08862,0.275,8.931,0.313
2026-06-01 16:05:40.743,2213480199,652743,1,0.90698,0.22778,0.56982,-10.244,8.748,5.198
2026-06-01 16:05:40.743,2213480199,652743,2,1.02344,0.02686,-0.07397,-13.901,13.779,2.595
2026-06-01 16:05:41.943,2213481399,652943,1,0.948,0.1001,0.61426,-30.092,10.366,5.595
2026-06-01 16:05:41.943,2213481399,652943,2,0.98218,0.01343,-0.07056,-16.748,-4.931,-5.008
2026-06-01 16:05:41.143,2213480599,653143,1,0.90356,0.02173,0.66406,-15.588,7.649,7.519
2026-06-01 16:05:41.143,2213480599,653143,2,1.01953,0.01855,-0.04468,-9.26,1.252,-7.145
2026-06-01 16:05:41.343,2213480799,653343,1,0.84937,-0.01587,0.65845,-17.939,-2.405,-12.969
2026-06-01 16:05:41.343,2213480799,653343,2,0.99731,-0.03198,0.02881,-18.321,-9.305,7.901
2026-06-01 16:05:41.543,2213480999,653543,1,0.95532,-0.06958,0.65015,0.809,-5.679,-8.206
2026-06-01 16:05:41.543,2213480999,653543,2,1.05933,-0.10986,0.08643,2.656,7.786,13.969
2026-06-01 16:05:41.743,2213481199,653743,1,0.88379,-0.0647,0.62085,-22.504,-6.153,-6.969
2026-06-01 16:05:41.743,2213481199,653743,2,1.0166,-0.12329,0.03833,-29.389,-7.664,11.893
2026-06-01 16:05:42.943,2213482399,653943,1,0.89404,0.06812,0.5647,7.389,7.504,-2.824
2026-06-01 16:05:42.943,2213482399,653943,2,0.89453,-0.02661,0.09229,-55.603,3.557,-11.542
2026-06-01 16:05:42.143,2213481599,654143,1,0.99121,0.1355,0.62231,-50.977,9.878,-33.122
2026-06-01 16:05:42.143,2213481599,654143,2,1.01147,-0.05688,-0.16528,-43.321,-4.427,8.137
2026-06-01 16:05:42.343,2213481799,654343,1,1.00659,0.1394,0.49268,-86.145,-28.13,-40.885
2026-06-01 16:05:42.343,2213481799,654343,2,1.14258,-0.12476,0.00098,-54.496,21.679,20.122
2026-06-01 16:05:42.543,2213481999,654543,1,0.96045,-0.04077,0.52979,-40.504,12.092,-18.344
2026-06-01 16:05:42.543,2213481999,654543,2,0.96387,-0.03394,0.00684,19.252,-0.611,-1.519
2026-06-01 16:05:42.743,2213482199,654743,1,1.01318,-0.01001,0.5293,-42.092,7.695,-17.252
2026-06-01 16:05:42.743,2213482199,654743,2,1.05371,-0.04126,0.0249,-13.924,12.908,-17.931
2026-06-01 16:05:43.943,2213483399,654943,1,0.94189,-0.08057,0.61255,-61.305,32.26,-24.008
2026-06-01 16:05:43.943,2213483399,654943,2,1.00024,-0.20874,0.0144,-8.824,34.115,-5.183
2026-06-01 16:05:43.143,2213482599,655143,1,0.8396,-0.1377,0.70166,-20.527,7.664,1.557
2026-06-01 16:05:43.143,2213482599,655143,2,1.00781,-0.1394,0.04077,2.076,2.656,2.252
2026-06-01 16:05:43.343,2213482799,655343,1,0.85303,-0.11206,0.68628,0.74,-8.412,-4.206
2026-06-01 16:05:43.343,2213482799,655343,2,1.02271,-0.05762,0.02515,-37.031,-18.588,-4.695
2026-06-01 16:05:43.543,2213482999,655543,1,0.90259,-0.08032,0.63867,-25.847,-18.344,-25.229
2026-06-01 16:05:43.543,2213482999,655543,2,1.01758,-0.13379,0.06128,-16.031,-5.084,6.29
2026-06-01 16:05:43.743,2213483199,655743,1,0.9812,-0.06885,0.60278,-10.092,-3.855,-10.046
2026-06-01 16:05:43.743,2213483199,655743,2,1.05103,-0.04443,0.01099,-35.641,-6.573,-6.603
2026-06-01 16:05:44.943,2213484399,655943,1,0.91431,0.05469,0.57593,-1.015,1.405,-18.221
2026-06-01 16:05:44.943,2213484399,655943,2,1.12329,0.08667,-0.15161,26.924,-8.45,-1.687
2026-06-01 16:05:44.143,2213483599,656143,1,1.01123,0.18823,0.39673,19.756,3.985,-10.924
2026-06-01 16:05:44.143,2213483599,656143,2,1.03955,0.05591,-0.2312,29.511,14.924,-9.069
2026-06-01 16:05:44.343,2213483799,656343,1,0.96191,0.26563,0.47461,-18.71,25.412,-14.053
2026-06-01 16:05:44.343,2213483799,656343,2,1.01709,0.01709,-0.20557,-35.45,20.977,-6.29
2026-06-01 16:05:44.543,2213483999,656543,1,0.91455,0.20752,0.61548,-22.626,20.191,6.55
2026-06-01 16:05:44.543,2213483999,656543,2,1.01636,0.04834,0.05005,-60.733,15.344,-21.115
2026-06-01 16:05:44.743,2213484199,656743,1,0.97998,-0.24121,0.83032,-13.389,86.252,-41.313
2026-06-01 16:05:44.743,2213484199,656743,2,1.05493,-0.13647,0.41113,-39.45,62.176,-31.305
2026-06-01 16:05:45.943,2213485399,656943,1,0.33252,-0.15503,0.74048,1.733,58.702,-12.45
2026-06-01 16:05:45.943,2213485399,656943,2,0.7207,0.22778,0.21875,64.099,61.718,-49.847
2026-06-01 16:05:45.143,2213484599,657143,1,0.19214,0.32153,0.67944,-58.191,69.313,-41.076
2026-06-01 16:05:45.143,2213484599,657143,2,0.23218,0.45605,-0.00488,-14.038,65.29,-29.466
2026-06-01 16:05:45.343,2213484799,657343,1,0.10352,-0.08667,1.23926,-32.359,-26.29,-11.817
2026-06-01 16:05:45.343,2213484799,657343,2,0.99438,0.3252,0.44116,28.214,-8.031,31.344
2026-06-01 16:05:45.543,2213484999,657543,1,0.54224,0.11157,1.51904,-26.725,-37.809,-14.405
2026-06-01 16:05:45.543,2213484999,657543,2,1.27466,0.15259,0.36548,-41.489,-10.649,4.939
2026-06-01 16:05:45.743,2213485199,657743,1,0.40967,0.0293,1.06519,13.588,-35.305,-4.26
2026-06-01 16:05:45.743,2213485199,657743,2,1.01807,0.04297,0.22949,6.198,-27.618,4.443
2026-06-01 16:05:46.943,2213486399,657943,1,0.68359,0.1687,0.98535,10.336,-24.656,7.115
2026-06-01 16:05:46.943,2213486399,657943,2,1.11353,0.06567,0.18457,6.809,-7.313,7.672
2026-06-01 16:05:46.143,2213485599,658143,1,0.04297,0.22583,0.79077,-21.855,45.679,27.26
2026-06-01 16:05:46.143,2213485599,658143,2,1.14746,-0.0437,0.10327,-0.26,8.496,6.267
2026-06-01 16:05:46.343,2213485799,658343,1,0.448,0.1333,0.83081,-21.206,-12.084,0.107
2026-06-01 16:05:46.343,2213485799,658343,2,0.84253,0.0835,0.13623,-13.198,-9.008,1.45
2026-06-01 16:05:46.543,2213485999,658543,1,0.66162,0.06787,1.07739,-5.786,-9.115,-8.992
2026-06-01 16:05:46.543,2213485999,658543,2,1.14575,0.01147,0.23242,-2.679,6.168,1.824
2026-06-01 16:05:46.743,2213486199,658743,1,0.48389,0.06592,0.89502,40.702,11.71,11.679
2026-06-01 16:05:46.743,2213486199,658743,2,0.94165,0.04761,0.12329,14.191,-8.947,0.206
2026-06-01 16:05:47.943,2213487399,658943,1,0.6814,0.05225,0.95215,-21.565,-10.603,-3.061
2026-06-01 16:05:47.943,2213487399,658943,2,1.06421,0.05298,0.15845,-30.382,2.267,2.16
2026-06-01 16:05:47.143,2213486599,659143,1,0.54858,0.1001,0.96924,27.122,11.275,7.611
2026-06-01 16:05:47.143,2213486599,659143,2,0.94312,0.05273,0.14233,27.42,3.0,0.588
2026-06-01 16:05:47.343,2213486799,659343,1,0.5437,-0.00073,1.00684,-12.947,-8.947,-6.427
2026-06-01 16:05:47.343,2213486799,659343,2,1.01538,0.05859,0.13232,-1.725,-8.809,0.985
2026-06-01 16:05:47.543,2213486999,659543,1,0.59375,0.0542,0.94849,-15.206,-9.214,-6.0
2026-06-01 16:05:47.543,2213486999,659543,2,1.01318,0.0144,0.10718,-6.206,-5.282,4.527
2026-06-01 16:05:47.743,2213487199,659743,1,0.62671,0.0376,0.94238,-1.122,-5.71,-4.489
2026-06-01 16:05:47.743,2213487199,659743,2,1.02417,-0.00879,0.05615,-5.313,-5.382,3.756
2026-06-01 16:05:48.943,2213488399,659943,1,0.64063,0.03711,0.94971,-0.847,-2.794,1.458
2026-06-01 16:05:48.943,2213488399,659943,2,1.03247,-0.00513,0.0564,-5.87,-1.336,2.046
2026-06-01 16:05:48.143,2213487599,660143,1,0.54639,0.0437,1.0874,1.038,-12.328,-1.076
2026-06-01 16:05:48.143,2213487599,660143,2,1.0686,-0.00977,0.07446,-5.458,-12.168,4.725
2026-06-01 16:05:48.343,2213487799,660343,1,0.66357,0.01978,0.79053,12.985,6.282,3.992
2026-06-01 16:05:48.343,2213487799,660343,2,1.04297,-0.02612,0.02344,6.206,-4.931,3.962
2026-06-01 16:05:48.543,2213487999,660543,1,0.70752,0.06909,0.94238,5.412,-2.038,-3.885
2026-06-01 16:05:48.543,2213487999,660543,2,1.03003,-0.02979,0.02539,-3.16,3.298,-2.107
2026-06-01 16:05:48.743,2213488199,660743,1,0.6687,0.04419,0.87402,-2.29,8.275,-2.206
2026-06-01 16:05:48.743,2213488199,660743,2,1.04102,-0.0127,0.02197,0.901,0.908,-0.26
2026-06-01 16:05:49.943,2213489399,660943,1,0.64111,0.08423,0.90771,2.336,4.809,1.443
2026-06-01 16:05:49.943,2213489399,660943,2,1.00366,0.00171,0.04199,-3.046,2.687,1.031
2026-06-01 16:05:49.143,2213488599,661143,1,0.65259,0.05859,0.91968,-1.725,0.26,-0.458
2026-06-01 16:05:49.143,2213488599,661143,2,1.02734,-0.01685,0.03882,-1.641,-0.504,2.237
2026-06-01 16:05:49.343,2213488799,661343,1,0.62891,0.06934,0.92578,-36.802,2.397,-29.55
2026-06-01 16:05:49.343,2213488799,661343,2,0.99316,-0.03589,0.17773,-205.557,18.618,-14.786
2026-06-01 16:05:49.543,2213488999,661543,1,0.68335,0.04907,0.89526,-28.573,-2.191,-17.427
2026-06-01 16:05:49.543,2213488999,661543,2,1.00879,-0.02148,0.12378,28.305,1.634,-0.351
2026-06-01 16:05:49.743,2213489199,661743,1,0.70337,0.00391,0.86792,-54.824,-41.878,-29.015
2026-06-01 16:05:49.743,2213489199,661743,2,1.03271,-0.0188,0.02588,-0.954,4.412,2.305
2026-06-01 16:05:50.943,2213490399,661943,1,0.7688,-0.05029,0.80371,3.565,-1.962,-0.206
2026-06-01 16:05:50.943,2213490399,661943,2,1.01733,-0.02515,0.04102,33.626,1.901,1.038
2026-06-01 16:05:50.143,2213489599,662143,1,0.74731,-0.0166,0.84961,20.672,-0.511,5.656
2026-06-01 16:05:50.143,2213489599,662143,2,1.03516,-0.08521,-0.09497,36.603,3.275,-1.824
2026-06-01 16:05:50.343,2213489799,662343,1,0.75781,-0.00439,0.83765,3.145,4.351,0.298
2026-06-01 16:05:50.343,2213489799,662343,2,1.03003,-0.04736,-0.11377,-12.893,3.046,1.198
2026-06-01 16:05:50.543,2213489999,662543,1,0.74658,-0.00244,0.83252,3.649,8.069,0.458
2026-06-01 16:05:50.543,2213489999,662543,2,1.02832,-0.0686,-0.12378,2.71,1.588,0.298
2026-06-01 16:05:50.743,2213490199,662743,1,0.7417,0.00732,0.84912,-3.672,-0.374,-1.588
2026-06-01 16:05:50.743,2213490199,662743,2,1.0415,-0.08057,-0.13989,-9.489,-1.534,2.718
2026-06-01 16:05:51.943,2213491399,662943,1,0.73633,-0.00098,0.84082,-7.0,2.305,-1.771
2026-06-01 16:05:51.943,2213491399,662943,2,0.94067,0.09473,-0.11255,-43.939,16.13,4.481
2026-06-01 16:05:51.143,2213490599,663143,1,0.73193,-0.02783,0.85303,1.366,3.557,-1.16
2026-06-01 16:05:51.143,2213490599,663143,2,1.0127,-0.03735,-0.12109,4.458,-3.191,0.389
2026-06-01 16:05:51.343,2213490799,663343,1,0.72681,0.02441,0.85107,-10.115,-1.053,-2.168
2026-06-01 16:05:51.343,2213490799,663343,2,1.01416,-0.00732,-0.17432,-5.29,2.931,-1.031
2026-06-01 16:05:51.543,2213490999,663543,1,0.76733,0.01343,0.81958,-3.878,-0.198,-0.198
2026-06-01 16:05:51.543,2213490999,663543,2,1.02368,-0.05029,-0.13696,0.137,2.595,-1.954
2026-06-01 16:05:51.743,2213491199,663743,1,0.76685,-0.00439,0.81738,-2.275,-1.901,-2.611
2026-06-01 16:05:51.743,2213491199,663743,2,1.03345,-0.08887,-0.12598,-7.687,-1.878,1.885
2026-06-01 16:05:52.943,2213492399,663943,1,0.77832,0.00195,0.81226,-0.672,2.817,-0.214
2026-06-01 16:05:52.943,2213492399,663943,2,1.02246,-0.0791,-0.104,24.641,3.649,-4.015
2026-06-01 16:05:52.143,2213491599,664143,1,0.76782,-0.00415,0.81226,-3.931,1.198,-1.992
2026-06-01 16:05:52.143,2213491599,664143,2,1.02881,-0.06714,-0.11499,0.443,-2.618,0.542
2026-06-01 16:05:52.343,2213491799,664343,1,0.66797,0.0708,0.80371,-27.603,43.954,-5.191
2026-06-01 16:05:52.343,2213491799,664343,2,1.04321,-0.05811,-0.06982,13.519,12.397,-3.634
2026-06-01 16:05:52.543,2213491999,664543,1,0.67749,0.00806,0.92261,99.405,56.534,66.45
2026-06-01 16:05:52.543,2213491999,664543,2,1.06543,-0.0918,-0.12402,-7.176,-29.359,6.359
2026-06-01 16:05:52.743,2213492199,664743,1,0.6499,0.05542,0.91797,27.168,-5.183,16.672
2026-06-01 16:05:52.743,2213492199,664743,2,1.02612,-0.02759,-0.02783,-2.328,-2.954,2.145
2026-06-01 16:05:53.943,2213493399,664943,1,0.63062,0.03271,0.91968,-2.824,3.687,-3.168
2026-06-01 16:05:53.943,2213493399,664943,2,1.02612,-0.03662,0.00269,0.855,3.924,-0.748
2026-06-01 16:05:53.143,2213492599,665143,1,0.6438,0.03418,0.92139,2.725,2.779,-4.687
2026-06-01 16:05:53.143,2213492599,665143,2,1.03101,-0.04419,-0.00879,-0.466,-1.351,-0.618
2026-06-01 16:05:53.343,2213492799,665343,1,0.64941,0.06909,0.91113,3.275,0.031,-5.183
2026-06-01 16:05:53.343,2213492799,665343,2,1.03027,-0.02222,-0.03955,-3.092,-1.71,-1.55
2026-06-01 16:05:53.543,2213492999,665543,1,0.6521,0.08618,0.91699,0.382,2.084,-4.053
2026-06-01 16:05:53.543,2213492999,665543,2,1.03149,-0.01807,-0.03638,-2.466,-0.672,-1.107
2026-06-01 16:05:53.743,2213493199,665743,1,0.64771,0.09448,0.91333,1.908,2.405,0.145
2026-06-01 16:05:53.743,2213493199,665743,2,1.02832,-0.00439,-0.03247,-3.802,-0.313,0.481
2026-06-01 16:05:54.943,2213494399,665943,1,0.65747,0.08496,0.89771,-0.588,2.008,0.252
2026-06-01 16:05:54.943,2213494399,665943,2,1.04102,-0.02783,-0.03442,-0.794,-1.305,0.885
2026-06-01 16:05:54.143,2213493599,666143,1,0.65918,0.05835,0.92236,1.74,-0.641,5.969
2026-06-01 16:05:54.143,2213493599,666143,2,1.03857,-0.00806,-0.0498,3.405,-0.634,-2.198
2026-06-01 16:05:54.343,2213493799,666343,1,0.59351,0.08374,0.93335,-11.176,-18.527,-2.42
2026-06-01 16:05:54.343,2213493799,666343,2,0.99707,-0.00293,-0.02661,-16.267,-14.16,4.908
2026-06-01 16:05:54.543,2213493999,666543,1,0.71313,0.06616,0.86548,-12.496,0.466,-2.779
2026-06-01 16:05:54.543,2213493999,666543,2,1.03906,-0.06714,-0.05884,-2.153,1.908,-1.122
2026-06-01 16:05:54.749,2213494205,666749,1,0.73608,0.03857,0.83081,5.382,3.863,2.176
2026-06-01 16:05:54.749,2213494205,666749,2,1.03711,-0.04883,-0.0498,4.084,4.626,1.466
2026-06-01 16:05:55.949,2213495405,666949,1,0.73901,0.0686,0.89136,5.832,14.16,3.176
2026-06-01 16:05:55.949,2213495405,666949,2,1.05591,-0.0249,-0.04248,6.504,9.382,-3.191
2026-06-01 16:05:55.149,2213494605,667149,1,0.68359,0.07373,0.87402,6.481,4.725,3.695
2026-06-01 16:05:55.149,2213494605,667149,2,1.01416,0.01636,-0.021,-0.382,9.26,-3.664
2026-06-01 16:05:55.349,2213494805,667349,1,0.66479,0.08325,0.92725,15.237,12.443,2.069
2026-06-01 16:05:55.349,2213494805,667349,2,1.03394,0.03711,0.01099,-3.473,8.817,-2.687
2026-06-01 16:05:55.549,2213495005,667549,1,0.61694,0.10327,0.93555,-1.031,12.115,-2.847
2026-06-01 16:05:55.549,2213495005,667549,2,1.04395,0.00977,0.03516,-5.977,4.496,-1.153
2026-06-01 16:05:55.749,2213495205,667749,1,0.60547,0.06396,0.95703,-0.321,7.206,0.672
2026-06-01 16:05:55.749,2213495205,667749,2,1.04028,0.00952,0.03735,-11.275,6.817,-4.305
2026-06-01 16:05:56.949,2213496405,667949,1,0.57373,0.04517,0.96777,-15.092,8.053,-0.55
2026-06-01 16:05:56.949,2213496405,667949,2,1.02539,0.03027,0.07764,-0.16,5.679,0.176
2026-06-01 16:05:56.149,2213495605,668149,1,0.59351,0.07788,0.95483,-4.802,1.0,-5.397
2026-06-01 16:05:56.149,2213495605,668149,2,1.00415,0.0127,0.10498,0.656,10.939,-3.13
2026-06-01 16:05:56.349,2213495805,668349,1,0.5249,0.04541,0.99756,6.794,5.008,4.481
2026-06-01 16:05:56.349,2213495805,668349,2,1.01782,0.02441,0.11694,5.29,2.664,-1.145
2026-06-01 16:05:56.549,2213496005,668549,1,0.5293,0.08447,0.98853,3.405,1.962,1.74
2026-06-01 16:05:56.549,2213496005,668549,2,1.01953,0.05249,0.11182,0.924,-0.626,1.87
2026-06-01 16:05:56.749,2213496205,668749,1,0.55493,0.08179,0.96411,0.656,1.008,2.176
2026-06-01 16:05:56.749,2213496205,668749,2,1.01929,0.0498,0.08789,-2.855,-1.023,2.672
2026-06-01 16:05:57.949,2213497405,668949,1,0.55859,0.04785,0.96729,-5.336,0.603,-0.725
2026-06-01 16:05:57.949,2213497405,668949,2,1.03857,0.00464,0.09253,-3.603,1.008,2.672
2026-06-01 16:05:57.149,2213496605,669149,1,0.51953,0.02686,0.99976,-5.252,11.824,2.855
2026-06-01 16:05:57.149,2213496605,669149,2,1.00195,0.02856,0.10767,-9.779,3.42,1.427
2026-06-01 16:05:57.349,2213496805,669349,1,0.54395,0.02661,0.99146,-13.29,0.374,-0.282
2026-06-01 16:05:57.349,2213496805,669349,2,1.01489,0.00146,0.13574,-11.695,2.427,4.611
2026-06-01 16:05:57.549,2213497005,669549,1,0.52319,-0.0415,0.99927,-8.351,0.344,-0.061
2026-06-01 16:05:57.549,2213497005,669549,2,1.01147,-0.03638,0.14551,0.023,-1.725,3.977
2026-06-01 16:05:57.749,2213497205,669749,1,0.54346,-0.02051,0.98779,-9.542,-2.511,5.878
2026-06-01 16:05:57.749,2213497205,669749,2,1.01587,-0.02881,0.09668,-3.901,-0.191,8.58
2026-06-01 16:05:58.949,2213498405,669949,1,0.56616,-0.08667,0.99805,-5.305,-0.519,3.244
2026-06-01 16:05:58.949,2213498405,669949,2,1.00513,-0.07788,0.12964,-5.282,2.206,6.321
2026-06-01 16:05:58.149,2213497605,670149,1,0.55054,-0.13159,0.97339,-15.908,6.344,6.817
2026-06-01 16:05:58.149,2213497605,670149,2,1.00635,-0.0769,0.15503,-3.786,7.832,3.611
2026-06-01 16:05:58.349,2213497805,670349,1,0.50757,-0.18945,1.01733,-6.763,4.885,4.328
2026-06-01 16:05:58.349,2213497805,670349,2,0.98975,-0.08057,0.14404,-1.611,1.359,3.855
2026-06-01 16:05:58.549,2213498005,670549,1,0.51733,-0.25513,0.97632,-8.809,1.695,-1.534
2026-06-01 16:05:58.549,2213498005,670549,2,0.9978,-0.11865,0.17139,1.565,-1.611,0.634
2026-06-01 16:05:58.749,2213498205,670749,1,0.53027,-0.20996,0.9707,6.069,-2.321,-1.13
2026-06-01 16:05:58.749,2213498205,670749,2,0.99365,-0.0957,0.13599,6.618,-3.336,-1.13
2026-06-01 16:05:59.949,2213499405,670949,1,0.57544,-0.17529,0.95776,7.87,,-4.496
2026-06-01 16:05:59.949,2213499405,670949,2,1.02588,-0.07861,0.125,0.557,0.588,-3.977
2026-06-01 16:05:59.149,2213498605,671149,1,0.54639,-0.09985,0.97412,-2.351,1.504,-6.267
2026-06-01 16:05:59.149,2213498605,671149,2,1.0105,-0.07715,0.13208,-5.298,0.466,1.13
2026-06-01 16:05:59.349,2213498805,671349,1,0.54004,-0.1499,0.9856,-2.748,4.389,2.336
2026-06-01 16:05:59.349,2213498805,671349,2,1.00977,-0.05615,0.13599,-1.916,2.359,-0.061
2026-06-01 16:05:59.549,2213499005,671549,1,0.52417,-0.15601,0.98584,-4.26,2.649,-2.397
2026-06-01 16:05:59.549,2213499005,671549,2,1.00513,-0.08374,0.15991,-2.87,0.649,1.534
2026-06-01 16:05:59.749,2213499205,671749,1,0.54541,-0.17358,0.97192,5.206,2.794,2.901
2026-06-01 16:05:59.749,2213499205,671749,2,1.00122,-0.06299,0.14331,2.824,1.435,-0.053
2026-06-01 16:06:00.949,2213500405,671949,1,0.55786,-0.2085,0.93091,-9.397,-1.397,-3.427
2026-06-01 16:06:00.949,2213500405,671949,2,1.01465,-0.05835,0.14551,4.786,2.198,-1.542
2026-06-01 16:06:00.149,2213499605,672149,1,0.58081,-0.24316,0.92065,-10.489,-4.641,-9.412
2026-06-01 16:06:00.149,2213499605,672149,2,1.04199,-0.08447,0.13501,13.863,0.366,-4.885
2026-06-01 16:06:00.349,2213499805,672349,1,0.58252,-0.24438,0.896,-24.359,-7.679,-14.496
2026-06-01 16:06:00.349,2213499805,672349,2,1.05811,-0.0603,0.12769,14.328,-0.756,-3.55
2026-06-01 16:06:00.549,2213500005,672549,1,0.62012,-0.26123,0.90552,-39.947,-7.092,-21.153
2026-06-01 16:06:00.549,2213500005,672549,2,1.04102,-0.05054,0.12305,16.908,0.656,-3.756
2026-06-01 16:06:00.749,2213500205,672749,1,0.55249,-0.22705,0.96606,-26.641,2.664,-16.42
2026-06-01 16:06:00.749,2213500205,672749,2,1.01514,-0.03662,0.14819,-0.031,2.336,2.221
2026-06-01 16:06:01.949,2213501405,672949,1,0.5293,-0.18677,0.98315,17.969,3.229,6.145
2026-06-01 16:06:01.949,2213501405,672949,2,1.02588,-0.1377,0.13647,-4.725,-0.198,1.015
2026-06-01 16:06:01.149,2213500605,673149,1,0.5293,-0.1814,0.93726,-20.42,-0.435,-8.206
2026-06-01 16:06:01.149,2213500605,673149,2,1.00073,-0.13696,0.13989,-8.786,-4.664,-1.664
2026-06-01 16:06:01.349,2213500805,673349,1,0.56494,-0.23486,0.91626,-35.595,-10.168,-16.939
2026-06-01 16:06:01.349,2213500805,673349,2,1.01343,-0.08472,0.13501,1.305,0.145,0.748
2026-06-01 16:06:01.549,2213501005,673549,1,0.59717,-0.20874,0.94727,4.947,3.412,1.305
2026-06-01 16:06:01.549,2213501005,673549,2,1.02612,-0.10034,0.12134,-3.832,2.092,-0.046
2026-06-01 16:06:01.749,2213501205,673749,1,0.54224,-0.18042,0.98633,-0.298,4.779,-2.015
2026-06-01 16:06:01.749,2213501205,673749,2,1.00708,-0.10181,0.14722,-2.359,0.092,0.13
2026-06-01 16:06:02.949,2213502405,673949,1,0.52661,-0.16138,0.97876,-8.473,-2.076,-3.748
2026-06-01 16:06:02.949,2213502405,673949,2,1.00244,-0.13525,0.14087,-1.916,-1.313,-0.786
2026-06-01 16:06:02.149,2213501605,674149,1,0.58691,-0.24878,0.91064,-18.87,-4.511,-12.061
2026-06-01 16:06:02.149,2213501605,674149,2,1.021,-0.04468,0.12207,12.061,-0.359,-1.015
2026-06-01 16:06:02.349,2213501805,674349,1,0.55469,-0.19751,0.98071,7.458,1.71,1.794
2026-06-01 16:06:02.349,2213501805,674349,2,1.00244,-0.05713,0.12866,5.267,0.725,1.359
2026-06-01 16:06:02.549,2213502005,674549,1,0.52783,-0.16138,0.98535,14.573,3.595,6.305
2026-06-01 16:06:02.549,2213502005,674549,2,1.02173,-0.12915,0.11694,-5.565,1.191,-1.718
2026-06-01 16:06:02.749,2213502205,674749,1,0.54541,-0.22046,0.9436,-19.496,-2.855,-11.168
2026-06-01 16:06:02.749,2213502205,674749,2,1.03394,-0.09668,0.11572,-1.344,-2.336,-1.015
2026-06-01 16:06:03.949,2213503405,674949,1,0.55469,-0.21289,0.95728,-4.687,-2.107,-2.634
2026-06-01 16:06:03.949,2213503405,674949,2,1.02295,-0.09668,0.12402,2.84,0.237,-1.71
2026-06-01 16:06:03.149,2213502605,675149,1,0.60547,-0.22876,0.91797,5.13,0.672,-0.191
2026-06-01 16:06:03.149,2213502605,675149,2,1.03638,-0.07251,0.11621,2.069,0.13,-1.679
2026-06-01 16:06:03.349,2213502805,675349,1,0.56934,-0.19019,0.96973,10.008,3.221,3.427
2026-06-01 16:06:03.349,2213502805,675349,2,1.00708,-0.0708,0.12891,-7.26,0.847,2.382
2026-06-01 16:06:03.549,2213503005,675549,1,0.56348,-0.11426,0.99902,33.092,10.42,8.947
2026-06-01 16:06:03.549,2213503005,675549,2,0.99756,-0.10815,0.11719,-11.267,1.809,1.008
2026-06-01 16:06:03.749,2213503205,675749,1,0.55957,-0.16675,0.96802,9.344,-3.099,-3.748
2026-06-01 16:06:03.749,2213503205,675749,2,0.97754,-0.1189,0.13306,-8.298,-0.328,-0.053
2026-06-01 16:06:04.949,2213504405,675949,1,0.58154,-0.13843,0.96265,-1.099,-7.763,-2.023
2026-06-01 16:06:04.949,2213504405,675949,2,1.01001,-0.08472,0.11914,2.481,-2.664,-1.359
2026-06-01 16:06:04.149,2213503605,676149,1,0.58765,-0.10571,0.95776,0.267,-1.435,-3.809
2026-06-01 16:06:04.149,2213503605,676149,2,1.02075,-0.06934,0.0874,-4.992,-1.763,-0.023
2026-06-01 16:06:04.349,2213503805,676349,1,0.63184,-0.07788,0.95166,14.992,0.527,2.351
2026-06-01 16:06:04.349,2213503805,676349,2,1.04858,-0.11523,0.0896,-8.0,-0.969,0.023
2026-06-01 16:06:04.549,2213504005,676549,1,0.56958,-0.07983,0.97314,-11.649,10.779,-9.893
2026-06-01 16:06:04.549,2213504005,676549,2,1.0271,-0.03687,0.08936,8.55,8.809,-4.0
2026-06-01 16:06:04.749,2213504205,676749,1,0.58472,-0.12939,0.94482,-18.626,2.878,-11.435
2026-06-01 16:06:04.749,2213504205,676749,2,1.0271,-0.06201,0.12207,10.0,7.855,-6.473
2026-06-01 16:06:05.949,2213505405,676949,1,0.4939,-0.06299,0.99829,24.939,10.107,2.061
2026-06-01 16:06:05.949,2213505405,676949,2,0.97949,-0.021,0.14575,0.809,2.817,0.679
2026-06-01 16:06:05.149,2213504605,677149,1,0.49878,-0.05371,1.03711,-0.687,5.916,-1.435
2026-06-01 16:06:05.149,2213504605,677149,2,0.9895,-0.00708,0.14941,4.634,3.58,-2.145
2026-06-01 16:06:05.349,2213504805,677349,1,0.56641,-0.04785,0.98633,8.504,-3.916,0.87
2026-06-01 16:06:05.349,2213504805,677349,2,1.0127,-0.02783,0.16113,-7.863,2.191,-0.145
2026-06-01 16:06:05.549,2213505005,677549,1,0.48779,-0.04688,1.01025,6.802,5.878,1.29
2026-06-01 16:06:05.549,2213505005,677549,2,0.99658,-0.02515,0.15723,-8.748,-1.702,2.267
2026-06-01 16:06:05.749,2213505205,677749,1,0.52637,-0.02661,1.01611,8.084,0.557,1.786
2026-06-01 16:06:05.749,2213505205,677749,2,1.01587,-0.04761,0.14111,-9.473,-0.626,2.206
2026-06-01 16:06:06.949,2213506405,677949,1,0.51831,-0.02612,1.01025,-3.718,-1.344,-3.145
2026-06-01 16:06:06.949,2213506405,677949,2,1.02808,-0.05811,0.11304,2.901,-0.26,-1.527
2026-06-01 16:06:06.149,2213505605,678149,1,0.54443,-0.08057,0.97583,-18.977,-1.527,-12.252
2026-06-01 16:06:06.149,2213505605,678149,2,1.0249,-0.02661,0.11426,3.71,0.733,0.351
2026-06-01 16:06:06.349,2213505805,678349,1,0.59399,-0.0896,0.95093,-4.527,-3.87,0.405
2026-06-01 16:06:06.349,2213505805,678349,2,1.02051,0.00879,0.1106,2.695,0.16,1.481
2026-06-01 16:06:06.549,2213506005,678549,1,0.53125,-0.0481,1.00854,22.672,7.481,10.275
2026-06-01 16:06:06.549,2213506005,678549,2,1.00464,-0.02295,0.12842,-1.687,1.366,-0.061
2026-06-01 16:06:06.749,2213506205,678749,1,0.52832,-0.01636,1.03516,14.267,5.267,-5.916
2026-06-01 16:06:06.749,2213506205,678749,2,1.01636,-0.04736,0.15063,-7.206,-0.092,-1.557
2026-06-01 16:06:07.949,2213507405,678949,1,0.54688,0.01709,0.97632,25.672,1.336,6.435
2026-06-01 16:06:07.949,2213507405,678949,2,1.02734,0.01367,0.12402,23.511,4.916,-11.435
2026-06-01 16:06:07.149,2213506605,679149,1,0.53516,0.11157,1.04468,-55.893,-31.0,-68.427
2026-06-01 16:06:07.149,2213506605,679149,2,0.98779,-0.16797,0.08838,-1.389,51.924,-9.511
2026-06-01 16:06:07.349,2213506805,679349,1,0.50146,0.09644,0.99658,-34.038,-22.893,-19.115
2026-06-01 16:06:07.349,2213506805,679349,2,1.02441,-0.16016,0.13086,-2.718,44.336,-10.405
2026-06-01 16:06:07.549,2213507005,679549,1,0.50757,0.06079,1.02319,-19.802,-7.412,-7.863
2026-06-01 16:06:07.549,2213507005,679549,2,0.99829,-0.11328,0.20288,15.008,-5.977,1.794
2026-06-01 16:06:07.749,2213507205,679749,1,0.53613,0.04614,1.05762,15.443,13.038,5.458
2026-06-01 16:06:07.749,2213507205,679749,2,0.96606,-0.12793,0.20117,-6.611,1.069,0.26
2026-06-01 16:06:08.984,2213508440,679984,1,0.43579,-0.02417,0.99365,24.557,20.191,8.046
2026-06-01 16:06:08.984,2213508440,679984,2,0.99316,-0.13037,0.20996,11.802,-6.168,0.534
2026-06-01 16:06:08.337,2213507793,680337,1,0.42944,0.00317,1.04517,25.893,-0.863,10.26
2026-06-01 16:06:08.337,2213507793,680337,2,1.02124,-0.11401,0.16064,88.458,-21.382,2.13
2026-06-01 16:06:08.538,2213507994,680538,1,0.43506,-0.02173,1.06812,-6.74,6.565,-4.031
2026-06-01 16:06:08.538,2213507994,680538,2,0.99512,-0.00708,0.14185,6.389,2.198,-1.634
2026-06-01 16:06:08.738,2213508194,680738,1,0.41992,-0.00781,1.04102,-8.557,6.901,-9.252
2026-06-01 16:06:08.738,2213508194,680738,2,0.99194,-0.03052,0.15479,-4.328,-3.458,0.763
2026-06-01 16:06:09.938,2213509394,680938,1,0.41846,0.01831,1.04688,-4.145,4.061,-1.634
2026-06-01 16:06:09.938,2213509394,680938,2,1.01465,-0.02612,0.15723,0.87,0.931,2.092
2026-06-01 16:06:09.138,2213508594,681138,1,0.3938,-0.03613,1.05884,6.924,2.947,3.511
2026-06-01 16:06:09.138,2213508594,681138,2,1.02051,-0.04248,0.17407,-7.084,-1.748,0.489
2026-06-01 16:06:09.338,2213508794,681338,1,0.37769,0.02905,1.04272,12.42,6.718,13.321
2026-06-01 16:06:09.338,2213508794,681338,2,1.01099,-0.02466,0.13599,5.901,4.985,2.206
2026-06-01 16:06:09.538,2213508994,681538,1,0.38794,-0.01782,1.06079,0.527,2.351,1.13
2026-06-01 16:06:09.538,2213508994,681538,2,1.01416,-0.03589,0.16431,1.84,1.427,0.206
2026-06-01 16:06:09.738,2213509194,681738,1,0.38354,-0.04053,1.05762,-0.298,3.214,-1.977
2026-06-01 16:06:09.738,2213509194,681738,2,1.00757,-0.07446,0.16455,-13.328,-1.427,1.817
2026-06-01 16:06:10.938,2213510394,681938,1,0.38647,-0.03394,1.05615,-8.061,2.26,-8.008
2026-06-01 16:06:10.938,2213510394,681938,2,1.00537,-0.06738,0.17944,-0.42,0.947,0.908
2026-06-01 16:06:10.138,2213509594,682138,1,0.36792,-0.04712,1.05981,-2.672,2.725,-4.221
2026-06-01 16:06:10.138,2213509594,682138,2,0.99829,-0.0498,0.1709,-4.351,-1.847,0.588
2026-06-01 16:06:10.338,2213509794,682338,1,0.38525,-0.00366,1.05835,3.382,1.252,-2.733
2026-06-01 16:06:10.338,2213509794,682338,2,1.00879,-0.04736,0.1731,1.725,0.206,-0.931
2026-06-01 16:06:10.538,2213509994,682538,1,0.38379,-0.02148,1.0542,2.427,-1.321,-2.237
2026-06-01 16:06:10.538,2213509994,682538,2,1.01147,-0.04102,0.17676,1.275,0.656,-0.267
2026-06-01 16:06:10.738,2213510194,682738,1,0.38281,0.00854,1.06274,1.29,3.389,-1.473
2026-06-01 16:06:10.738,2213510194,682738,2,1.00024,-0.03052,0.17456,2.282,2.26,-0.435
2026-06-01 16:06:11.938,2213511394,682938,1,0.36841,0.00024,1.04736,-3.023,1.229,-1.87
2026-06-01 16:06:11.938,2213511394,682938,2,1.00781,-0.04004,0.17969,2.122,2.771,-0.275
2026-06-01 16:06:11.138,2213510594,683138,1,0.36353,-0.00073,1.05762,-0.328,3.0,-0.855
2026-06-01 16:06:11.138,2213510594,683138,2,1.00342,-0.04346,0.18237,-0.282,1.779,0.13
2026-06-01 16:06:11.338,2213510794,683338,1,0.36475,-0.01147,1.05518,2.786,3.092,0.244
2026-06-01 16:06:11.338,2213510794,683338,2,0.99243,-0.02295,0.19507,2.473,4.145,0.519
2026-06-01 16:06:11.538,2213510994,683538,1,0.37231,0.00757,1.05884,0.412,2.0,0.588
2026-06-01 16:06:11.538,2213510994,683538,2,1.32227,-0.04785,-0.00439,-17.252,-32.267,10.13
2026-06-01 16:06:11.738,2213511194,683738,1,0.37451,-0.02295,1.04614,-3.939,0.275,-4.573
2026-06-01 16:06:11.738,2213511194,683738,2,0.979,-0.03052,0.22778,15.847,8.13,-0.679
2026-06-01 16:06:12.938,2213512394,683938,1,0.4126,-0.02295,1.04834,6.855,2.229,2.527
2026-06-01 16:06:12.938,2213512394,683938,2,0.98901,-0.00708,0.20386,-12.321,-2.916,0.176
2026-06-01 16:06:12.138,2213511594,684138,1,0.41113,-0.10645,1.05322,2.267,12.107,0.885
2026-06-01 16:06:12.138,2213511594,684138,2,0.98877,-0.0083,0.24707,-37.832,8.244,-0.137
2026-06-01 16:06:12.338,2213511794,684338,1,0.35571,-0.03149,1.04541,2.809,-12.16,2.061
2026-06-01 16:06:12.338,2213511794,684338,2,1.13965,0.0918,0.04688,60.038,-98.374,-2.55
2026-06-01 16:06:12.538,2213511994,684538,1,0.36328,-0.03711,1.05151,-7.87,-25.656,-4.336
2026-06-01 16:06:12.538,2213511994,684538,2,1.02246,-0.03149,0.18237,-19.817,5.443,-0.794
2026-06-01 16:06:12.738,2213512194,684738,1,0.40503,-0.06396,1.04492,9.74,6.878,3.626
2026-06-01 16:06:12.738,2213512194,684738,2,0.97144,-0.00928,0.20483,16.802,17.58,-1.305
2026-06-01 16:06:13.938,2213513394,684938,1,0.30396,-0.08423,1.0896,-12.344,-8.588,-5.489
2026-06-01 16:06:13.938,2213513394,684938,2,1.06494,-0.65479,0.62183,149.191,-6.595,-15.389
2026-06-01 16:06:13.138,2213512594,685138,1,0.38794,-0.07617,1.05176,6.534,-3.817,-1.779
2026-06-01 16:06:13.138,2213512594,685138,2,1.00244,0.00195,0.18286,-3.374,-4.687,0.344
2026-06-01 16:06:13.338,2213512794,685338,1,0.74463,0.32642,1.2915,-80.13,-25.023,-33.191
2026-06-01 16:06:13.338,2213512794,685338,2,0.97412,-0.02026,0.18213,32.527,-17.779,-0.863
2026-06-01 16:06:13.538,2213512994,685538,1,0.35425,0.0166,1.04028,5.435,14.191,2.557
2026-06-01 16:06:13.538,2213512994,685538,2,1.00488,-0.00366,0.17578,2.244,-6.244,2.542
2026-06-01 16:06:13.738,2213513194,685738,1,0.38574,-0.02222,1.05908,0.405,-2.496,0.573
2026-06-01 16:06:13.738,2213513194,685738,2,-0.00269,0.07202,0.7605,-53.458,-19.611,2.229
2026-06-01 16:06:14.938,2213514394,685938,1,0.58154,-0.5813,1.17163,13.344,53.718,-23.87
2026-06-01 16:06:14.938,2213514394,685938,2,0.96973,-0.00171,0.18066,-19.115,-17.115,1.42
2026-06-01 16:06:16.417,2213515873,688417,1,0.58325,-0.00513,0.96509,0.481,2.565,-0.931
2026-06-01 16:06:16.417,2213515873,688417,2,1.00684,-0.01245,0.13477,-0.191,-0.237,0.519
2026-06-01 16:06:16.617,2213516073,688617,1,0.57227,0.00659,0.97778,-1.237,1.076,-2.519
2026-06-01 16:06:16.617,2213516073,688617,2,1.0061,-0.01172,0.14429,-4.397,-1.634,1.412
2026-06-01 16:06:16.817,2213516273,688817,1,0.57056,-0.01074,0.96411,2.198,-0.534,-2.412
2026-06-01 16:06:16.817,2213516273,688817,2,1.00806,-0.01074,0.12744,-4.802,-0.74,0.695
2026-06-01 16:06:17.017,2213516473,689017,1,0.57886,0.00659,0.97876,1.42,-0.389,-2.252
2026-06-01 16:06:17.017,2213516473,689017,2,1.01416,-0.01904,0.14014,-2.191,-2.611,0.71
2026-06-01 16:06:17.217,2213516673,689217,1,0.60767,0.00952,0.93481,1.542,0.519,-1.275
2026-06-01 16:06:17.217,2213516673,689217,2,1.02344,-0.01685,0.13672,-0.985,-0.985,0.366
2026-06-01 16:06:17.417,2213516873,689417,1,0.60815,0.0144,0.94849,2.328,1.481,1.191
2026-06-01 16:06:17.417,2213516873,689417,2,1.01929,-0.01563,0.10938,0.924,-0.626,0.702
2026-06-01 16:06:17.617,2213517073,689617,1,0.60352,0.02197,0.94482,0.763,2.038,-0.321
2026-06-01 16:06:17.617,2213517073,689617,2,1.01172,-0.01563,0.11182,-0.962,0.969,0.237
2026-06-01 16:06:17.817,2213517273,689817,1,0.60132,0.01514,0.9458,0.802,2.695,0.595
2026-06-01 16:06:17.817,2213517273,689817,2,1.021,-0.01367,0.11914,-1.672,1.076,0.55
2026-06-01 16:06:18.017,2213517473,690017,1,0.58667,0.0105,0.95923,0.71,2.0,0.527
2026-06-01 16:06:18.017,2213517473,690017,2,1.01392,-0.01636,0.12036,-2.542,0.779,-0.145
2026-06-01 16:06:18.217,2213517673,690217,1,0.59985,0.01367,0.95703,0.473,1.863,0.183
2026-06-01 16:06:18.217,2213517673,690217,2,1.01685,-0.00195,0.1189,-2.0,-0.443,0.847
2026-06-01 16:06:18.417,2213517873,690417,1,0.55273,0.04272,0.9939,12.336,-0.664,-1.573
2026-06-01 16:06:18.417,2213517873,690417,2,1.02588,-0.02954,0.1355,1.16,-2.511,0.71
2026-06-01 16:06:18.617,2213518073,690617,1,0.57104,0.04028,0.95337,8.061,3.069,4.061
2026-06-01 16:06:18.617,2213518073,690617,2,1.02002,0.0105,0.11963,6.191,-4.351,0.985
2026-06-01 16:06:18.817,2213518273,690817,1,0.61377,0.03052,0.9585,-8.931,-0.305,-2.214
2026-06-01 16:06:18.817,2213518273,690817,2,1.03467,-0.03369,0.11646,-0.802,-1.466,3.641
2026-06-01 16:06:19.017,2213518473,691017,1,0.62939,-0.02148,0.93115,-2.924,5.473,-4.901
2026-06-01 16:06:19.017,2213518473,691017,2,1.02905,-0.03345,0.14063,-3.008,3.962,-1.962
2026-06-01 16:06:19.217,2213518673,691217,1,0.58008,-0.00952,0.96558,0.305,2.763,-1.069
2026-06-01 16:06:19.217,2213518673,691217,2,1.00635,0.02905,0.12207,-0.557,0.366,-1.176
2026-06-01 16:06:19.417,2213518873,691417,1,0.5686,0.02783,0.97925,2.954,0.748,-1.878
2026-06-01 16:06:19.417,2213518873,691417,2,1.02783,0.01538,0.11108,-2.939,-3.198,-0.366
2026-06-01 16:06:19.617,2213519073,691617,1,0.57593,0.03882,0.96558,-6.687,-2.16,3.847
2026-06-01 16:06:19.617,2213519073,691617,2,1.03784,0.02344,0.09619,-12.809,0.802,3.374
2026-06-01 16:06:19.817,2213519273,691817,1,0.53931,0.00757,0.97412,-2.092,4.229,-7.115
2026-06-01 16:06:19.817,2213519273,691817,2,0.99463,-0.03711,0.11621,-3.74,-2.885,1.252
2026-06-01 16:06:20.017,2213519473,692017,1,0.53833,0.04858,0.979,4.779,-8.641,-2.214
2026-06-01 16:06:20.017,2213519473,692017,2,1.01025,-0.00098,0.10791,-4.931,-11.771,7.023
2026-06-01 16:06:20.217,2213519673,692217,1,0.71118,-0.04712,0.95313,-0.069,-4.389,-3.015
2026-06-01 16:06:20.217,2213519673,692217,2,1.04297,-0.02954,0.03711,-0.756,-8.58,1.733
2026-06-01 16:06:20.417,2213519873,692417,1,0.68188,0.03198,0.86401,-1.977,-8.344,2.153
2026-06-01 16:06:20.417,2213519873,692417,2,1.00928,0.14551,0.36597,6.634,73.527,-39.298
2026-06-01 16:06:23.370,2213522826,695370,1,0.14551,-0.08008,1.07764,-6.321,94.069,3.183
2026-06-01 16:06:23.370,2213522826,695370,2,0.81836,0.19214,0.52954,10.901,73.061,-44.649
2026-06-01 16:06:23.570,2213523026,695570,1,-0.1853,-0.0752,1.03687,10.58,87.679,-10.42
2026-06-01 16:06:23.570,2213523026,695570,2,0.49707,0.32202,0.59204,-6.229,69.176,-38.71
2026-06-01 16:06:23.770,2213523226,695770,1,-0.35767,-0.02441,0.8645,-1.42,55.473,-10.824
2026-06-01 16:06:23.770,2213523226,695770,2,0.27393,0.3208,0.70044,-1.099,36.527,-24.779
2026-06-01 16:06:24.970,2213524426,695970,1,-0.59106,-0.05811,0.98218,4.718,28.137,-1.557
2026-06-01 16:06:24.970,2213524426,695970,2,0.18921,0.4624,0.81152,3.397,12.053,-8.924
2026-06-01 16:06:24.170,2213523626,696170,1,-0.62109,-0.0332,0.96118,2.634,-18.214,-0.366
2026-06-01 16:06:24.170,2213523626,696170,2,0.23169,0.44897,0.75586,-3.229,-28.313,10.893
2026-06-01 16:06:24.370,2213523826,696370,1,-0.50659,-0.04932,0.98389,4.267,-26.275,-1.351
2026-06-01 16:06:24.370,2213523826,696370,2,0.34717,0.42773,0.77344,11.893,-45.626,19.87
2026-06-01 16:06:24.570,2213524026,696570,1,-0.44775,-0.00659,1.06885,-2.031,-78.763,6.542
2026-06-01 16:06:24.570,2213524026,696570,2,0.61108,0.38477,0.62378,-1.153,-77.725,44.069
2026-06-01 16:06:24.770,2213524226,696770,1,-0.03198,-0.01807,1.0498,-5.962,-112.947,3.809
2026-06-01 16:06:24.770,2213524226,696770,2,0.80298,0.19604,0.33545,-10.71,-82.626,45.069
2026-06-01 16:06:25.970,2213525426,696970,1,0.40552,-0.07837,0.87915,-1.977,-109.771,-5.985
2026-06-01 16:06:25.970,2213525426,696970,2,0.94238,0.13623,0.22754,11.115,-60.802,35.672
2026-06-01 16:06:25.170,2213524626,697170,1,0.75146,-0.04883,0.67114,-20.924,-79.389,-19.878
2026-06-01 16:06:25.170,2213524626,697170,2,1.01221,0.0105,0.07642,-22.618,-34.221,31.832
2026-06-01 16:06:25.370,2213524826,697370,1,0.90576,-0.04858,0.56641,-39.58,-56.244,-31.794
2026-06-01 16:06:25.370,2213524826,697370,2,1.04004,-0.14966,-0.09131,-38.061,-31.053,27.458
2026-06-01 16:06:25.570,2213525026,697570,1,1.0249,-0.06177,0.48315,-9.718,-24.26,-16.634
2026-06-01 16:06:25.570,2213525026,697570,2,1.03149,-0.28613,-0.05103,-35.603,-3.832,22.863
2026-06-01 16:06:25.770,2213525226,697770,1,1.04346,-0.14795,0.43262,-3.244,0.336,-4.901
2026-06-01 16:06:25.770,2213525226,697770,2,1.03247,-0.27905,-0.0498,20.412,-6.153,1.45
2026-06-01 16:06:26.970,2213526426,697970,1,1.02905,-0.08081,0.45776,14.374,12.504,6.618
2026-06-01 16:06:26.970,2213526426,697970,2,1.09839,-0.27832,-0.13306,38.55,2.237,-19.336
2026-06-01 16:06:26.170,2213525626,698170,1,0.95093,-0.0354,0.53979,34.298,40.031,17.351
2026-06-01 16:06:26.170,2213525626,698170,2,0.91968,-0.19702,-0.11182,-31.725,25.305,-12.481
2026-06-01 16:06:26.370,2213525826,698370,1,0.84717,-0.09521,0.71484,-2.55,25.656,-8.87
2026-06-01 16:06:26.370,2213525826,698370,2,0.95972,-0.05347,0.05591,4.29,10.481,-10.359
2026-06-01 16:06:26.570,2213526026,698570,1,0.85376,0.02734,0.67529,-8.916,-4.389,-15.573
2026-06-01 16:06:26.570,2213526026,698570,2,1.00635,-0.01758,-0.02319,-5.275,0.13,-0.046
2026-06-01 16:06:26.770,2213526226,698770,1,0.89771,0.00879,0.63403,-4.366,-18.832,-5.252
2026-06-01 16:06:26.770,2213526226,698770,2,1.03955,-0.04443,-0.04248,-12.244,-7.618,12.809
2026-06-01 16:06:27.970,2213527426,698970,1,0.99097,0.01904,0.53882,1.687,2.458,3.718
2026-06-01 16:06:27.970,2213527426,698970,2,1.03125,-0.08301,-0.07422,-3.672,4.359,-3.084
2026-06-01 16:06:27.170,2213526626,699170,1,0.89819,-0.02979,0.61523,-15.489,6.107,4.145
2026-06-01 16:06:27.170,2213526626,699170,2,0.99707,-0.07861,-0.04858,-7.802,1.74,4.214
2026-06-01 16:06:27.370,2213526826,699370,1,0.93896,-0.09644,0.57593,-11.794,-2.275,-1.427
2026-06-01 16:06:27.370,2213526826,699370,2,1.04639,-0.104,-0.00195,-10.649,-4.901,0.931
2026-06-01 16:06:27.570,2213527026,699570,1,0.9729,-0.14209,0.59302,-7.55,16.061,-0.282
2026-06-01 16:06:27.570,2213527026,699570,2,1.03955,-0.21265,0.02002,-30.725,-3.099,-5.115
2026-06-01 16:06:27.770,2213527226,699770,1,0.94971,-0.21191,0.53857,23.504,25.55,12.817
2026-06-01 16:06:27.770,2213527226,699770,2,1.04541,-0.16382,0.09741,19.756,13.641,-24.924
2026-06-01 16:06:28.970,2213528426,699970,1,0.51758,0.33594,0.64063,13.481,69.229,29.534
2026-06-01 16:06:28.970,2213528426,699970,2,0.71045,-0.0166,-0.0708,39.221,61.092,-42.87
2026-06-01 16:06:28.170,2213527626,700170,1,0.25073,-0.14771,0.99829,-15.382,69.321,35.427
2026-06-01 16:06:28.170,2213527626,700170,2,0.72388,0.44995,0.11572,-23.595,29.733,-28.969
2026-06-01 16:06:28.370,2213527826,700370,1,0.41748,0.05688,1.4314,26.198,5.336,-36.634
2026-06-01 16:06:28.370,2213527826,700370,2,1.021,0.20654,0.35693,1.817,-29.74,25.649
2026-06-01 16:06:28.570,2213528026,700570,1,0.61841,0.04932,1.02441,-1.595,-62.069,11.282
2026-06-01 16:06:28.570,2213528026,700570,2,1.01538,0.10767,0.23657,36.565,-29.458,21.473
2026-06-01 16:06:28.770,2213528226,700770,1,0.80151,-0.00073,1.04004,15.985,-15.237,-3.038
2026-06-01 16:06:28.770,2213528226,700770,2,1.13721,0.1167,0.0813,-10.626,-17.771,4.496
2026-06-01 16:06:29.970,2213529426,700970,1,0.73926,0.01318,0.89185,13.26,-2.588,-1.191
2026-06-01 16:06:29.970,2213529426,700970,2,1.08203,0.0459,0.23193,0.221,-1.863,1.672
2026-06-01 16:06:29.170,2213528626,701170,1,0.65991,0.11743,0.81348,-2.237,60.901,9.618
2026-06-01 16:06:29.170,2213528626,701170,2,0.92798,0.13721,0.05518,-1.756,42.076,-17.687
2026-06-01 16:06:29.370,2213528826,701370,1,0.53345,0.03394,1.01733,45.366,10.794,30.496
2026-06-01 16:06:29.370,2213528826,701370,2,1.08618,0.1626,0.2417,48.481,-10.244,11.885
2026-06-01 16:06:29.570,2213529026,701570,1,0.51318,0.18921,1.02124,5.656,15.191,-20.153
2026-06-01 16:06:29.570,2213529026,701570,2,1.00732,0.09668,0.19727,-53.359,-0.771,-7.099
2026-06-01 16:06:29.770,2213529226,701770,1,0.63354,-0.10571,0.99854,-11.603,21.359,-2.603
2026-06-01 16:06:29.770,2213529226,701770,2,0.97144,0.05347,0.14844,11.496,20.519,-18.008
2026-06-01 16:06:30.970,2213530426,701970,1,0.29663,-0.08716,0.95386,8.115,2.718,7.947
2026-06-01 16:06:30.970,2213530426,701970,2,0.87451,0.09863,0.25562,-1.565,-9.84,4.679
2026-06-01 16:06:30.170,2213529626,702170,1,0.64209,-0.10938,1.33838,-8.855,8.458,-3.145
2026-06-01 16:06:30.170,2213529626,702170,2,1.52026,0.08569,0.38965,-4.885,17.634,-20.069
2026-06-01 16:06:30.370,2213529826,702370,1,0.43188,0.06543,1.27197,-3.214,29.435,2.885
2026-06-01 16:06:30.370,2213529826,702370,2,1.07275,0.20776,0.31592,17.107,18.611,-14.084
2026-06-01 16:06:30.570,2213530026,702570,1,0.21191,-0.04541,1.20605,9.802,-24.557,-12.038
2026-06-01 16:06:30.570,2213530026,702570,2,0.79297,0.09741,0.24072,16.153,-26.0,2.725
2026-06-01 16:06:30.770,2213530226,702770,1,0.29175,0.06079,0.73242,10.389,-89.069,0.489
2026-06-01 16:06:30.770,2213530226,702770,2,0.59058,0.03271,0.08667,-19.588,-65.153,35.328
2026-06-01 16:06:31.970,2213531426,702970,1,0.65601,0.06372,0.51367,13.214,-83.702,2.634
2026-06-01 16:06:31.970,2213531426,702970,2,1.06689,0.03442,-0.19946,3.618,-51.771,33.794
2026-06-01 16:06:31.170,2213530626,703170,1,0.9585,0.06348,0.56128,-9.16,-10.076,-1.962
2026-06-01 16:06:31.170,2213530626,703170,2,1.05762,0.02808,-0.0874,4.748,6.885,-3.756
2026-06-01 16:06:31.370,2213530826,703370,1,0.87598,0.07397,0.65942,-6.267,9.282,7.725
2026-06-01 16:06:31.370,2213530826,703370,2,1.07153,0.03857,-0.03784,-8.733,10.634,0.26
2026-06-01 16:06:31.570,2213531026,703570,1,0.8916,0.00659,0.67114,-15.366,15.817,1.382
2026-06-01 16:06:31.570,2213531026,703570,2,1.04907,-0.01318,-0.02881,0.763,13.45,-5.756
2026-06-01 16:06:31.770,2213531226,703770,1,0.75415,-0.06641,0.63452,-1.099,55.672,-6.534
2026-06-01 16:06:31.770,2213531226,703770,2,0.86646,0.0481,0.18433,-1.779,38.733,-29.855
2026-06-01 16:06:32.970,2213532426,703970,1,0.50879,-0.02417,0.78369,18.031,69.748,0.878
2026-06-01 16:06:32.970,2213532426,703970,2,0.81592,0.12646,0.1123,2.069,43.412,-34.733
2026-06-01 16:06:32.170,2213531626,704170,1,0.19458,0.00366,0.93945,-0.908,45.977,10.565
2026-06-01 16:06:32.170,2213531626,704170,2,0.70142,0.16992,0.13965,-4.229,7.542,14.153
2026-06-01 16:06:32.370,2213531826,704370,1,0.51416,0.0061,1.13379,7.626,-19.542,11.229
2026-06-01 16:06:32.370,2213531826,704370,2,1.16089,0.24365,0.23877,-4.015,-32.679,36.588
2026-06-01 16:06:32.570,2213532026,704570,1,0.70264,0.05127,1.29907,-15.626,-24.893,3.565
2026-06-01 16:06:32.570,2213532026,704570,2,1.19116,0.06348,0.23242,-13.237,-15.962,3.336
2026-06-01 16:06:32.770,2213532226,704770,1,0.60181,0.14307,1.02124,14.069,-7.885,1.176
2026-06-01 16:06:32.770,2213532226,704770,2,1.21338,0.14209,0.14355,8.863,-4.435,11.13
2026-06-01 16:06:33.970,2213533426,704970,1,0.50708,-0.02734,0.99951,-16.725,29.29,-0.916
2026-06-01 16:06:33.970,2213533426,704970,2,0.87744,0.07739,0.16431,-16.168,20.55,-10.26
2026-06-01 16:06:33.170,2213532626,705170,1,0.49121,-0.02954,1.01538,-3.817,3.565,-7.42
2026-06-01 16:06:33.170,2213532626,705170,2,1.04175,0.11279,0.25049,-10.206,-4.565,1.725
2026-06-01 16:06:33.370,2213532826,705370,1,0.49756,-0.10571,1.0144,-8.962,-4.252,-10.038
2026-06-01 16:06:33.370,2213532826,705370,2,0.94165,0.04956,0.2251,-11.725,0.069,-0.656
2026-06-01 16:06:33.570,2213533026,705570,1,0.53613,-0.04028,1.00708,7.573,-4.924,0.183
2026-06-01 16:06:33.570,2213533026,705570,2,1.0271,0.05273,0.20288,7.099,-7.962,2.145
2026-06-01 16:06:33.770,2213533226,705770,1,0.55298,-0.01367,0.97412,6.374,1.053,3.489
2026-06-01 16:06:33.770,2213533226,705770,2,1.00146,0.07568,0.15015,3.153,-3.863,1.786
2026-06-01 16:06:34.970,2213534426,705970,1,0.55518,-0.01416,0.96851,-2.954,2.076,5.786
2026-06-01 16:06:34.970,2213534426,705970,2,1.00635,0.0813,0.14429,-2.679,,1.733
2026-06-01 16:06:34.170,2213533626,706170,1,0.57788,-0.04321,0.98145,-3.847,2.473,-2.763
2026-06-01 16:06:34.170,2213533626,706170,2,1.02344,0.07153,0.16382,-7.817,1.832,-1.458
2026-06-01 16:06:34.370,2213533826,706370,1,0.56543,-0.01221,0.96094,2.42,4.229,-0.42
2026-06-01 16:06:34.370,2213533826,706370,2,1.0022,0.06689,0.177,1.947,5.038,-1.344
2026-06-01 16:06:34.570,2213534026,706570,1,0.56665,-0.06543,1.02295,-2.168,9.534,4.382
2026-06-01 16:06:34.570,2213534026,706570,2,0.95752,0.09009,0.1687,-3.557,12.55,-3.824
2026-06-01 16:06:34.770,2213534226,706770,1,0.48926,-0.04565,0.99731,-10.008,0.489,-1.412
2026-06-01 16:06:34.770,2213534226,706770,2,1.00195,0.12134,0.25513,-14.489,5.824,7.366
2026-06-01 16:06:35.970,2213535426,706970,1,0.47778,-0.12695,0.99585,-5.931,2.718,-4.733
2026-06-01 16:06:35.970,2213535426,706970,2,0.94116,0.0625,0.23413,-6.702,0.511,4.351
2026-06-01 16:06:35.170,2213534626,707170,1,0.64233,-0.12036,1.12183,2.634,13.84,6.977
2026-06-01 16:06:35.170,2213534626,707170,2,1.15723,0.09497,0.28662,6.565,35.137,-21.634
2026-06-01 16:06:35.370,2213534826,707370,1,0.48828,-0.14014,1.3064,15.718,29.718,-1.626
2026-06-01 16:06:35.370,2213534826,707370,2,1.08789,0.09058,0.40454,2.527,9.076,-17.344
2026-06-01 16:06:35.570,2213535026,707570,1,0.35645,-0.0647,1.18701,23.626,-3.748,-0.985
2026-06-01 16:06:35.570,2213535026,707570,2,0.92529,0.13403,0.32129,9.649,-1.855,-5.786
2026-06-01 16:06:35.890,2213535346,707890,1,0.42456,0.02319,0.77686,1.756,-67.412,-12.298
2026-06-01 16:06:35.890,2213535346,707890,2,0.99097,0.02271,-0.02295,30.092,-18.885,16.496
2026-06-01 16:06:36.377,2213535833,708377,1,0.9436,0.14526,0.57178,32.809,-29.748,6.313
2026-06-01 16:06:36.377,2213535833,708377,2,0.99048,-0.09619,-0.18774,23.473,-16.275,4.0
2026-06-01 16:06:36.605,2213536061,708605,1,1.00024,0.24268,0.49878,18.985,2.771,6.076
2026-06-01 16:06:36.605,2213536061,708605,2,1.02344,0.07788,-0.30078,27.489,-2.466,-7.748
2026-06-01 16:06:36.805,2213536261,708805,1,1.01929,0.21802,0.47778,-56.092,1.122,-2.656
2026-06-01 16:06:36.805,2213536261,708805,2,1.0105,-0.23291,-0.0083,4.962,-5.832,-4.344
2026-06-01 16:06:39.900,2213539356,711900,1,1.01416,-0.11646,0.46777,13.382,1.0,-2.504
2026-06-01 16:06:39.900,2213539356,711900,2,1.02417,-0.19824,-0.04126,-0.191,-3.115,0.969
2026-06-01 16:06:40.260,2213539716,712260,1,0.98096,-0.13574,0.47803,-10.885,1.84,0.992
2026-06-01 16:06:40.260,2213539716,712260,2,1.02271,-0.26123,0.00903,6.573,12.198,6.611
2026-06-01 16:06:40.460,2213539916,712460,1,0.93311,-0.26514,0.54004,46.779,28.756,7.466
2026-06-01 16:06:40.460,2213539916,712460,2,0.9397,-0.19971,0.10889,11.924,-4.405,-4.458
2026-06-01 16:06:40.660,2213540116,712660,1,0.98779,-0.09766,0.53564,55.939,0.176,22.595
2026-06-01 16:06:40.660,2213540116,712660,2,1.02417,-0.27246,-0.06226,36.305,-2.183,-8.206
2026-06-01 16:06:41.969,2213541425,712969,1,0.97144,-0.04907,0.42041,39.931,21.908,21.924
2026-06-01 16:06:41.969,2213541425,712969,2,1.07227,0.0271,0.04785,31.031,4.595,-22.931
2026-06-01 16:06:41.313,2213540769,713312,1,0.91406,0.13525,0.72876,42.863,22.771,-4.481
2026-06-01 16:06:41.313,2213540769,713312,2,0.98682,-0.01685,0.0603,91.183,50.336,17.756
2026-06-01 16:06:41.512,2213540968,713512,1,0.73877,0.30859,0.82959,-25.481,23.267,16.748
2026-06-01 16:06:41.512,2213540968,713512,2,0.9021,0.16724,-0.24072,-64.611,9.122,5.55
2026-06-01 16:06:41.712,2213541168,713712,1,0.89258,0.08203,0.58203,-132.939,4.672,-23.214
2026-06-01 16:06:41.712,2213541168,713712,2,1.06812,0.00464,0.28833,-181.45,34.885,-12.702
2026-06-01 16:06:41.912,2213541368,713912,1,0.79541,-0.62598,0.62183,-116.023,60.298,-36.603
2026-06-01 16:06:41.912,2213541368,713912,2,0.97144,-0.42725,0.32104,-110.405,35.336,-1.405
2026-06-01 16:06:42.112,2213541568,714112,1,0.70117,-0.75562,0.66431,-69.275,19.26,-30.0
2026-06-01 16:06:42.112,2213541568,714112,2,0.90649,-0.42871,0.33032,-55.481,15.198,-8.412
2026-06-01 16:06:42.312,2213541768,714312,1,0.72534,-0.60376,0.6084,-8.954,12.084,-20.847
2026-06-01 16:06:42.312,2213541768,714312,2,0.87695,-0.38086,0.27588,21.42,0.214,6.229
2026-06-01 16:06:42.536,2213541992,714536,1,0.72778,-0.59863,0.58838,34.489,-8.618,7.275
2026-06-01 16:06:42.536,2213541992,714536,2,0.85693,-0.3208,0.36963,20.137,-14.107,-7.076
2026-06-01 16:06:42.736,2213542192,714736,1,0.72388,-0.65723,0.65552,12.916,-10.74,14.282
2026-06-01 16:06:42.736,2213542192,714736,2,0.86743,-0.35547,0.33569,35.878,-8.756,9.649
2026-06-01 16:06:43.936,2213543392,714936,1,0.74219,-0.58667,0.6748,78.733,-24.183,5.809
2026-06-01 16:06:43.936,2213543392,714936,2,1.06396,-0.08081,0.18286,80.733,-22.214,5.092
2026-06-01 16:06:43.136,2213542592,715136,1,0.86035,-0.14404,0.79565,57.389,-11.489,-8.092
2026-06-01 16:06:43.136,2213542592,715136,2,1.00708,0.14087,-0.03613,36.344,-53.817,-30.992
2026-06-01 16:06:43.336,2213542792,715336,1,0.79834,0.05835,0.66992,74.802,-10.351,-21.817
2026-06-01 16:06:43.336,2213542792,715336,2,0.97852,0.05127,-0.06567,31.748,-35.313,-13.954
2026-06-01 16:06:43.536,2213542992,715536,1,0.91772,0.21924,0.63696,55.023,11.061,0.527
2026-06-01 16:06:43.536,2213542992,715536,2,1.03491,0.10376,-0.07813,49.687,-7.817,-22.527
2026-06-01 16:06:43.736,2213543192,715736,1,0.80103,0.28516,0.6875,32.824,11.389,14.191
2026-06-01 16:06:43.736,2213543192,715736,2,0.98267,0.19043,-0.2002,17.649,2.649,-2.099
2026-06-01 16:06:44.936,2213544392,715936,1,0.83618,0.33594,0.62183,21.565,7.824,11.977
2026-06-01 16:06:44.936,2213544392,715936,2,1.0354,0.21924,-0.09375,19.107,21.366,-1.649
2026-06-01 16:06:44.136,2213543592,716136,1,0.87842,0.31445,0.61084,12.863,57.122,1.168
2026-06-01 16:06:44.136,2213543592,716136,2,0.86523,0.14551,0.06421,-10.771,42.748,-53.618
2026-06-01 16:06:44.336,2213543792,716336,1,0.52246,0.18091,1.07104,46.16,69.702,-28.977
2026-06-01 16:06:44.336,2213543792,716336,2,0.89746,0.27466,0.27148,26.939,24.038,-10.344
2026-06-01 16:06:44.536,2213543992,716536,1,0.30054,0.48413,1.11377,7.962,1.832,35.992
2026-06-01 16:06:44.536,2213543992,716536,2,0.88428,0.30664,0.19067,13.824,5.924,30.061
2026-06-01 16:06:44.736,2213544192,716736,1,0.49121,0.50952,0.93677,13.069,-12.863,60.076
2026-06-01 16:06:44.736,2213544192,716736,2,0.95288,0.27002,0.06177,15.145,1.87,30.802
2026-06-01 16:06:45.936,2213545392,716936,1,0.59717,0.33081,0.77856,-51.466,-80.748,33.786
2026-06-01 16:06:45.936,2213545392,716936,2,0.97681,0.16553,-0.13672,-78.45,-40.832,53.603
2026-06-01 16:06:45.136,2213544592,717136,1,0.97266,0.02466,0.47876,-112.511,-50.145,-18.458
2026-06-01 16:06:45.136,2213544592,717136,2,1.02319,-0.08032,-0.00146,-131.45,0.916,25.771
2026-06-01 16:06:45.336,2213544792,717336,1,0.94775,-0.20093,0.55298,-72.366,-9.275,-23.618
2026-06-01 16:06:45.336,2213544792,717336,2,1.0459,-0.18066,0.05176,-28.893,-1.0,5.672
2026-06-01 16:06:45.536,2213544992,717536,1,0.99268,-0.18726,0.51904,20.878,10.221,0.824
2026-06-01 16:06:45.536,2213544992,717536,2,1.03735,-0.14258,0.01147,36.962,2.916,-14.198
2026-06-01 16:06:45.736,2213545192,717736,1,0.92236,-0.08179,0.61694,29.351,19.252,4.771
2026-06-01 16:06:45.736,2213545192,717736,2,1.04077,-0.04004,0.03271,29.588,7.053,-10.061
2026-06-01 16:06:46.936,2213546392,717936,1,0.87354,0.03442,0.68823,10.244,15.206,-5.824
2026-06-01 16:06:46.936,2213546392,717936,2,0.9873,-0.00122,0.03101,11.756,6.58,-10.229
2026-06-01 16:06:46.136,2213545592,718136,1,0.83984,0.06323,0.74927,8.87,7.618,-4.557
2026-06-01 16:06:46.136,2213545592,718136,2,1.02832,0.07031,0.03979,59.282,1.893,-12.321
2026-06-01 16:06:46.455,2213545911,718455,1,0.82666,0.05957,0.67505,48.786,38.168,-4.679
2026-06-01 16:06:46.455,2213545911,718455,2,1.02417,0.09644,0.07129,45.061,6.855,-41.786
2026-06-01 16:06:46.655,2213546111,718655,1,0.58105,0.36523,0.90918,33.252,48.695,-3.511
2026-06-01 16:06:46.655,2213546111,718655,2,0.98901,0.33472,0.04663,1.435,16.603,-13.321
2026-06-01 16:06:46.855,2213546311,718855,1,0.57202,0.25391,0.82666,10.092,38.16,-5.542
2026-06-01 16:06:46.855,2213546311,718855,2,0.97363,0.31543,0.13818,20.71,18.832,-21.298
2026-06-01 16:06:47.055,2213546511,719055,1,0.51807,0.27734,0.9126,-15.87,25.763,0.634
2026-06-01 16:06:47.055,2213546511,719055,2,0.91772,0.3335,0.21753,-5.42,18.588,-3.336
2026-06-01 16:06:47.255,2213546711,719255,1,0.37939,0.18701,0.91455,-37.794,52.29,-18.603
2026-06-01 16:06:47.255,2213546711,719255,2,0.88403,0.31104,0.24341,-26.733,37.412,-13.008
2026-06-01 16:06:47.455,2213546911,719455,1,0.2356,-0.0332,1.20801,-26.084,19.13,-21.473
2026-06-01 16:06:47.455,2213546911,719455,2,0.83716,0.23096,0.44043,-28.206,9.13,-7.985
2026-06-01 16:06:47.655,2213547111,719655,1,0.23828,0.09814,0.98096,-4.542,20.229,-3.374
2026-06-01 16:06:47.655,2213547111,719655,2,0.82764,0.4021,0.39771,-14.939,29.168,-8.901
2026-06-01 16:06:47.855,2213547311,719855,1,0.07617,0.03394,0.85596,-37.74,93.954,-9.832
2026-06-01 16:06:47.855,2213547311,719855,2,0.69312,0.18726,0.54126,-42.992,87.412,-29.855
2026-06-01 16:06:48.055,2213547511,720055,1,-0.47998,-0.13867,1.19092,-11.733,91.733,8.405
2026-06-01 16:06:48.055,2213547511,720055,2,0.37231,0.30688,0.92554,-12.618,58.023,-19.756
2026-06-01 16:06:48.255,2213547711,720255,1,-0.53345,-0.11206,1.00732,-1.351,5.137,1.855
2026-06-01 16:06:48.255,2213547711,720255,2,0.34277,0.2605,0.79468,4.427,11.206,12.053
2026-06-01 16:06:48.455,2213547911,720455,1,-0.56689,-0.22632,1.1333,8.695,-39.55,0.504
2026-06-01 16:06:48.455,2213547911,720455,2,0.3855,0.26953,0.87305,-7.13,-55.74,19.519
2026-06-01 16:06:48.655,2213548111,720655,1,-0.34546,-0.15405,1.0918,4.206,-71.229,-5.023
2026-06-01 16:06:48.655,2213548111,720655,2,0.6272,0.19678,0.66919,-6.313,-78.435,16.947
2026-06-01 16:06:48.855,2213548311,720855,1,-0.01465,-0.1106,1.06201,24.45,-91.397,-0.153
2026-06-01 16:06:48.855,2213548311,720855,2,0.82935,0.23315,0.49512,11.336,-71.74,24.237
2026-06-01 16:06:49.055,2213548511,721055,1,0.44556,-0.00806,0.83716,12.229,-68.557,-7.351
2026-06-01 16:06:49.055,2213548511,721055,2,0.89868,0.12354,0.3667,-8.015,-19.84,7.702
2026-06-01 16:06:49.255,2213548711,721255,1,0.55518,-0.02246,1.4458,-64.382,24.206,-50.328
2026-06-01 16:06:49.255,2213548711,721255,2,0.76733,0.06714,0.36499,-57.748,3.053,9.557
2026-06-01 16:06:49.455,2213548911,721455,1,0.13477,-0.38403,1.78296,-58.565,33.74,-16.092
2026-06-01 16:06:49.455,2213548911,721455,2,1.1604,0.45654,-0.00806,22.458,31.221,-14.466
2026-06-01 16:06:49.655,2213549111,721655,1,0.02954,-0.15991,1.23633,2.244,-63.282,-5.237
2026-06-01 16:06:49.655,2213549111,721655,2,0.76245,0.12695,0.42871,12.817,-59.427,35.061
2026-06-01 16:06:49.855,2213549311,721855,1,0.5,0.03052,0.96802,6.534,-31.481,-8.13
2026-06-01 16:06:49.855,2213549311,721855,2,1.03296,0.06152,0.3335,-2.931,-26.099,9.58
2026-06-01 16:06:50.055,2213549511,722055,1,0.67261,-0.08081,0.96851,13.542,-20.153,6.679
2026-06-01 16:06:50.055,2213549511,722055,2,1.13306,0.02954,0.30273,4.794,-19.618,11.733
2026-06-01 16:06:50.255,2213549711,722255,1,0.64575,-0.01196,0.81372,19.092,-3.969,19.779
2026-06-01 16:06:50.255,2213549711,722255,2,0.9939,0.03467,0.08472,22.351,1.321,2.183
2026-06-01 16:06:50.455,2213549911,722455,1,0.55371,-0.12305,0.98169,10.29,1.237,6.687
2026-06-01 16:06:50.455,2213549911,722455,2,1.01392,0.10571,0.13818,5.779,-4.71,1.817
2026-06-01 16:06:50.655,2213550111,722655,1,0.63184,-0.00854,0.97021,-2.443,-11.969,-7.153
2026-06-01 16:06:50.655,2213550111,722655,2,1.0332,0.07739,0.0979,0.771,-9.26,0.122
2026-06-01 16:06:50.855,2213550311,722855,1,0.62866,-0.02563,0.86646,2.542,-3.817,-6.191
2026-06-01 16:06:50.855,2213550311,722855,2,1.01318,0.08301,0.08374,-5.756,0.534,-1.137
2026-06-01 16:06:51.143,2213550599,723143,1,0.65771,0.02246,0.9563,0.702,10.046,1.969
2026-06-01 16:06:51.143,2213550599,723143,2,1.01587,0.11255,0.06982,2.817,13.458,-6.71
2026-06-01 16:06:51.343,2213550799,723343,1,0.58252,0.00952,0.93237,-2.611,18.008,1.878
2026-06-01 16:06:51.343,2213550799,723343,2,1.00586,0.10132,0.1001,-1.092,9.931,-5.176
2026-06-01 16:06:51.543,2213550999,723543,1,0.54639,-0.02783,1.00854,-6.206,16.305,3.878
2026-06-01 16:06:51.543,2213550999,723543,2,1.02783,0.12451,0.18066,-3.13,9.282,-4.74
2026-06-01 16:06:51.743,2213551199,723743,1,0.47241,-0.11597,1.00586,1.473,10.374,12.511
2026-06-01 16:06:51.743,2213551199,723743,2,1.04565,0.20679,0.19116,-3.786,3.557,6.26
2026-06-01 16:06:52.943,2213552399,723943,1,0.56885,-0.10034,0.9873,1.13,-1.008,8.809
2026-06-01 16:06:52.943,2213552399,723943,2,0.98438,0.16846,0.23804,6.397,42.519,-21.863
2026-06-01 16:06:52.162,2213551618,724162,1,0.25146,-0.05029,1.09912,-9.695,50.29,14.565
2026-06-01 16:06:52.162,2213551618,724162,2,0.96631,0.21997,0.30005,4.252,24.817,-15.641
2026-06-01 16:06:52.362,2213551818,724362,1,0.32983,-0.19531,1.00879,0.672,42.191,-3.412
2026-06-01 16:06:52.362,2213551818,724362,2,0.87476,0.18994,0.40918,0.344,38.603,-22.412
2026-06-01 16:06:52.562,2213552018,724562,1,0.13232,-0.14355,0.98584,-8.389,66.939,-15.42
2026-06-01 16:06:52.562,2213552018,724562,2,0.73804,0.27051,0.47852,-15.939,56.252,-36.611
2026-06-01 16:06:52.762,2213552218,724762,1,-0.18433,-0.13501,1.07153,2.206,63.626,-9.344
2026-06-01 16:06:52.762,2213552218,724762,2,0.60254,0.3103,0.63647,-15.122,45.931,-28.534
2026-06-01 16:06:53.962,2213553418,724962,1,-0.34863,-0.13062,1.04639,6.405,54.046,-4.557
2026-06-01 16:06:53.962,2213553418,724962,2,0.47437,0.35181,0.78857,-6.916,39.557,-21.954
2026-06-01 16:06:53.162,2213552618,725162,1,-0.48999,-0.13721,1.0144,1.855,28.145,-5.328
2026-06-01 16:06:53.162,2213552618,725162,2,0.3606,0.35742,0.81323,-2.519,23.557,-12.313
2026-06-01 16:06:53.362,2213552818,725362,1,-0.65601,-0.10352,1.04199,2.878,16.939,-13.519
2026-06-01 16:06:53.362,2213552818,725362,2,0.23755,0.35498,0.83667,-1.901,2.611,-7.084
2026-06-01 16:06:53.562,2213553018,725562,1,-0.52271,-0.09448,0.9021,0.008,2.374,-11.328
2026-06-01 16:06:53.562,2213553018,725562,2,0.2522,0.34229,0.8396,-3.611,3.969,-0.275
2026-06-01 16:06:53.762,2213553218,725762,1,-0.52612,-0.15405,0.91162,3.16,8.954,-2.229
2026-06-01 16:06:53.762,2213553218,725762,2,0.24683,0.37695,0.83447,-6.893,4.168,-9.023
2026-06-01 16:06:54.962,2213554418,725962,1,-0.53174,-0.16162,0.89209,6.076,8.756,-10.634
2026-06-01 16:06:54.962,2213554418,725962,2,0.23291,0.34277,0.86401,-8.962,4.412,-10.847
2026-06-01 16:06:54.162,2213553618,726162,1,-0.54224,-0.1582,0.85986,0.519,13.237,-8.908
2026-06-01 16:06:54.162,2213553618,726162,2,0.19165,0.31128,0.87378,-10.038,6.244,-9.244
2026-06-01 16:06:54.362,2213553818,726362,1,-0.60034,-0.17676,0.8645,-0.405,11.656,-4.649
2026-06-01 16:06:54.362,2213553818,726362,2,0.15845,0.32471,0.90527,-3.687,8.0,-7.076
2026-06-01 16:06:54.562,2213554018,726562,1,-0.61108,-0.18237,0.8457,5.084,6.71,-3.664
2026-06-01 16:06:54.562,2213554018,726562,2,0.15771,0.33667,0.88428,-1.748,1.71,-4.008
2026-06-01 16:06:54.762,2213554218,726762,1,-0.6084,-0.21265,0.84424,4.58,7.115,-3.267
2026-06-01 16:06:54.762,2213554218,726762,2,0.13745,0.3291,0.88403,-0.641,0.809,-5.16
2026-06-01 16:06:55.962,2213555418,726962,1,-0.62964,-0.20557,0.82056,-0.237,5.817,-3.786
2026-06-01 16:06:55.962,2213555418,726962,2,0.13867,0.32202,0.88965,0.87,-0.947,-4.183
2026-06-01 16:06:55.162,2213554618,727162,1,-0.61133,-0.146,0.80981,4.779,4.832,-0.725
2026-06-01 16:06:55.162,2213554618,727162,2,0.13135,0.34351,0.91211,-1.16,2.336,-0.061
2026-06-01 16:06:55.362,2213554818,727362,1,-0.64429,-0.1145,0.81763,-5.092,1.473,4.176
2026-06-01 16:06:55.362,2213554818,727362,2,0.13184,0.34912,0.87256,-2.221,0.458,6.137
2026-06-01 16:06:55.562,2213555018,727562,1,-0.70532,-0.18579,0.86816,-5.198,-6.137,-1.298
2026-06-01 16:06:55.562,2213555018,727562,2,0.10815,0.31616,0.90747,-1.29,-10.87,4.809
2026-06-01 16:06:55.762,2213555218,727762,1,-0.64209,-0.1604,0.87329,3.893,-27.008,6.168
2026-06-01 16:06:55.762,2213555218,727762,2,0.18335,0.33472,0.88452,1.557,-23.718,12.687
2026-06-01 16:06:56.962,2213556418,727962,1,-0.46655,-0.12817,0.85425,4.557,-18.611,11.115
2026-06-01 16:06:56.962,2213556418,727962,2,0.26563,0.30908,0.83691,9.0,-14.504,9.679
2026-06-01 16:06:56.162,2213555618,728162,1,-0.49829,-0.07568,0.95361,-1.145,-15.702,18.237
2026-06-01 16:06:56.162,2213555618,728162,2,0.33838,0.32251,0.83301,1.618,-12.214,19.023
2026-06-01 16:06:56.362,2213555818,728362,1,-0.36865,-0.08276,0.87573,-14.29,5.031,22.321
2026-06-01 16:06:56.362,2213555818,728362,2,0.36548,0.36304,0.77368,-8.099,18.771,20.313
2026-06-01 16:06:56.562,2213556018,728562,1,-0.44116,-0.17383,0.98682,-8.0,13.321,1.221
2026-06-01 16:06:56.562,2213556018,728562,2,0.33032,0.29175,0.85425,-6.252,11.397,0.87
2026-06-01 16:06:56.762,2213556218,728762,1,-0.46045,-0.15771,0.92236,-2.939,10.954,-10.069
2026-06-01 16:06:56.762,2213556218,728762,2,0.31812,0.29785,0.94946,-11.748,12.672,-11.885
2026-06-01 16:06:57.962,2213557418,728962,1,-0.60229,-0.19092,0.96582,4.244,8.901,-11.672
2026-06-01 16:06:57.962,2213557418,728962,2,0.21997,0.29541,0.87793,-0.473,-8.115,-10.725
2026-06-01 16:06:57.162,2213556618,729162,1,-0.46265,-0.11035,0.8811,2.771,-0.298,-7.061
2026-06-01 16:06:57.162,2213556618,729162,2,0.29028,0.30396,0.84717,-2.221,-2.351,-6.481
2026-06-01 16:06:57.362,2213556818,729362,1,-0.59497,-0.12427,0.96118,-0.244,-4.198,-0.779
2026-06-01 16:06:57.362,2213556818,729362,2,0.23462,0.33276,0.91113,-1.244,-14.618,7.496
2026-06-01 16:06:57.562,2213557018,729562,1,-0.48853,-0.15918,0.9519,-1.985,-20.756,-0.634
2026-06-01 16:06:57.562,2213557018,729562,2,0.34521,0.27539,0.81201,4.115,-26.695,12.55
2026-06-01 16:06:57.762,2213557218,729762,1,-0.40454,-0.18237,1.03223,5.527,-16.695,1.191
2026-06-01 16:06:57.762,2213557218,729762,2,0.42041,0.36719,0.77686,2.336,-29.45,11.137
2026-06-01 16:06:58.962,2213558418,729962,1,-0.33838,-0.13306,1.05347,-1.992,-55.0,-14.664
2026-06-01 16:06:58.962,2213558418,729962,2,0.54199,0.28955,0.69385,-3.824,-47.427,16.107
2026-06-01 16:06:58.162,2213557618,730162,1,-0.06836,-0.08154,0.85303,17.908,-20.153,-11.45
2026-06-01 16:06:58.162,2213557618,730162,2,0.66748,0.32129,0.57153,-5.099,-10.878,-2.511
2026-06-01 16:06:58.362,2213557818,730362,1,-0.03613,-0.15674,0.97876,2.015,36.359,-1.656
2026-06-01 16:06:58.362,2213557818,730362,2,0.76758,0.30664,0.60181,11.458,39.527,-19.718
2026-06-01 16:06:58.562,2213558018,730562,1,-0.1731,-0.1189,0.9519,-22.145,55.733,-3.985
2026-06-01 16:06:58.562,2213558018,730562,2,0.52344,0.26758,0.73999,-14.122,61.534,-23.328
2026-06-01 16:06:58.762,2213558218,730762,1,-0.58862,-0.19141,1.0835,-7.168,42.115,9.298
2026-06-01 16:06:58.762,2213558218,730762,2,0.30225,0.35498,0.9187,-11.382,27.191,-3.626
2026-06-01 16:06:59.962,2213559418,730962,1,-0.58423,-0.28076,1.00317,16.496,-1.321,6.13
2026-06-01 16:06:59.962,2213559418,730962,2,0.23022,0.32666,0.95215,-3.107,-0.45,10.176
2026-06-01 16:06:59.162,2213558618,731162,1,-0.82813,-0.23267,1.1333,25.618,-39.603,9.427
2026-06-01 16:06:59.162,2213558618,731162,2,0.31006,0.46948,0.84497,18.252,-63.878,25.031
2026-06-01 16:06:59.362,2213558818,731362,1,-0.50098,-0.02466,1.09424,14.794,-142.695,-6.664
2026-06-01 16:06:59.362,2213558818,731362,2,0.72095,0.23364,0.44043,4.427,-137.191,50.084
2026-06-01 16:06:59.562,2213559018,731562,1,0.26147,-0.06274,0.7373,-13.107,-171.313,-26.443
2026-06-01 16:06:59.562,2213559018,731562,2,0.97461,-0.02808,0.29346,-15.847,-92.939,53.947
2026-06-01 16:06:59.762,2213559218,731762,1,0.75757,-0.06274,0.57373,-10.924,-104.992,-18.878
2026-06-01 16:06:59.762,2213559218,731762,2,1.05859,-0.14941,-0.04004,-52.802,-52.0,52.718
2026-06-01 16:07:00.962,2213560418,731962,1,0.90405,-0.0791,0.50269,2.878,-50.702,-19.527
2026-06-01 16:07:00.962,2213560418,731962,2,1.03174,-0.28857,-0.04883,-25.061,-43.412,18.45
2026-06-01 16:07:00.162,2213559618,732162,1,1.05737,0.00586,0.41309,22.756,-0.382,-17.382
2026-06-01 16:07:00.162,2213559618,732162,2,1.04272,-0.17822,-0.04883,-0.969,-2.198,-16.145
2026-06-01 16:07:00.362,2213559818,732362,1,1.21899,0.13623,0.63965,3.366,33.664,-3.176
2026-06-01 16:07:00.362,2213559818,732362,2,1.02808,0.15918,-0.26318,107.046,48.427,-55.191
2026-06-01 16:07:00.562,2213560018,732562,1,0.89404,0.18994,0.47705,-0.099,31.878,-2.611
2026-06-01 16:07:00.562,2213560018,732562,2,0.86865,0.06079,-0.33276,-41.634,0.45,-5.443
2026-06-01 16:07:00.762,2213560218,732762,1,0.9895,0.03247,0.68188,3.992,9.244,22.618
2026-06-01 16:07:00.762,2213560218,732762,2,1.05957,-0.02197,0.09302,24.214,24.802,-10.351
2026-06-01 16:07:01.962,2213561418,732962,1,0.86133,-0.29688,0.69312,-77.565,79.695,-15.412
2026-06-01 16:07:01.962,2213561418,732962,2,1.00879,-0.27441,0.31836,9.191,55.107,-61.229
2026-06-01 16:07:01.162,2213560618,733162,1,0.26294,-0.26563,0.90601,-0.863,122.763,22.267
2026-06-01 16:07:01.162,2213560618,733162,2,0.84033,0.03418,0.4978,15.084,60.725,-40.901
2026-06-01 16:07:01.362,2213560818,733362,1,-0.23853,0.10986,1.0188,10.588,77.076,-22.412
2026-06-01 16:07:01.362,2213560818,733362,2,0.63403,0.30322,0.57642,44.847,41.031,13.153
2026-06-01 16:07:01.562,2213561018,733562,1,-0.33423,0.1438,1.0459,-0.176,6.985,-9.718
2026-06-01 16:07:01.562,2213561018,733562,2,0.33838,0.198,0.59985,-36.84,-9.237,38.916
2026-06-01 16:07:01.762,2213561218,733762,1,-0.09351,-0.12329,1.17432,-0.756,-94.023,-1.748
2026-06-01 16:07:01.762,2213561218,733762,2,0.88306,0.1189,0.50708,-2.595,-80.351,70.198
2026-06-01 16:07:02.962,2213562418,733962,1,0.46997,-0.17334,1.14624,3.504,-63.725,10.046
2026-06-01 16:07:02.962,2213562418,733962,2,1.23584,0.19385,0.52417,9.756,-47.908,23.008
2026-06-01 16:07:02.162,2213561618,734162,1,0.69556,-0.18018,1.16821,-9.374,-30.336,-13.313
2026-06-01 16:07:02.162,2213561618,734162,2,0.97119,-0.03003,0.14282,-15.336,-15.847,0.046
2026-06-01 16:07:02.362,2213561818,734362,1,0.53809,0.01855,0.81836,7.794,-16.901,-4.885
2026-06-01 16:07:02.362,2213561818,734362,2,1.01294,-0.04419,0.14063,2.809,-19.405,17.611
2026-06-01 16:07:02.562,2213562018,734562,1,0.73633,-0.0918,0.97607,-8.473,8.389,-7.244
2026-06-01 16:07:02.562,2213562018,734562,2,0.94897,-0.07959,0.14282,4.221,9.496,-5.214
2026-06-01 16:07:02.762,2213562218,734762,1,0.55273,-0.06152,0.9209,5.473,6.145,3.466
2026-06-01 16:07:02.762,2213562218,734762,2,1.02441,-0.01172,0.18262,16.412,-12.191,3.29
2026-06-01 16:07:03.962,2213563418,734962,1,0.58325,-0.16724,0.97559,4.611,6.779,13.985
2026-06-01 16:07:03.962,2213563418,734962,2,0.98413,0.03662,0.07373,14.641,6.244,-10.809
2026-06-01 16:07:03.162,2213562618,735162,1,0.54395,-0.03613,0.99951,16.733,-13.87,-31.847
2026-06-01 16:07:03.162,2213562618,735162,2,0.97705,0.00073,0.1748,-13.008,-10.832,1.13
2026-06-01 16:07:03.362,2213562818,735362,1,0.66943,0.08936,0.93945,1.336,-10.489,-0.313
2026-06-01 16:07:03.362,2213562818,735362,2,1.02148,-0.04858,0.09131,4.672,3.435,1.71
2026-06-01 16:07:03.562,2213563018,735562,1,0.63989,0.02563,0.9187,-0.702,-4.382,2.847
2026-06-01 16:07:03.562,2213563018,735562,2,1.02612,-0.00635,0.08301,6.733,-0.206,-2.13
2026-06-01 16:07:03.762,2213563218,735762,1,0.61987,-0.02148,0.9646,1.153,7.328,8.573
2026-06-01 16:07:03.762,2213563218,735762,2,1.01025,0.00562,0.10767,2.435,3.153,-8.885
2026-06-01 16:07:04.962,2213564418,735962,1,0.61328,-0.04785,0.93994,-1.664,-0.328,-3.42
2026-06-01 16:07:04.962,2213564418,735962,2,1.03198,0.01318,0.11377,3.237,-7.916,-1.084
2026-06-01 16:07:04.162,2213563618,736162,1,0.58447,0.0144,0.9624,9.099,6.076,-7.366
2026-06-01 16:07:04.162,2213563618,736162,2,1.05103,0.03027,0.05884,3.092,-9.053,-0.557
2026-06-01 16:07:04.362,2213563818,736362,1,0.64526,0.04077,0.94067,-11.115,10.763,-5.611
2026-06-01 16:07:04.362,2213563818,736362,2,1.04077,0.02368,0.11987,-16.634,11.298,-6.183
2026-06-01 16:07:04.562,2213564018,736562,1,0.53271,-0.01416,0.94067,-5.023,7.191,-4.557
2026-06-01 16:07:04.562,2213564018,736562,2,0.9856,0.04175,0.16064,-12.008,7.779,1.282
2026-06-01 16:07:04.762,2213564218,736762,1,0.50439,0.01245,0.97485,-5.038,4.565,-2.603
2026-06-01 16:07:04.762,2213564218,736762,2,1.0083,0.04175,0.18579,-7.0,2.45,2.26
2026-06-01 16:07:05.962,2213565418,736962,1,0.5293,-0.02002,0.99365,-5.382,-1.695,-2.374
2026-06-01 16:07:05.962,2213565418,736962,2,1.02686,0.02051,0.15552,-10.618,-4.573,1.977
2026-06-01 16:07:05.162,2213564618,737162,1,0.58838,-0.04834,0.96021,-0.618,2.542,-0.626
2026-06-01 16:07:05.162,2213564618,737162,2,0.98682,0.00195,0.14966,2.084,-2.908,-0.412
2026-06-01 16:07:05.362,2213564818,737362,1,0.57959,-0.01514,0.98779,2.313,-1.137,1.473
2026-06-01 16:07:05.362,2213564818,737362,2,1.0105,0.04102,0.14111,-4.939,-2.511,0.275
2026-06-01 16:07:05.562,2213565018,737562,1,0.58521,-0.01855,0.9585,-0.603,3.206,-2.87
2026-06-01 16:07:05.562,2213565018,737562,2,1.01831,0.03125,0.12891,-4.756,-0.046,-2.038
2026-06-01 16:07:05.762,2213565218,737762,1,0.55542,-0.01245,0.9895,-0.489,3.458,-0.366
2026-06-01 16:07:05.762,2213565218,737762,2,0.99316,0.04712,0.15576,-1.641,2.435,0.305
2026-06-01 16:07:06.982,2213566438,737982,1,0.54297,-0.02905,0.99243,-0.176,0.908,1.687
2026-06-01 16:07:06.982,2213566438,737982,2,1.00513,0.03125,0.16089,-2.534,1.0,0.519
2026-06-01 16:07:06.182,2213565638,738182,1,0.62769,-0.00659,1.03857,0.954,9.137,7.046
2026-06-01 16:07:06.182,2213565638,738182,2,1.06885,0.02173,0.12671,-5.649,18.481,-11.962
2026-06-01 16:07:06.488,2213565944,738488,1,0.46533,-0.08862,1.14038,18.71,49.084,19.634
2026-06-01 16:07:06.488,2213565944,738488,2,1.00488,0.13745,0.31982,-3.206,33.855,-25.214
2026-06-01 16:07:06.688,2213566144,738688,1,0.23901,-0.00659,1.1543,14.305,56.672,6.947
2026-06-01 16:07:06.688,2213566144,738688,2,0.98218,0.35986,0.46362,2.756,55.855,-29.885
2026-06-01 16:07:06.888,2213566344,738888,1,-0.02881,-0.00537,1.42139,3.542,45.252,-4.008
2026-06-01 16:07:06.888,2213566344,738888,2,0.82959,0.32837,0.5979,-3.405,25.832,-16.084
2026-06-01 16:07:07.088,2213566544,739088,1,-0.09229,-0.10547,1.22095,-2.427,-32.611,-6.656
2026-06-01 16:07:07.088,2213566544,739088,2,0.65601,0.21924,0.41406,-10.122,-48.58,28.206
2026-06-01 16:07:07.288,2213566744,739288,1,0.18726,-0.05396,0.78857,15.664,-116.16,-2.954
2026-06-01 16:07:07.288,2213566744,739288,2,0.7417,0.03198,0.23315,29.198,-80.359,43.191
2026-06-01 16:07:07.488,2213566944,739488,1,0.55493,-0.05615,0.50659,12.0,-126.886,3.519
2026-06-01 16:07:07.488,2213566944,739488,2,0.93555,0.11572,0.12524,17.908,-48.122,36.969
2026-06-01 16:07:07.688,2213567144,739688,1,1.0144,0.08325,0.479,1.947,-45.588,-7.611
2026-06-01 16:07:07.688,2213567144,739688,2,1.0603,-0.0166,-0.08447,17.351,-17.817,10.221
2026-06-01 16:07:07.888,2213567344,739888,1,0.99854,0.08179,0.45361,-4.076,-14.687,-2.985
2026-06-01 16:07:07.888,2213567344,739888,2,1.04614,-0.06494,-0.13843,-12.756,-5.275,8.542
2026-06-01 16:07:08.088,2213567544,740088,1,0.98682,0.07349,0.49341,-10.214,6.397,-3.802
2026-06-01 16:07:08.088,2213567544,740088,2,1.04321,-0.09058,-0.06763,2.221,9.053,-6.969
2026-06-01 16:07:08.297,2213567753,740297,1,1.03589,0.07349,0.49707,-11.885,26.069,1.511
2026-06-01 16:07:08.297,2213567753,740297,2,1.02563,0.00317,-0.00464,15.504,41.344,-27.183
2026-06-01 16:07:08.497,2213567953,740497,1,0.86865,0.0144,0.58398,-8.893,71.924,-5.053
2026-06-01 16:07:08.497,2213567953,740497,2,0.87769,0.11792,-0.0083,2.992,70.122,-47.763
2026-06-01 16:07:08.697,2213568153,740697,1,0.25732,0.0459,0.84546,-28.641,83.771,-13.359
2026-06-01 16:07:08.697,2213568153,740697,2,0.5188,0.06982,0.16821,-37.473,31.122,-26.756
2026-06-01 16:07:08.900,2213568356,740900,1,0.30762,0.06348,0.93237,12.29,12.008,11.595
2026-06-01 16:07:08.900,2213568356,740900,2,1.03882,0.19385,0.24316,-0.023,-16.397,25.305
2026-06-01 16:07:09.100,2213568556,741100,1,0.68726,0.0293,1.18457,1.786,-30.359,6.107
2026-06-01 16:07:09.100,2213568556,741100,2,1.24634,0.10913,0.17749,-19.656,-26.985,29.206
2026-06-01 16:07:09.300,2213568756,741300,1,0.67847,0.02197,1.12988,-10.771,-16.366,6.702
2026-06-01 16:07:09.300,2213568756,741300,2,1.19092,0.0625,0.25659,0.13,-7.397,16.176
2026-06-01 16:07:09.500,2213568956,741500,1,0.42529,0.0896,1.18384,-1.779,19.038,-1.939
2026-06-01 16:07:09.500,2213568956,741500,2,1.06982,0.11694,0.0708,-1.443,7.977,-0.389
2026-06-01 16:07:09.700,2213569156,741700,1,0.64331,0.02515,1.09668,-9.053,8.053,-7.863
2026-06-01 16:07:09.700,2213569156,741700,2,1.60474,0.19971,0.33936,-15.275,26.382,-14.557
2026-06-01 16:07:09.900,2213569356,741900,1,0.48242,0.03906,1.32202,5.641,23.611,-4.107
2026-06-01 16:07:09.900,2213569356,741900,2,0.98804,0.14063,0.16772,-3.405,7.313,-5.496
2026-06-01 16:07:10.100,2213569556,742100,1,0.47949,0.0061,0.98999,4.992,-53.168,7.832
2026-06-01 16:07:10.100,2213569556,742100,2,0.89502,0.12134,0.13696,2.595,-34.298,17.779
2026-06-01 16:07:10.300,2213569756,742300,1,0.53076,-0.04272,0.69678,-11.443,-59.779,-11.099
2026-06-01 16:07:10.300,2213569756,742300,2,0.7146,0.00977,0.05591,-26.214,-45.87,28.053
2026-06-01 16:07:10.500,2213569956,742500,1,0.65112,-0.04224,0.45117,8.542,-58.84,-18.626
2026-06-01 16:07:10.500,2213569956,742500,2,0.95435,-0.01025,0.04028,-7.534,-26.16,23.481
2026-06-01 16:07:10.700,2213570156,742700,1,0.95679,0.06519,0.50415,6.618,-21.519,-15.962
2026-06-01 16:07:10.700,2213570156,742700,2,1.23706,0.03198,0.11621,20.038,4.504,-2.74
2026-06-01 16:07:10.900,2213570356,742900,1,0.92603,0.12085,0.5896,-0.527,1.611,-1.511
2026-06-01 16:07:10.900,2213570356,742900,2,1.01294,-0.08643,-0.03882,6.695,-2.962,3.748
2026-06-01 16:07:11.100,2213570556,743100,1,0.98584,0.12085,0.52515,20.29,15.679,16.489
2026-06-01 16:07:11.100,2213570556,743100,2,1.04126,-0.02783,-0.15405,28.275,1.565,-18.847
2026-06-01 16:07:11.300,2213570756,743300,1,0.85376,0.25244,0.63477,8.878,31.359,2.084
2026-06-01 16:07:11.300,2213570756,743300,2,1.04614,0.10498,-0.0769,8.992,18.015,-5.939
2026-06-01 16:07:11.500,2213570956,743500,1,0.66211,0.12524,0.45435,-18.229,103.244,5.824
2026-06-01 16:07:11.500,2213570956,743500,2,0.64819,0.11133,0.06079,-33.229,48.427,-44.58
2026-06-01 16:07:11.700,2213571156,743700,1,0.2583,-0.06299,0.61475,-16.328,92.099,6.901
2026-06-01 16:07:11.700,2213571156,743700,2,0.72314,0.12866,0.229,-57.763,31.542,-20.221
2026-06-01 16:07:11.900,2213571356,743900,1,0.29028,-0.08984,1.31396,-12.817,16.137,-9.779
2026-06-01 16:07:11.900,2213571356,743900,2,1.09619,0.27148,0.41016,-31.702,-3.481,17.802
2026-06-01 16:07:12.100,2213571556,744100,1,0.49414,-0.08276,1.24829,13.763,-36.687,-5.916
2026-06-01 16:07:12.100,2213571556,744100,2,1.16626,0.25195,0.36719,-18.832,-32.557,25.779
2026-06-01 16:07:12.300,2213571756,744300,1,0.68921,-0.02344,1.29517,-14.511,-20.679,-11.992
2026-06-01 16:07:12.300,2213571756,744300,2,1.23193,0.02124,0.2688,-10.702,-9.412,-0.29
2026-06-01 16:07:12.500,2213571956,744500,1,0.61426,0.14697,1.02759,5.931,24.015,5.527
2026-06-01 16:07:12.500,2213571956,744500,2,1.50024,0.35083,0.46313,12.221,5.183,-11.382
2026-06-01 16:07:12.700,2213572156,744700,1,0.40771,-0.00244,1.30347,-16.267,64.16,-14.099
2026-06-01 16:07:12.700,2213572156,744700,2,0.93652,0.20557,0.34521,-10.069,31.359,-30.351
2026-06-01 16:07:12.909,2213572365,744909,1,0.11768,-0.07813,1.23779,6.305,-38.496,-6.962
2026-06-01 16:07:12.909,2213572365,744909,2,0.74365,0.11719,0.2124,1.863,-40.733,26.328
2026-06-01 16:07:13.109,2213572565,745109,1,0.31836,-0.01636,0.60693,8.382,-114.756,-0.191
2026-06-01 16:07:13.109,2213572565,745109,2,0.66357,0.05249,-0.03271,30.954,-46.115,58.802
2026-06-01 16:07:13.317,2213572773,745317,1,0.72925,0.02539,0.38989,11.496,-101.802,-1.053
2026-06-01 16:07:13.317,2213572773,745317,2,1.06323,-0.06323,-0.07275,16.931,-13.015,9.626
2026-06-01 16:07:13.616,2213573072,745615,1,1.0166,0.13623,0.51074,12.267,16.458,4.885
2026-06-01 16:07:13.616,2213573072,745615,2,1.0332,0.02271,-0.04175,6.74,12.855,-25.443
2026-06-01 16:07:13.815,2213573271,745815,1,0.89966,0.05273,0.53906,-6.0,59.061,0.931
2026-06-01 16:07:13.815,2213573271,745815,2,1.01953,0.08643,0.08936,-33.756,29.16,-32.565
2026-06-01 16:07:14.015,2213573471,746015,1,0.36206,0.11499,0.75488,19.618,108.771,16.198
2026-06-01 16:07:14.015,2213573471,746015,2,0.67432,0.18994,0.17041,-2.618,51.046,-41.893
2026-06-01 16:07:14.215,2213573671,746215,1,0.2146,-0.03906,0.95825,1.328,48.977,6.336
2026-06-01 16:07:14.215,2213573671,746215,2,0.64307,0.10938,0.32202,-15.924,10.115,-1.389
2026-06-01 16:07:14.415,2213573871,746415,1,0.3728,-0.03784,1.1438,3.473,-20.473,-1.061
2026-06-01 16:07:14.415,2213573871,746415,2,1.02612,0.17041,0.3396,-0.176,-25.435,18.878
2026-06-01 16:07:14.615,2213574071,746615,1,0.61694,0.02246,1.13306,1.382,-31.389,-4.374
2026-06-01 16:07:14.615,2213574071,746615,2,1.18335,0.18262,0.26611,8.008,-27.603,22.099
2026-06-01 16:07:14.815,2213574271,746815,1,0.63257,0.05005,1.08496,-0.504,-23.817,-3.534
2026-06-01 16:07:14.815,2213574271,746815,2,1.19702,0.07275,0.22607,9.153,-13.863,19.084
2026-06-01 16:07:15.015,2213574471,747015,1,0.67798,0.06934,0.98389,0.13,13.969,3.779
2026-06-01 16:07:15.015,2213574471,747015,2,0.98047,0.12769,0.09131,5.13,14.405,-10.504
2026-06-01 16:07:15.215,2213574671,747215,1,0.57959,0.04419,0.99658,-7.786,5.756,-3.672
2026-06-01 16:07:15.215,2213574671,747215,2,1.23657,0.12305,0.23193,0.137,10.939,-2.176
2026-06-01 16:07:15.415,2213574871,747415,1,0.81006,0.04956,1.48657,-0.321,50.427,13.137
2026-06-01 16:07:15.415,2213574871,747415,2,1.32935,0.25562,0.34521,-25.198,46.779,-36.557
2026-06-01 16:07:15.615,2213575071,747615,1,0.32544,-0.09448,1.22339,-0.817,21.557,-3.328
2026-06-01 16:07:15.615,2213575071,747615,2,0.83301,0.18457,0.33423,3.0,6.313,-4.748
2026-06-01 16:07:15.815,2213575271,747815,1,0.2644,-0.01807,0.89868,12.924,-26.168,-6.794
2026-06-01 16:07:15.815,2213575271,747815,2,0.6438,0.19067,0.20264,-0.206,-22.702,8.076
2026-06-01 16:07:16.015,2213575471,748015,1,0.30103,0.01807,0.84985,1.969,-67.0,-16.649
2026-06-01 16:07:16.015,2213575471,748015,2,0.79614,0.2124,0.1853,-3.183,-42.115,18.542
2026-06-01 16:07:16.215,2213575671,748215,1,0.66162,0.06982,0.71631,17.656,-81.168,2.885
2026-06-01 16:07:16.215,2213575671,748215,2,0.95581,0.07568,0.15869,3.267,-33.87,31.137
2026-06-01 16:07:16.415,2213575871,748415,1,0.83325,0.10962,0.60449,5.832,-36.069,2.985
2026-06-01 16:07:16.415,2213575871,748415,2,1.0415,0.08325,-0.03882,-2.71,-26.0,18.496
2026-06-01 16:07:16.615,2213576071,748615,1,0.99512,0.13989,0.53662,-14.588,-14.374,-4.176
2026-06-01 16:07:16.615,2213576071,748615,2,1.08667,-0.00757,0.02002,19.847,4.267,4.42
2026-06-01 16:07:16.815,2213576271,748815,1,1.01904,0.1145,0.47363,-5.168,38.298,3.863
2026-06-01 16:07:16.815,2213576271,748815,2,0.91943,-0.02417,-0.01587,9.313,35.916,-35.038
2026-06-01 16:07:17.018,2213576474,749018,1,0.62891,-0.03149,0.70972,-13.16,108.855,17.847
2026-06-01 16:07:17.018,2213576474,749018,2,0.80054,0.0144,0.13867,6.84,38.573,-59.794
2026-06-01 16:07:17.218,2213576674,749218,1,0.19727,0.00952,0.73901,-23.969,95.023,-13.893
2026-06-01 16:07:17.218,2213576674,749218,2,0.59277,0.10693,0.07886,-37.252,63.626,-44.282
2026-06-01 16:07:17.418,2213576874,749418,1,0.11426,-0.11523,1.17896,-2.183,14.718,-5.893
2026-06-01 16:07:17.418,2213576874,749418,2,0.82788,0.27368,0.33789,3.756,1.29,5.802
2026-06-01 16:07:17.618,2213577074,749618,1,0.36255,-0.00269,1.29907,11.977,-38.748,-2.595
2026-06-01 16:07:17.618,2213577074,749618,2,1.08154,0.20654,0.37207,9.176,-36.107,25.092
2026-06-01 16:07:17.818,2213577274,749818,1,0.5957,,1.23242,-5.076,-46.802,2.511
2026-06-01 16:07:17.818,2213577274,749818,2,1.54688,0.21802,0.39746,-11.366,-25.756,19.13
2026-06-01 16:07:18.018,2213577474,750018,1,0.58374,0.00854,0.88159,-2.924,-0.565,0.26
2026-06-01 16:07:18.018,2213577474,750018,2,0.927,0.08716,0.17139,8.412,13.031,3.153
2026-06-01 16:07:21.109,2213580565,753108,1,0.55664,0.01025,1.052,0.466,6.405,6.435
2026-06-01 16:07:21.109,2213580565,753108,2,1.14697,0.07544,0.28076,1.71,16.939,-4.695
2026-06-01 16:07:21.449,2213580905,753449,1,0.54224,0.00635,1.3811,-2.954,35.008,13.763
2026-06-01 16:07:21.449,2213580905,753449,2,1.03345,0.25269,0.36523,3.176,14.947,-3.29
2026-06-01 16:07:21.701,2213581157,753701,1,0.31128,-0.08301,1.08276,12.321,-13.969,3.496
2026-06-01 16:07:21.701,2213581157,753701,2,0.72998,0.19922,0.22607,-6.481,-27.588,9.649
2026-06-01 16:07:22.956,2213582412,753956,1,0.33301,0.04395,0.81787,-5.252,-73.214,-23.931
2026-06-01 16:07:22.956,2213582412,753956,2,0.69653,0.08765,0.04346,-28.405,-39.466,28.229
2026-06-01 16:07:22.262,2213581718,754262,1,0.93628,0.03662,0.6167,-0.962,-52.336,-12.687
2026-06-01 16:07:22.262,2213581718,754262,2,1.10327,0.09546,0.02368,-0.809,-19.496,11.168
2026-06-01 16:07:22.462,2213581918,754462,1,0.97925,0.09961,0.5376,4.191,-15.008,-3.802
2026-06-01 16:07:22.462,2213581918,754462,2,1.04517,-0.04175,-0.0415,1.763,-12.55,7.504
2026-06-01 16:07:22.662,2213582118,754662,1,0.98022,0.05371,0.53271,-1.183,9.542,-3.542
2026-06-01 16:07:22.662,2213582118,754662,2,1.1023,-0.07275,-0.00073,-4.55,-0.023,-12.679
2026-06-01 16:07:22.862,2213582318,754862,1,0.8855,0.20654,0.65283,26.046,38.779,16.977
2026-06-01 16:07:22.862,2213582318,754862,2,1.01196,0.07056,-0.14063,50.443,11.267,-21.473
2026-06-01 16:07:23.062,2213582518,755062,1,0.79492,0.27979,0.67993,-6.534,18.542,11.908
2026-06-01 16:07:23.062,2213582518,755062,2,1.09106,0.21777,0.02881,-19.305,25.832,7.618
2026-06-01 16:07:23.262,2213582718,755262,1,0.5918,-0.13794,0.57935,-7.58,84.588,20.573
2026-06-01 16:07:23.262,2213582718,755262,2,0.52783,0.04614,-0.04004,-42.779,52.641,-42.275
2026-06-01 16:07:23.462,2213582918,755462,1,0.22241,-0.16138,0.83252,-15.588,56.878,-17.443
2026-06-01 16:07:23.462,2213582918,755462,2,0.93555,0.20288,0.25659,-5.718,30.618,-16.321
2026-06-01 16:07:23.662,2213583118,755662,1,0.38501,-0.04321,1.3772,4.702,-1.794,-9.679
2026-06-01 16:07:23.662,2213583118,755662,2,1.08765,0.27466,0.41602,-4.176,-21.603,18.763
2026-06-01 16:07:23.862,2213583318,755862,1,0.55249,0.04468,1.2522,5.015,-35.947,-3.015
2026-06-01 16:07:23.862,2213583318,755862,2,1.26953,0.23975,0.35132,-0.359,-24.84,24.855
2026-06-01 16:07:24.062,2213583518,756062,1,0.62695,0.04224,1.10327,1.802,-13.122,6.527
2026-06-01 16:07:24.062,2213583518,756062,2,0.99268,0.10962,0.15283,-8.412,-8.115,9.214
2026-06-01 16:07:24.262,2213583718,756262,1,0.67065,0.01538,0.97559,5.29,15.389,10.504
2026-06-01 16:07:24.262,2213583718,756262,2,1.12646,0.14429,0.19897,-3.992,7.481,-6.802
2026-06-01 16:07:24.462,2213583918,756462,1,0.72388,-0.01782,1.38892,-0.282,59.519,0.496
2026-06-01 16:07:24.462,2213583918,756462,2,1.25952,0.25806,0.34644,-8.885,55.725,-43.542
2026-06-01 16:07:24.662,2213584118,756662,1,0.125,-0.04102,1.33618,1.305,28.275,-1.214
2026-06-01 16:07:24.662,2213584118,756662,2,0.7771,0.20605,0.34863,2.046,-4.771,2.832
2026-06-01 16:07:24.862,2213584318,756862,1,0.17676,-0.05493,0.99365,10.557,-57.351,-3.565
2026-06-01 16:07:24.862,2213584318,756862,2,0.73096,0.17188,0.24292,27.626,-44.496,30.588
2026-06-01 16:07:25.062,2213584518,757062,1,0.40649,0.00049,0.64307,17.466,-97.168,2.977
2026-06-01 16:07:25.062,2213584518,757062,2,0.74878,0.10498,0.0686,8.55,-42.672,34.183
2026-06-01 16:07:25.262,2213584718,757262,1,0.98828,0.09229,0.604,14.382,-55.275,-4.053
2026-06-01 16:07:25.262,2213584718,757262,2,0.98657,0.29541,-0.1416,-15.611,-40.359,-15.557
2026-06-01 16:07:25.462,2213584918,757462,1,0.93311,0.00562,0.6123,6.099,-7.336,-0.542
2026-06-01 16:07:25.462,2213584918,757462,2,1.03125,0.01587,-0.08813,18.092,-8.267,-2.122
2026-06-01 16:07:25.662,2213585118,757662,1,0.94873,0.08594,0.59521,-4.031,15.718,3.061
2026-06-01 16:07:25.662,2213585118,757662,2,1.05298,0.08374,-0.02783,-12.519,11.191,-13.45
2026-06-01 16:07:25.862,2213585318,757862,1,0.80811,-0.05713,0.48608,-5.176,79.481,0.122
2026-06-01 16:07:25.862,2213585318,757862,2,0.69629,0.09839,0.12695,2.786,51.443,-58.733
2026-06-01 16:07:26.062,2213585518,758062,1,0.42334,-0.05884,0.88306,-15.0,35.855,-5.29
2026-06-01 16:07:26.062,2213585518,758062,2,0.8064,0.18652,0.25659,-26.649,22.084,-12.244
2026-06-01 16:07:26.262,2213585718,758262,1,0.41602,0.04028,1.03687,-5.16,11.061,1.962
2026-06-01 16:07:26.262,2213585718,758262,2,0.95923,0.23389,0.22974,-12.42,-5.947,3.221
2026-06-01 16:07:26.462,2213585918,758462,1,0.61011,0.02319,1.13892,4.992,-15.985,-1.947
2026-06-01 16:07:26.462,2213585918,758462,2,1.17285,0.2583,0.16846,20.031,-23.13,27.29
2026-06-01 16:07:26.662,2213586118,758662,1,0.67944,0.05127,1.06641,1.893,-10.458,-0.397
2026-06-01 16:07:26.662,2213586118,758662,2,1.16138,0.12207,0.16406,-6.664,-3.954,15.939
2026-06-01 16:07:26.862,2213586318,758862,1,0.70386,0.05005,1.01831,-7.962,19.42,-5.13
2026-06-01 16:07:26.862,2213586318,758862,2,0.99487,0.18115,0.08691,-3.427,14.053,-2.321
2026-06-01 16:07:27.062,2213586518,759062,1,0.51758,0.01758,0.9436,-7.481,3.947,-1.534
2026-06-01 16:07:27.062,2213586518,759062,2,1.07886,0.14404,0.22974,-8.763,6.878,1.779
2026-06-01 16:07:27.262,2213586718,759262,1,0.89673,0.03467,1.39941,-1.824,41.794,5.229
2026-06-01 16:07:27.262,2213586718,759262,2,1.30298,0.25122,0.3374,-9.763,46.42,-37.786
2026-06-01 16:07:27.462,2213586918,759462,1,0.37866,0.01099,1.24194,-3.649,20.282,4.153
2026-06-01 16:07:27.462,2213586918,759462,2,0.88354,0.20923,0.30811,6.115,11.069,-4.542
2026-06-01 16:07:27.662,2213587118,759662,1,0.34229,-0.0376,0.95679,0.931,-54.626,-7.649
2026-06-01 16:07:27.662,2213587118,759662,2,0.77881,0.17847,0.23853,-32.931,-35.748,17.695
2026-06-01 16:07:27.862,2213587318,759862,1,0.46851,-0.01123,0.69995,2.069,-72.061,-9.565
2026-06-01 16:07:27.862,2213587318,759862,2,0.81567,0.10449,0.13452,-17.198,-43.603,28.733
2026-06-01 16:07:28.062,2213587518,760062,1,0.71118,0.02588,0.59546,-1.786,-56.969,-6.519
2026-06-01 16:07:28.062,2213587518,760062,2,0.94482,0.04272,0.0542,8.008,-19.435,23.458
2026-06-01 16:07:28.262,2213587718,760262,1,0.9856,0.05249,0.59937,4.328,-10.542,-3.718
2026-06-01 16:07:28.262,2213587718,760262,2,0.99902,0.00562,0.01245,29.229,-4.58,7.489
2026-06-01 16:07:28.462,2213587918,760462,1,0.96729,0.07642,0.56104,5.679,-3.405,-3.618
2026-06-01 16:07:28.462,2213587918,760462,2,1.04004,-0.05688,-0.02026,15.023,-3.237,2.557
2026-06-01 16:07:28.662,2213588118,760662,1,0.96558,0.08398,0.56592,1.145,17.244,0.305
2026-06-01 16:07:28.662,2213588118,760662,2,1.07471,0.01465,0.00488,13.29,4.374,-18.443
2026-06-01 16:07:28.862,2213588318,760862,1,0.729,0.05859,0.57837,-6.611,88.198,9.74
2026-06-01 16:07:28.862,2213588318,760862,2,0.91211,0.03027,0.11743,-19.29,29.931,-34.939
2026-06-01 16:07:29.062,2213588518,761062,1,0.16992,0.02368,0.55981,4.145,107.939,10.565
2026-06-01 16:07:29.062,2213588518,761062,2,0.56738,0.17432,0.14209,1.756,54.656,-32.901
2026-06-01 16:07:29.273,2213588729,761273,1,0.34106,-0.07642,1.40894,-6.031,18.725,-3.748
2026-06-01 16:07:29.273,2213588729,761273,2,1.1377,0.2937,0.46533,-7.992,1.802,9.672
2026-06-01 16:07:29.473,2213588929,761473,1,0.42236,-0.00122,1.33398,8.802,-38.053,-4.328
2026-06-01 16:07:29.473,2213588929,761473,2,1.23975,0.28369,0.3584,0.756,-34.046,29.252
2026-06-01 16:07:29.673,2213589129,761673,1,0.65234,-0.03369,1.08813,-4.282,-23.916,-8.626
2026-06-01 16:07:29.673,2213589129,761673,2,1.07178,0.11353,0.16406,-1.992,-16.458,0.756
2026-06-01 16:07:29.873,2213589329,761873,1,0.58594,0.04004,0.9519,1.13,-3.618,0.489
2026-06-01 16:07:29.873,2213589329,761873,2,1.10742,0.12891,0.14307,3.115,-2.71,3.527
2026-06-01 16:07:30.078,2213589534,762078,1,0.63135,0.01465,0.96289,-8.031,13.489,3.053
