datetime,epoch_ms,ts_millis,mpu_id,ax,ay,az,gx,gy,gz
2026-05-23 16:42:43.274,1438102730,7274,1,1.02319,0.04102,0.12036,-36.519,12.809,-3.748
2026-05-23 16:42:43.274,1438102730,7274,2,0.99414,0.14502,0.29443,-78.13,-20.435,-14.214
2026-05-23 16:42:43.474,1438102930,7474,1,1.03467,0.08472,0.0686,-1.389,4.802,-7.466
2026-05-23 16:42:43.474,1438102930,7474,2,0.97192,0.1814,0.3252,35.786,-15.45,0.481
2026-05-23 16:42:44.674,1438104130,7674,1,1.01611,0.04907,0.05933,7.977,3.198,6.794
2026-05-23 16:42:44.674,1438104130,7674,2,0.93384,0.14966,0.33301,31.802,-3.427,14.55
2026-05-23 16:42:44.874,1438104330,7874,1,1.04492,0.23535,0.06421,49.275,3.397,12.382
2026-05-23 16:42:44.874,1438104330,7874,2,0.77197,0.25488,0.68213,175.122,-11.649,-27.771
2026-05-23 16:42:44.074,1438103530,8074,1,0.97534,0.16675,0.02002,9.0,16.916,21.137
2026-05-23 16:42:44.074,1438103530,8074,2,1.01782,0.07104,0.4397,-33.031,-16.603,11.771
2026-05-23 16:42:44.274,1438103730,8274,1,0.96069,0.27466,0.07788,64.26,-2.87,18.42
2026-05-23 16:42:44.274,1438103730,8274,2,1.21338,0.03394,0.33594,-47.458,29.809,-14.107
2026-05-23 16:42:44.474,1438103930,8474,1,0.96265,-0.02759,0.18018,-13.084,2.771,-5.611
2026-05-23 16:42:44.474,1438103930,8474,2,1.30933,0.47021,0.91406,-32.763,-60.191,-29.252
2026-05-23 16:42:45.674,1438105130,8674,1,1.0293,-0.0127,0.08472,-67.687,27.29,3.542
2026-05-23 16:42:45.674,1438105130,8674,2,0.75903,0.14819,0.50854,-95.412,45.198,-10.672
2026-05-23 16:42:45.874,1438105330,8874,1,1.07007,-0.00903,-0.00586,-7.992,10.962,-4.641
2026-05-23 16:42:45.874,1438105330,8874,2,0.92627,0.28223,0.46484,-0.374,-6.733,6.344
2026-05-23 16:42:45.074,1438104530,9074,1,1.07642,-0.04492,-0.04541,-29.893,-1.412,-10.115
2026-05-23 16:42:45.074,1438104530,9074,2,0.93726,0.33862,0.33618,-12.672,-17.176,2.847
2026-05-23 16:42:45.274,1438104730,9274,1,1.08765,0.11572,0.12305,2.603,-6.588,-6.252
2026-05-23 16:42:45.274,1438104730,9274,2,0.96802,0.30005,0.24365,-19.664,-37.649,13.519
2026-05-23 16:42:45.474,1438104930,9474,1,0.96899,0.11304,0.19434,55.504,8.641,4.13
2026-05-23 16:42:45.474,1438104930,9474,2,0.88989,0.09131,0.23828,26.435,47.634,-7.29
2026-05-23 16:42:46.674,1438106130,9674,1,0.99512,0.2688,0.13916,54.053,13.977,2.725
2026-05-23 16:42:46.674,1438106130,9674,2,0.90967,-0.06543,0.3894,43.931,48.817,24.466
2026-05-23 16:42:46.874,1438106330,9874,1,1.00635,0.31226,0.08008,-10.58,-16.069,1.794
2026-05-23 16:42:46.874,1438106330,9874,2,1.05981,-0.11938,0.5022,1.053,-0.756,-6.405
2026-05-23 16:42:46.074,1438105530,10074,1,0.9873,0.32593,-0.02979,-29.176,-21.366,-3.641
2026-05-23 16:42:46.074,1438105530,10074,2,0.89746,0.06323,0.4563,-47.45,-25.168,-25.008
2026-05-23 16:42:46.274,1438105730,10274,1,1.09888,0.28516,-0.00952,67.855,-3.176,32.496
2026-05-23 16:42:46.274,1438105730,10274,2,0.97729,0.00195,0.23608,-44.496,-0.443,31.779
2026-05-23 16:42:47.535,1438106991,10535,1,0.99731,-0.11621,0.21313,-148.252,4.458,-26.565
2026-05-23 16:42:47.535,1438106991,10535,2,0.92944,0.4397,0.47217,-250.137,-21.008,-37.16
2026-05-23 16:42:47.735,1438107191,10735,1,0.96069,-0.26245,0.09814,-60.504,4.008,-7.374
2026-05-23 16:42:47.735,1438107191,10735,2,0.83838,0.33545,0.3811,-26.908,-19.443,21.908
2026-05-23 16:42:47.935,1438107391,10935,1,0.94971,0.01172,0.10303,-63.679,-16.137,-32.176
2026-05-23 16:42:47.935,1438107391,10935,2,0.83252,0.30933,0.32446,-25.962,-32.061,4.74
2026-05-23 16:42:47.135,1438106591,11135,1,1.12891,0.03271,-0.00659,-71.481,-24.931,-28.092
2026-05-23 16:42:47.135,1438106591,11135,2,0.87622,0.43457,0.41479,-113.992,3.504,16.901
2026-05-23 16:42:47.335,1438106791,11335,1,1.08252,-0.02002,-0.0376,-44.656,-10.115,-11.168
2026-05-23 16:42:47.335,1438106791,11335,2,0.93164,0.28174,0.35864,6.252,-10.725,-5.26
2026-05-23 16:42:48.535,1438107991,11535,1,1.05225,0.0293,0.00244,-24.473,-15.855,-6.504
2026-05-23 16:42:48.535,1438107991,11535,2,0.95752,0.25439,0.41479,-27.237,-11.557,0.504
2026-05-23 16:42:48.735,1438108191,11735,1,1.06567,0.05249,-0.0061,-47.817,-3.595,-9.038
2026-05-23 16:42:48.735,1438108191,11735,2,0.94824,0.33105,0.41504,-40.168,-3.84,0.466
2026-05-23 16:42:48.935,1438108391,11935,1,1.07959,0.01953,-0.00903,-14.435,-1.336,-0.641
2026-05-23 16:42:48.935,1438108391,11935,2,0.91943,0.33154,0.38501,9.344,0.145,0.023
2026-05-23 16:42:48.135,1438107591,12135,1,1.12207,-0.00952,-0.02759,33.863,6.26,-4.336
2026-05-23 16:42:48.135,1438107591,12135,2,0.90356,0.42749,0.43066,64.015,-10.511,10.969
2026-05-23 16:42:48.335,1438107791,12335,1,1.03394,-0.05908,-0.19604,115.42,24.603,3.573
2026-05-23 16:42:48.335,1438107791,12335,2,0.87646,0.44556,0.31787,149.366,17.374,-9.603
2026-05-23 16:42:49.535,1438108991,12535,1,1.00684,0.25195,-0.16553,232.076,77.939,53.008
2026-05-23 16:42:49.535,1438108991,12535,2,0.98657,0.16968,0.4104,250.13,25.916,8.069
2026-05-23 16:42:49.735,1438109191,12735,1,1.0293,0.50171,0.02124,70.221,-6.55,39.092
2026-05-23 16:42:49.735,1438109191,12735,2,1.07568,-0.13135,0.65186,184.992,-24.847,-46.718
2026-05-23 16:42:49.935,1438109391,12935,1,0.97461,0.28784,-0.0376,-66.947,-4.878,0.802
2026-05-23 16:42:49.935,1438109391,12935,2,0.93848,0.07495,0.49609,-148.863,-38.611,25.168
2026-05-23 16:42:49.135,1438108591,13135,1,1.07886,0.18066,-0.07251,9.183,19.137,27.542
2026-05-23 16:42:49.135,1438108591,13135,2,1.39722,0.02075,0.14429,48.756,64.55,-17.0
2026-05-23 16:42:49.335,1438108791,13335,1,0.96973,-0.04883,0.2915,-15.672,58.511,4.84
2026-05-23 16:42:49.335,1438108791,13335,2,1.08716,0.33618,0.20776,-115.435,-71.603,-13.557
2026-05-23 16:42:50.535,1438109991,13535,1,0.39893,-0.25366,0.34473,-31.481,121.435,-15.504
2026-05-23 16:42:50.535,1438109991,13535,2,0.54639,0.49316,0.06079,6.55,-82.924,-41.977
2026-05-23 16:42:50.735,1438110191,13735,1,0.46973,-0.25537,0.77563,18.687,121.015,21.809
2026-05-23 16:42:50.735,1438110191,13735,2,0.45508,0.24121,-0.59229,-17.916,-122.122,11.687
2026-05-23 16:42:50.935,1438110391,13935,1,-0.04102,-0.1814,0.99316,-0.626,61.878,0.092
2026-05-23 16:42:50.935,1438110391,13935,2,0.29248,0.15161,-0.44263,20.183,-38.084,14.55
2026-05-23 16:42:50.146,1438109602,14146,1,-0.08618,-0.16333,0.90991,15.122,19.573,3.763
2026-05-23 16:42:50.146,1438109602,14146,2,0.28662,0.03857,-0.52661,3.565,-7.069,3.595
2026-05-23 16:42:50.346,1438109802,14346,1,-0.10742,-0.02222,0.86011,-4.031,-10.954,9.931
2026-05-23 16:42:50.346,1438109802,14346,2,0.23022,0.04419,-0.44043,-11.702,5.878,-4.603
2026-05-23 16:42:51.546,1438111002,14546,1,-0.21558,0.0647,1.26929,15.321,-104.802,-12.015
2026-05-23 16:42:51.546,1438111002,14546,2,0.8186,0.30005,-0.07813,-115.069,105.832,28.847
2026-05-23 16:42:51.791,1438111247,14791,1,0.67554,-0.1228,0.27222,-92.183,-129.328,-51.641
2026-05-23 16:42:51.791,1438111247,14791,2,0.81616,0.19971,0.08179,-104.328,59.153,36.366
2026-05-23 16:42:51.991,1438111447,14991,1,0.90576,-0.09424,0.25024,-96.031,-82.763,-66.198
2026-05-23 16:42:51.991,1438111447,14991,2,0.82251,0.47632,0.28027,-90.26,34.603,12.672
2026-05-23 16:42:51.191,1438110647,15191,1,0.97925,-0.16284,0.12793,-55.733,-49.771,-43.733
2026-05-23 16:42:51.191,1438110647,15191,2,1.07422,0.14209,0.1521,-61.069,42.481,30.427
2026-05-23 16:42:51.391,1438110847,15391,1,1.05811,-0.0127,0.03223,-4.687,-30.786,-22.405
2026-05-23 16:42:51.391,1438110847,15391,2,0.88672,0.3374,0.37817,61.992,50.794,-19.649
2026-05-23 16:42:52.591,1438112047,15591,1,1.07446,0.08984,-0.01807,31.786,2.557,-2.328
2026-05-23 16:42:52.591,1438112047,15591,2,0.84546,0.04443,0.39453,88.099,-5.412,-8.397
2026-05-23 16:42:52.791,1438112247,15791,1,0.93262,0.10718,-0.19556,43.092,-11.618,-7.046
2026-05-23 16:42:52.791,1438112247,15791,2,1.22363,0.54468,0.3855,250.13,109.855,23.412
2026-05-23 16:42:52.991,1438112447,15991,1,0.96118,0.18604,-0.02295,17.145,8.344,-0.634
2026-05-23 16:42:52.991,1438112447,15991,2,1.00952,-0.02197,0.20483,26.282,19.87,25.473
2026-05-23 16:42:52.191,1438111647,16191,1,1.01294,0.18481,-0.00488,30.061,0.58,7.504
2026-05-23 16:42:52.191,1438111647,16191,2,0.82495,0.08203,0.5625,77.824,23.115,-63.244
2026-05-23 16:42:52.391,1438111847,16391,1,1.04663,0.15918,-0.07031,1.687,1.366,-3.305
2026-05-23 16:42:52.391,1438111847,16391,2,0.99536,0.04688,0.37744,-43.481,10.672,13.008
2026-05-23 16:42:53.591,1438113047,16591,1,1.05347,0.16943,-0.07373,3.107,-1.992,-3.87
2026-05-23 16:42:53.591,1438113047,16591,2,1.01807,0.13159,0.43018,-8.0,2.924,5.664
2026-05-23 16:42:53.791,1438113247,16791,1,1.04468,0.18457,-0.08057,-18.046,5.557,1.817
2026-05-23 16:42:53.791,1438113247,16791,2,0.97583,0.03833,0.47705,78.718,-6.603,-10.458
2026-05-23 16:42:53.991,1438113447,16991,1,1.08984,0.17236,-0.01123,-52.679,13.137,1.397
2026-05-23 16:42:53.991,1438113447,16991,2,1.00757,-0.05591,0.22534,10.855,-103.664,102.115
2026-05-23 16:42:53.191,1438112647,17191,1,1.00586,0.1499,0.04785,-37.489,-17.198,-2.45
2026-05-23 16:42:53.191,1438112647,17191,2,0.83276,-0.16821,0.1792,46.336,-49.679,18.786
2026-05-23 16:42:53.391,1438112847,17391,1,1.05176,0.09326,0.0708,-1.733,5.573,6.344
2026-05-23 16:42:53.391,1438112847,17391,2,0.89673,-0.20972,0.10132,17.672,-26.328,15.901
2026-05-23 16:42:54.591,1438114047,17591,1,1.01782,0.1167,0.10815,10.122,-6.458,3.672
2026-05-23 16:42:54.591,1438114047,17591,2,0.92798,-0.16357,0.1521,-25.748,8.641,-1.038
2026-05-23 16:42:54.791,1438114247,17791,1,1.0249,0.08887,0.05029,37.023,1.198,3.954
2026-05-23 16:42:54.791,1438114247,17791,2,1.00146,0.20337,0.36719,-30.168,20.527,10.298
2026-05-23 16:42:57.858,1438117314,20858,1,1.0603,0.14893,-0.0437,-3.229,2.802,0.832
2026-05-23 16:42:57.858,1438117314,20858,2,0.97681,0.18604,0.28564,-13.176,7.901,-2.672
2026-05-23 16:42:57.058,1438116514,21058,1,1.05322,0.15063,-0.04492,-4.511,-1.053,0.076
2026-05-23 16:42:57.058,1438116514,21058,2,0.97046,0.33521,0.53198,-17.802,-7.763,3.618
2026-05-23 16:42:57.258,1438116714,21258,1,1.05078,0.15088,-0.05469,-5.405,1.153,0.397
2026-05-23 16:42:57.258,1438116714,21258,2,1.07495,0.30664,0.23462,-26.191,12.076,27.649
2026-05-23 16:42:57.458,1438116914,21458,1,1.05029,0.14771,-0.05176,-2.595,3.191,-0.023
2026-05-23 16:42:57.458,1438116914,21458,2,0.95874,0.18994,0.33472,-6.344,-3.71,2.252
2026-05-23 16:42:58.658,1438118114,21658,1,1.05249,0.146,-0.06006,-4.641,-0.939,-0.107
2026-05-23 16:42:58.658,1438118114,21658,2,0.95679,0.18164,0.33838,-0.962,4.725,1.023
2026-05-23 16:42:58.858,1438118314,21858,1,1.06006,0.15308,-0.05225,1.435,-2.031,-0.069
2026-05-23 16:42:58.858,1438118314,21858,2,0.95386,0.17578,0.34155,-1.656,1.374,0.817
2026-05-23 16:42:58.058,1438117514,22058,1,1.05396,0.14673,-0.05273,-5.023,-0.931,0.366
2026-05-23 16:42:58.058,1438117514,22058,2,0.95142,0.17944,0.33521,-2.45,2.664,1.771
2026-05-23 16:42:58.258,1438117714,22258,1,1.05688,0.14893,-0.06201,-4.74,0.916,0.649
2026-05-23 16:42:58.258,1438117714,22258,2,0.95361,0.17114,0.33716,-3.29,-1.809,1.237
2026-05-23 16:42:58.458,1438117914,22458,1,1.04541,0.1543,-0.04688,-5.71,1.87,-0.046
2026-05-23 16:42:58.458,1438117914,22458,2,0.95728,0.15942,0.34229,-2.282,1.145,2.992
2026-05-23 16:42:59.658,1438119114,22658,1,1.03809,0.17017,-0.04858,-1.206,-2.573,-0.649
2026-05-23 16:42:59.658,1438119114,22658,2,0.95557,0.12769,0.32178,-6.519,1.771,3.153
2026-05-23 16:42:59.858,1438119314,22858,1,1.04492,0.14722,-0.05518,-3.74,-0.015,-0.221
2026-05-23 16:42:59.858,1438119314,22858,2,0.96875,0.14673,0.35815,-16.374,-0.626,10.695
2026-05-23 16:42:59.058,1438118514,23058,1,1.07178,0.11426,-0.07593,-7.328,2.359,-3.344
2026-05-23 16:42:59.058,1438118514,23058,2,1.00757,0.19067,0.34253,-14.924,13.931,-2.344
2026-05-23 16:42:59.258,1438118714,23258,1,1.18286,0.22607,-0.14063,0.084,63.969,46.344
2026-05-23 16:42:59.258,1438118714,23258,2,1.15234,0.36572,0.45288,49.603,-20.893,-22.046
2026-05-23 16:42:59.458,1438118914,23458,1,0.90015,-0.06104,0.05737,42.015,144.321,34.458
2026-05-23 16:42:59.458,1438118914,23458,2,0.7627,0.33374,-0.0603,151.885,-130.87,-15.779
2026-05-23 16:43:00.658,1438120114,23658,1,0.27441,0.0354,0.66821,23.74,199.176,12.962
2026-05-23 16:43:00.658,1438120114,23658,2,0.61426,-0.06641,-0.1355,2.023,-120.267,15.13
2026-05-23 16:43:00.858,1438120314,23858,1,-0.16138,0.09155,1.0188,-23.84,68.084,15.74
2026-05-23 16:43:00.858,1438120314,23858,2,0.15063,-0.21338,-0.58423,17.824,-32.901,-17.214
2026-05-23 16:43:00.058,1438119514,24058,1,-0.10815,-0.21631,0.79712,-30.458,-5.855,0.977
2026-05-23 16:43:00.058,1438119514,24058,2,0.14087,0.15137,-0.50879,-7.481,-17.626,10.122
2026-05-23 16:43:00.258,1438119714,24258,1,-0.12329,-0.04688,0.84595,0.779,9.87,0.733
2026-05-23 16:43:00.258,1438119714,24258,2,0.1499,-0.12354,-0.57837,-5.16,-13.687,5.824
2026-05-23 16:43:00.458,1438119914,24458,1,-0.14575,0.00171,0.90942,-1.939,-12.496,-1.908
2026-05-23 16:43:00.458,1438119914,24458,2,0.22461,-0.08447,-0.52759,5.0,12.756,-4.542
2026-05-23 16:43:01.658,1438121114,24658,1,-0.1438,-0.06714,1.06567,-14.008,-31.832,-5.565
2026-05-23 16:43:01.658,1438121114,24658,2,0.31421,-0.06177,-0.66357,2.038,54.687,-3.282
2026-05-23 16:43:01.858,1438121314,24858,1,0.01001,-0.13281,0.9314,0.573,-90.008,-18.481
2026-05-23 16:43:01.858,1438121314,24858,2,0.44458,0.38501,-0.33154,-69.221,94.053,5.229
2026-05-23 16:43:01.058,1438120514,25058,1,0.36499,-0.30518,0.6604,19.099,-99.847,20.389
2026-05-23 16:43:01.058,1438120514,25058,2,0.59888,0.18311,-0.2168,40.305,90.771,-14.611
2026-05-23 16:43:01.258,1438120714,25258,1,0.66162,0.35498,0.46191,-20.748,-87.641,-27.519
2026-05-23 16:43:01.258,1438120714,25258,2,0.93408,-0.05518,0.04614,-55.168,54.038,-4.214
2026-05-23 16:43:01.458,1438120914,25458,1,0.91333,0.17114,0.3396,-9.351,-40.718,-24.702
2026-05-23 16:43:01.458,1438120914,25458,2,0.83423,-0.05371,0.11523,-15.748,11.214,-20.55
2026-05-23 16:43:02.658,1438122114,25658,1,1.03662,0.19043,0.28271,-13.282,-27.832,-21.359
2026-05-23 16:43:02.658,1438122114,25658,2,0.93115,0.25073,0.05664,-29.542,5.817,-13.0
2026-05-23 16:43:02.858,1438122314,25858,1,0.84009,0.1084,0.21094,-6.84,-0.473,-3.084
2026-05-23 16:43:02.858,1438122314,25858,2,0.82837,0.34912,0.10571,-51.084,-21.702,27.557
2026-05-23 16:43:02.058,1438121514,26058,1,1.28564,-0.05444,-0.05078,10.756,2.16,1.076
2026-05-23 16:43:02.058,1438121514,26058,2,0.76538,0.37695,-0.02515,15.802,-96.26,71.122
2026-05-23 16:43:02.258,1438121714,26258,1,0.22095,0.13745,0.16431,42.786,177.832,52.527
2026-05-23 16:43:02.258,1438121714,26258,2,0.59644,-0.51563,0.44897,163.901,-93.916,-76.092
2026-05-23 16:43:02.458,1438121914,26458,1,0.24609,0.4707,0.81689,-35.489,60.611,7.969
2026-05-23 16:43:02.458,1438121914,26458,2,0.59814,0.14917,-0.23071,-44.031,1.794,8.763
2026-05-23 16:43:03.658,1438123114,26658,1,0.64722,-0.04224,0.70239,-26.679,-86.542,25.168
2026-05-23 16:43:03.658,1438123114,26658,2,0.87012,0.2627,-0.39844,-1.519,55.092,-20.626
2026-05-23 16:43:03.858,1438123314,26858,1,1.0061,0.06592,0.7439,11.924,-61.137,-1.137
2026-05-23 16:43:03.858,1438123314,26858,2,1.23193,0.01538,-0.09448,-31.832,41.16,-11.595
2026-05-23 16:43:03.058,1438122514,27058,1,1.12524,-0.10474,0.29688,10.046,-25.229,-34.412
2026-05-23 16:43:03.058,1438122514,27058,2,0.97437,0.3147,0.14233,-14.847,21.305,14.74
2026-05-23 16:43:03.258,1438122714,27258,1,0.9834,0.19653,0.20776,-4.489,-13.023,17.336
2026-05-23 16:43:03.258,1438122714,27258,2,0.93701,0.30347,0.11499,-5.206,-37.153,9.779
2026-05-23 16:43:04.518,1438123974,27517,1,0.9375,0.00293,0.15112,8.115,10.359,-15.519
2026-05-23 16:43:04.518,1438123974,27517,2,0.82715,0.34961,0.16479,3.855,16.534,4.176
2026-05-23 16:43:04.717,1438124173,27717,1,0.92725,-0.04102,0.44263,-47.58,-7.489,3.084
2026-05-23 16:43:04.717,1438124173,27717,2,0.88867,0.30811,0.00903,2.924,-15.374,-0.771
2026-05-23 16:43:04.917,1438124373,27917,1,0.86792,-0.06543,0.36499,-7.405,8.443,1.649
2026-05-23 16:43:04.917,1438124373,27917,2,0.84229,0.13818,-0.0144,3.099,-3.092,9.183
2026-05-23 16:43:04.117,1438123573,28117,1,0.91919,-0.01538,0.36743,-13.053,-9.832,2.855
2026-05-23 16:43:04.117,1438123573,28117,2,0.87769,0.15796,-0.08032,1.046,36.779,7.618
2026-05-23 16:43:04.317,1438123773,28317,1,1.14429,-0.04956,0.28589,7.252,-3.763,2.031
2026-05-23 16:43:04.317,1438123773,28317,2,1.09985,0.11548,-0.12134,38.115,1.618,3.16
2026-05-23 16:43:05.517,1438124973,28517,1,1.11719,-0.03003,0.375,27.679,56.977,14.725
2026-05-23 16:43:05.517,1438124973,28517,2,1.08081,0.08911,-0.05957,37.702,-43.176,19.366
2026-05-23 16:43:05.717,1438125173,28717,1,0.84375,-0.00903,0.63354,4.427,64.679,1.534
2026-05-23 16:43:05.717,1438125173,28717,2,0.93555,0.02612,-0.09326,21.16,2.176,6.191
2026-05-23 16:43:05.917,1438125373,28917,1,0.66968,-0.00146,0.86523,6.313,37.954,7.511
2026-05-23 16:43:05.917,1438125373,28917,2,0.84326,-0.09009,-0.2373,8.931,-35.031,-5.168
2026-05-23 16:43:05.117,1438124573,29117,1,0.55225,0.02319,0.79126,-9.328,-44.321,0.626
2026-05-23 16:43:05.117,1438124573,29117,2,0.54297,0.00244,0.21631,-61.13,37.687,-0.275
2026-05-23 16:43:05.317,1438124773,29317,1,0.4519,-0.18066,0.19409,-16.351,-143.588,-27.748
2026-05-23 16:43:05.317,1438124773,29317,2,0.625,0.2251,0.04834,-7.985,84.565,4.748
2026-05-23 16:43:06.517,1438125973,29517,1,0.87231,0.00439,-0.09351,-44.481,-54.939,-11.252
2026-05-23 16:43:06.517,1438125973,29517,2,0.77979,0.21484,0.18408,-60.931,63.924,0.389
2026-05-23 16:43:06.717,1438126173,29717,1,1.13672,-0.05615,-0.12109,-22.351,-11.725,-3.435
2026-05-23 16:43:06.717,1438126173,29717,2,0.89893,0.27881,0.29883,-39.634,19.389,20.664
2026-05-23 16:43:06.917,1438126373,29917,1,1.13257,0.00073,-0.04663,4.382,-5.008,-11.275
2026-05-23 16:43:06.917,1438126373,29917,2,0.86646,0.19946,0.17212,19.397,1.611,10.061
2026-05-23 16:43:06.117,1438125573,30117,1,1.0791,0.27417,-0.15918,15.817,-0.16,-9.824
2026-05-23 16:43:06.117,1438125573,30117,2,1.03833,0.1001,0.31226,57.473,-7.573,-36.267
2026-05-23 16:43:06.317,1438125773,30317,1,1.0332,0.10229,0.01733,-6.626,0.855,-6.244
2026-05-23 16:43:06.317,1438125773,30317,2,0.93604,0.20581,0.25977,-59.061,5.466,20.664
2026-05-23 16:43:07.517,1438126973,30517,1,1.07104,0.09375,-0.02832,1.565,15.321,-2.237
2026-05-23 16:43:07.517,1438126973,30517,2,0.97144,0.19922,0.2561,9.786,10.779,4.687
2026-05-23 16:43:07.717,1438127173,30717,1,1.05688,0.07788,-0.01807,2.55,80.962,2.87
2026-05-23 16:43:07.717,1438127173,30717,2,0.97778,0.07764,0.27295,-21.908,-77.687,15.237
2026-05-23 16:43:07.917,1438127373,30917,1,0.72168,0.04565,0.32373,-20.985,136.237,2.901
2026-05-23 16:43:07.917,1438127373,30917,2,0.63062,-0.04395,0.07129,58.176,-122.985,35.405
2026-05-23 16:43:07.117,1438126573,31117,1,0.48267,-0.05322,0.81104,-7.038,129.214,7.588
2026-05-23 16:43:07.117,1438126573,31117,2,0.58423,-0.14893,-0.48755,2.191,-73.985,16.885
2026-05-23 16:43:07.317,1438126773,31317,1,0.15186,-0.06494,0.96387,-8.695,74.489,4.122
2026-05-23 16:43:07.317,1438126773,31317,2,0.479,-0.14844,-0.53809,17.214,-46.321,9.595
2026-05-23 16:43:08.517,1438127973,31517,1,0.01709,-0.06006,0.85645,-18.336,27.939,1.626
2026-05-23 16:43:08.517,1438127973,31517,2,0.33813,-0.08521,-0.57837,3.107,-34.29,-1.534
2026-05-23 16:43:08.717,1438128173,31717,1,-0.20117,-0.06396,1.2749,-1.328,16.344,4.206
2026-05-23 16:43:08.717,1438128173,31717,2,0.23682,-0.07788,-0.58472,-6.947,9.542,-5.382
2026-05-23 16:43:08.917,1438128373,31917,1,-0.17456,-0.03149,0.82544,-7.519,-2.153,11.511
2026-05-23 16:43:08.917,1438128373,31917,2,0.16919,-0.10962,-0.50977,-2.595,-16.939,-9.183
2026-05-23 16:43:08.117,1438127573,32117,1,-0.15942,-0.1001,0.80347,0.649,-0.023,7.275
2026-05-23 16:43:08.117,1438127573,32117,2,0.15747,-0.10889,-0.50171,-8.397,4.275,-6.023
2026-05-23 16:43:08.317,1438127773,32317,1,-0.11523,-0.104,0.81177,4.084,-7.099,2.351
2026-05-23 16:43:08.317,1438127773,32317,2,0.16895,-0.11328,-0.5437,-1.275,3.641,1.527
2026-05-23 16:43:09.517,1438128973,32517,1,-0.10083,-0.08301,0.80933,4.053,-0.977,-1.435
2026-05-23 16:43:09.517,1438128973,32517,2,0.17896,-0.12451,-0.53467,-1.015,1.252,5.626
2026-05-23 16:43:09.717,1438129173,32717,1,-0.08569,-0.04395,0.83911,1.015,1.519,-2.748
2026-05-23 16:43:09.717,1438129173,32717,2,0.16211,-0.12598,-0.52344,-2.855,5.443,4.168
2026-05-23 16:43:09.917,1438129373,32917,1,-0.05981,-0.03784,0.80811,-2.947,-3.412,-1.313
2026-05-23 16:43:09.917,1438129373,32917,2,0.20557,-0.10181,-0.49341,-2.847,1.153,-0.092
2026-05-23 16:43:09.117,1438128573,33117,1,-0.10767,-0.06421,0.802,-2.855,-17.458,5.878
2026-05-23 16:43:09.117,1438128573,33117,2,0.12524,-0.12549,-0.44482,0.435,11.099,2.198
2026-05-23 16:43:09.317,1438128773,33317,1,0.0481,0.00122,1.02441,23.084,-41.74,8.939
2026-05-23 16:43:09.317,1438128773,33317,2,0.45044,-0.09473,-0.62866,-21.038,47.924,-10.58
2026-05-23 16:43:10.517,1438129973,33517,1,0.1355,-0.04224,0.77832,-8.351,-25.382,16.092
2026-05-23 16:43:10.517,1438129973,33517,2,0.39722,-0.08301,-0.36084,-5.718,24.695,-7.206
2026-05-23 16:43:10.717,1438130173,33717,1,0.06567,-0.00757,0.52856,-8.374,-35.588,-8.061
2026-05-23 16:43:10.717,1438130173,33717,2,0.28906,-0.0061,-0.2207,-10.42,49.641,0.725
2026-05-23 16:43:10.917,1438130373,33917,1,0.39819,-0.00659,0.84033,-0.611,-30.817,-22.626
2026-05-23 16:43:10.917,1438130373,33917,2,0.6333,0.16797,-0.12915,-26.115,48.198,8.382
2026-05-23 16:43:10.117,1438129573,34117,1,0.58325,-0.02856,0.68286,-12.107,-85.496,-0.176
2026-05-23 16:43:10.117,1438129573,34117,2,0.86426,0.2688,-0.11304,-1.344,38.985,-3.351
2026-05-23 16:43:10.317,1438129773,34317,1,0.90649,-0.00269,0.60571,2.672,-11.794,7.061
2026-05-23 16:43:10.317,1438129773,34317,2,1.01489,0.13257,-0.13623,1.908,-17.053,-3.275
2026-05-23 16:43:11.517,1438130973,34517,1,1.04395,0.22437,0.92456,21.939,64.031,4.435
2026-05-23 16:43:11.517,1438130973,34517,2,1.27173,0.04272,-0.27197,30.687,-73.947,6.023
2026-05-23 16:43:11.717,1438131173,34717,1,0.55835,-0.13574,0.74194,-32.099,62.687,15.328
2026-05-23 16:43:11.717,1438131173,34717,2,0.66943,0.07593,-0.22046,-2.092,-85.885,1.374
2026-05-23 16:43:11.917,1438131373,34917,1,0.2478,0.04956,0.55103,20.206,83.87,-1.282
2026-05-23 16:43:11.917,1438131373,34917,2,0.1814,-0.21191,-0.23218,9.702,-105.115,29.649
2026-05-23 16:43:11.117,1438130573,35117,1,-0.17188,0.0752,0.74878,7.076,36.275,-5.832
2026-05-23 16:43:11.117,1438130573,35117,2,-0.33496,-0.20215,-0.18091,-0.45,-19.16,4.595
2026-05-23 16:43:11.317,1438130773,35317,1,0.00684,-0.03931,0.85767,-10.427,-42.198,3.267
2026-05-23 16:43:11.317,1438130773,35317,2,0.42773,-0.05078,-0.67334,-30.092,66.725,13.191
2026-05-23 16:43:12.517,1438131973,35517,1,-0.00903,-0.01514,0.94922,-15.725,-11.542,8.099
2026-05-23 16:43:12.517,1438131973,35517,2,0.16602,-0.11206,-0.49829,-11.824,47.565,-20.893
2026-05-23 16:43:12.717,1438132173,35717,1,0.18188,0.00439,0.9895,-10.13,-77.603,2.046
2026-05-23 16:43:12.717,1438132173,35717,2,0.62427,0.03369,-0.2207,-23.885,136.672,-2.756
2026-05-23 16:43:12.917,1438132373,35917,1,0.39795,-0.01318,0.28198,-13.473,-155.084,-22.733
2026-05-23 16:43:12.917,1438132373,35917,2,0.74536,0.05127,0.06738,-20.618,85.237,-17.405
2026-05-23 16:43:12.117,1438131573,36117,1,0.81812,-0.0415,0.18774,-26.901,-99.252,-19.344
2026-05-23 16:43:12.117,1438131573,36117,2,0.8606,0.16602,0.13208,-10.695,44.206,10.603
2026-05-23 16:43:12.317,1438131773,36317,1,1.12402,0.20044,-0.11572,-13.962,-55.824,-13.466
2026-05-23 16:43:12.317,1438131773,36317,2,0.89429,0.29077,0.20483,-20.702,-42.389,-6.313
2026-05-23 16:43:13.517,1438132973,36517,1,1.09253,0.12549,-0.11963,15.0,-14.366,4.29
2026-05-23 16:43:13.517,1438132973,36517,2,0.81445,0.23975,0.23486,-60.221,16.962,6.046
2026-05-23 16:43:13.717,1438133173,36717,1,1.07275,0.01465,-0.10596,33.489,16.366,4.023
2026-05-23 16:43:13.717,1438133173,36717,2,1.15918,0.11572,0.30396,-52.435,33.015,51.901
2026-05-23 16:43:13.954,1438133410,36954,1,1.0188,0.10645,0.19385,10.008,23.198,-5.656
2026-05-23 16:43:13.954,1438133410,36954,2,0.96143,0.19019,0.10327,0.595,10.511,10.702
2026-05-23 16:43:13.154,1438132610,37154,1,0.97729,0.12085,0.05737,-33.435,36.947,12.58
2026-05-23 16:43:13.154,1438132610,37154,2,0.96216,0.0354,0.37134,6.298,-29.305,-18.267
2026-05-23 16:43:13.354,1438132810,37354,1,0.55054,0.04199,0.11938,-29.122,40.366,6.084
2026-05-23 16:43:13.354,1438132810,37354,2,0.35156,0.08301,0.20386,-4.443,-48.275,-11.305
2026-05-23 16:43:14.554,1438134010,37554,1,0.79541,0.01367,0.32495,14.435,25.229,9.473
2026-05-23 16:43:14.554,1438134010,37554,2,0.83447,0.2793,0.08691,17.565,-0.053,-0.443
2026-05-23 16:43:14.754,1438134210,37754,1,0.99976,-0.00073,0.44043,15.481,8.794,-0.84
2026-05-23 16:43:14.754,1438134210,37754,2,0.92725,0.23169,-0.07129,5.832,-21.58,3.351
2026-05-23 16:43:14.954,1438134410,37954,1,1.10645,0.07983,0.51172,-7.901,-13.137,-0.45
2026-05-23 16:43:14.954,1438134410,37954,2,0.93506,0.15039,-0.17407,-5.924,25.534,11.145
2026-05-23 16:43:14.154,1438133610,38154,1,1.12598,0.13257,0.36255,-36.466,-32.412,-13.702
2026-05-23 16:43:14.154,1438133610,38154,2,1.01367,0.18311,0.04712,-17.427,44.603,5.71
2026-05-23 16:43:14.354,1438133810,38354,1,1.01343,-0.03198,0.27173,2.382,16.908,-9.351
2026-05-23 16:43:14.354,1438133810,38354,2,0.9751,0.3208,0.104,-1.649,-39.611,19.29
2026-05-23 16:43:15.554,1438135010,38554,1,0.97314,0.04541,0.22534,-7.282,12.611,-11.099
2026-05-23 16:43:15.554,1438135010,38554,2,0.82275,0.04688,-0.0188,-7.031,-52.618,12.237
2026-05-23 16:43:15.754,1438135210,38754,1,0.89551,0.12598,0.40576,-0.74,-1.107,-1.183
2026-05-23 16:43:15.754,1438135210,38754,2,0.87061,0.04126,-0.00415,-2.573,3.618,-3.962
2026-05-23 16:43:15.954,1438135410,38954,1,0.91772,0.05151,0.39722,-0.183,-8.45,3.947
2026-05-23 16:43:15.954,1438135410,38954,2,0.78516,0.13574,-0.07764,-6.885,-10.191,1.481
2026-05-23 16:43:15.154,1438134610,39154,1,0.9292,-0.02759,0.2915,-9.427,-4.832,3.397
2026-05-23 16:43:15.154,1438134610,39154,2,0.90356,0.11865,0.02856,-3.359,7.374,7.26
2026-05-23 16:43:15.354,1438134810,39354,1,1.05615,-0.11646,0.32813,37.298,38.885,-2.183
2026-05-23 16:43:15.354,1438134810,39354,2,1.01782,0.3125,-0.11304,62.939,-15.649,19.618
2026-05-23 16:43:16.554,1438136010,39554,1,0.60742,0.39844,0.33276,48.931,45.405,35.176
2026-05-23 16:43:16.554,1438136010,39554,2,0.48267,-0.28613,0.12012,98.756,-135.405,-58.221
2026-05-23 16:43:16.754,1438136210,39754,1,0.55688,0.30347,0.27466,25.969,-16.817,23.985
2026-05-23 16:43:16.754,1438136210,39754,2,0.51416,-0.27954,-0.15894,-59.374,74.328,7.702
2026-05-23 16:43:16.954,1438136410,39954,1,0.96729,0.32275,0.45337,-48.374,-18.519,18.863
2026-05-23 16:43:16.954,1438136410,39954,2,0.98267,0.33374,0.18408,-62.183,-30.229,-38.45
2026-05-23 16:43:16.154,1438135610,40154,1,0.97534,-0.27881,0.34863,-36.374,3.985,13.321
2026-05-23 16:43:16.154,1438135610,40154,2,0.92334,0.64355,0.01733,-69.221,-52.969,4.588
2026-05-23 16:43:16.354,1438135810,40354,1,0.80493,-0.39746,0.31616,-2.878,13.122,-20.985
2026-05-23 16:43:16.354,1438135810,40354,2,0.68774,0.44653,0.11987,-9.45,-62.214,40.168
2026-05-23 16:43:17.554,1438137010,40554,1,1.08105,-0.13989,0.3147,24.901,-11.023,-29.992
2026-05-23 16:43:17.554,1438137010,40554,2,1.27759,-0.01294,0.0813,81.885,3.84,24.931
2026-05-23 16:43:17.760,1438137216,40760,1,1.12891,0.31909,0.31641,-13.435,-1.397,-1.916
2026-05-23 16:43:17.760,1438137216,40760,2,1.00269,-0.09424,0.00415,27.496,-88.061,11.496
2026-05-23 16:43:17.960,1438137416,40960,1,0.50122,0.17651,0.34058,24.458,15.267,-8.191
2026-05-23 16:43:17.960,1438137416,40960,2,0.51221,-0.17432,0.13232,-46.885,17.855,-25.534
2026-05-23 16:43:17.160,1438136616,41160,1,0.9978,0.11475,0.45679,-35.664,-9.969,-23.305
2026-05-23 16:43:17.160,1438136616,41160,2,1.01611,0.02588,0.07446,-49.947,61.145,38.916
2026-05-23 16:43:17.360,1438136816,41360,1,0.99902,0.10059,0.26538,-36.191,-17.985,3.855
2026-05-23 16:43:17.360,1438136816,41360,2,0.93506,0.25781,-0.02271,-40.321,-105.695,-21.695
2026-05-23 16:43:18.560,1438138016,41560,1,0.91919,-0.02661,0.1709,-16.794,1.412,6.473
2026-05-23 16:43:18.560,1438138016,41560,2,0.80688,0.34741,0.04761,-15.664,5.756,3.656
2026-05-23 16:43:18.760,1438138216,41760,1,1.00244,-0.16382,0.22754,16.534,0.015,26.847
2026-05-23 16:43:18.760,1438138216,41760,2,0.87305,0.14771,-0.04297,8.542,-25.206,2.092
2026-05-23 16:43:18.960,1438138416,41960,1,0.94287,-0.09106,0.28223,6.321,7.832,1.733
2026-05-23 16:43:18.960,1438138416,41960,2,0.85303,0.15918,0.00903,-4.977,20.656,3.733
2026-05-23 16:43:18.160,1438137616,42160,1,0.97339,-0.07349,0.2522,-3.313,2.267,-0.664
2026-05-23 16:43:18.160,1438137616,42160,2,0.87329,0.20313,-0.01367,8.336,-0.069,-2.137
2026-05-23 16:43:18.360,1438137816,42360,1,0.95972,-0.11816,0.3064,-22.076,9.321,-0.031
2026-05-23 16:43:18.360,1438137816,42360,2,0.88232,0.20288,0.00806,-2.115,4.962,-3.321
2026-05-23 16:43:19.560,1438139016,42560,1,0.92529,-0.07666,0.28467,0.679,-2.824,-2.931
2026-05-23 16:43:19.560,1438139016,42560,2,0.83447,0.24316,0.00293,-2.962,7.756,1.939
2026-05-23 16:43:19.760,1438139216,42760,1,0.96582,-0.10059,0.31396,-3.183,-1.397,2.878
2026-05-23 16:43:19.760,1438139216,42760,2,0.85254,0.20581,0.00317,1.466,3.458,-0.42
2026-05-23 16:43:19.960,1438139416,42960,1,0.95557,-0.09595,0.29028,1.855,-0.252,-0.87
2026-05-23 16:43:19.960,1438139416,42960,2,0.86255,0.22339,0.03516,-1.397,2.534,0.809
2026-05-23 16:43:19.160,1438138616,43160,1,0.9519,-0.09912,0.28564,9.84,1.55,0.542
2026-05-23 16:43:19.160,1438138616,43160,2,0.86694,0.18799,0.0249,1.71,7.779,1.649
2026-05-23 16:43:19.360,1438138816,43360,1,1.07617,0.00391,0.24316,33.198,34.466,-11.641
2026-05-23 16:43:19.360,1438138816,43360,2,0.91626,0.08569,0.07471,-12.603,-36.511,10.74
2026-05-23 16:43:20.560,1438140016,43560,1,0.80664,0.08936,0.55518,1.107,11.969,22.137
2026-05-23 16:43:20.560,1438140016,43560,2,0.76294,0.07227,-0.07495,9.084,7.847,-8.168
2026-05-23 16:43:20.760,1438140216,43760,1,0.91162,0.12012,0.36938,29.573,6.931,10.053
2026-05-23 16:43:20.760,1438140216,43760,2,0.93652,0.0835,0.1001,40.924,58.252,-1.664
2026-05-23 16:43:20.960,1438140416,43960,1,0.927,0.13232,0.35742,-21.267,-2.634,-20.221
2026-05-23 16:43:20.960,1438140416,43960,2,0.95776,0.23291,-0.10376,-35.275,15.992,15.603
2026-05-23 16:43:20.160,1438139616,44160,1,0.94922,-0.1123,0.44189,-6.634,8.405,-12.038
2026-05-23 16:43:20.160,1438139616,44160,2,0.85449,0.22363,0.06299,21.008,-60.718,28.748
2026-05-23 16:43:20.360,1438139816,44360,1,0.78784,0.46802,0.3623,14.443,-1.481,13.702
2026-05-23 16:43:20.360,1438139816,44360,2,0.59985,-0.2644,0.34009,10.237,-4.992,-8.29
2026-05-23 16:43:21.560,1438141016,44560,1,0.66919,0.54614,0.29468,11.191,12.038,20.344
2026-05-23 16:43:21.560,1438141016,44560,2,0.7793,-0.03809,0.02856,-18.42,-22.0,-26.489
2026-05-23 16:43:21.760,1438141216,44760,1,0.8833,-0.14355,0.42212,9.824,-5.237,31.977
2026-05-23 16:43:21.760,1438141216,44760,2,0.96411,0.43481,-0.13013,-12.198,-2.191,-27.16
2026-05-23 16:43:21.960,1438141416,44960,1,0.79492,-0.58716,0.52002,6.695,43.695,30.298
2026-05-23 16:43:21.960,1438141416,44960,2,0.69458,0.07056,0.01196,-23.511,-83.092,1.214
2026-05-23 16:43:21.160,1438140616,45160,1,0.76343,-0.17993,0.47632,-63.252,-19.389,-48.092
2026-05-23 16:43:21.160,1438140616,45160,2,0.60181,0.60962,-0.06958,15.649,165.878,6.481
2026-05-23 16:43:21.360,1438140816,45360,1,0.83081,-0.20752,0.40771,-1.779,-26.878,-16.748
2026-05-23 16:43:21.360,1438140816,45360,2,0.99634,0.04175,0.0686,85.481,-35.771,10.702
2026-05-23 16:43:22.560,1438142016,45560,1,0.83813,0.46265,0.33032,25.282,27.015,-34.809
2026-05-23 16:43:22.560,1438142016,45560,2,0.64209,-0.04297,0.0271,18.733,12.679,22.321
2026-05-23 16:43:22.760,1438142216,45760,1,0.82153,0.43066,0.22217,17.588,-27.046,2.023
2026-05-23 16:43:22.760,1438142216,45760,2,1.0293,-0.09888,0.01025,4.74,29.718,-11.351
2026-05-23 16:43:22.960,1438142416,45960,1,0.96216,0.27075,0.25928,20.511,5.115,23.855
2026-05-23 16:43:22.960,1438142416,45960,2,0.95093,0.03687,0.05444,12.763,-39.412,-10.954
2026-05-23 16:43:22.160,1438141616,46160,1,0.86182,0.27515,0.3335,-52.672,-1.87,8.015
2026-05-23 16:43:22.160,1438141616,46160,2,0.7876,-0.02466,0.021,-54.931,-2.542,-24.595
2026-05-23 16:43:22.360,1438141816,46360,1,1.00879,0.04614,0.30444,-47.191,-0.527,6.122
2026-05-23 16:43:22.360,1438141816,46360,2,0.93286,0.36963,0.08374,-33.832,-35.275,-15.053
2026-05-23 16:43:23.560,1438143016,46560,1,0.90039,-0.17163,0.27686,60.611,0.672,32.191
2026-05-23 16:43:23.560,1438143016,46560,2,0.80762,0.27466,-0.08008,48.817,53.412,-7.626
2026-05-23 16:43:23.760,1438143216,46760,1,0.93018,-0.17529,0.31372,-31.427,7.786,-21.603
2026-05-23 16:43:23.760,1438143216,46760,2,0.82935,0.42383,0.11035,-18.664,-36.168,11.168
2026-05-23 16:43:23.960,1438143416,46960,1,0.97144,-0.1731,0.33325,22.405,-3.504,-9.534
2026-05-23 16:43:23.960,1438143416,46960,2,0.91333,0.25366,0.14697,49.473,-14.45,25.664
2026-05-23 16:43:23.160,1438142616,47160,1,0.95532,0.27979,0.31348,-9.366,-8.374,-30.924
2026-05-23 16:43:23.160,1438142616,47160,2,0.86597,-0.12402,-0.07739,33.87,-7.71,30.42
2026-05-23 16:43:23.360,1438142816,47360,1,0.55957,0.39282,0.34204,10.061,8.252,-8.298
2026-05-23 16:43:23.360,1438142816,47360,2,0.79272,-0.22241,0.12256,-33.443,-32.908,-13.16
2026-05-23 16:43:24.560,1438144016,47560,1,1.14526,0.44189,0.32495,-3.763,-11.16,-5.618
2026-05-23 16:43:24.560,1438144016,47560,2,1.18335,0.03369,0.04321,-30.305,111.542,17.847
2026-05-23 16:43:24.760,1438144216,47760,1,0.77222,0.09082,0.16553,-45.58,-12.733,37.748
2026-05-23 16:43:24.760,1438144216,47760,2,0.68726,0.10254,0.15869,-10.748,-113.344,-61.786
2026-05-23 16:43:24.960,1438144416,47960,1,1.29224,-0.01953,0.27368,22.679,-3.55,12.221
2026-05-23 16:43:24.960,1438144416,47960,2,1.05176,0.35376,0.10522,-28.595,109.55,33.595
2026-05-23 16:43:24.160,1438143616,48160,1,0.86865,-0.06665,0.11035,-76.725,-4.84,5.817
2026-05-23 16:43:24.160,1438143616,48160,2,0.54004,0.4502,-0.09619,29.573,-29.611,18.344
2026-05-23 16:43:24.360,1438143816,48360,1,1.23706,0.04297,0.35254,48.214,4.466,13.634
2026-05-23 16:43:24.360,1438143816,48360,2,1.19531,0.19995,-0.03467,37.992,143.557,26.26
2026-05-23 16:43:25.560,1438145016,48560,1,0.85498,0.05591,0.23779,-9.061,-11.71,-19.679
2026-05-23 16:43:25.560,1438145016,48560,2,0.80176,0.13696,0.06274,6.153,-54.809,-30.618
2026-05-23 16:43:25.760,1438145216,48760,1,1.02026,0.11646,0.21436,13.649,1.748,3.092
2026-05-23 16:43:25.760,1438145216,48760,2,0.86816,0.15967,0.0271,20.221,71.092,17.931
2026-05-23 16:43:25.960,1438145416,48960,1,1.01563,0.06934,0.22632,-9.389,3.198,0.412
2026-05-23 16:43:25.960,1438145416,48960,2,0.8938,0.1355,-0.05029,6.794,-31.687,-7.863
2026-05-23 16:43:25.160,1438144616,49160,1,0.96729,0.12964,0.24341,7.076,-8.107,7.267
2026-05-23 16:43:25.160,1438144616,49160,2,0.87354,0.16211,0.02173,-6.573,28.397,-1.794
2026-05-23 16:43:25.360,1438144816,49360,1,1.00513,-0.0022,0.14917,28.443,1.832,0.855
2026-05-23 16:43:25.360,1438144816,49360,2,0.86743,0.1748,-0.0376,-0.878,-4.924,1.473
2026-05-23 16:43:26.560,1438146016,49560,1,0.98584,0.20044,0.33667,6.565,-7.031,11.863
2026-05-23 16:43:26.560,1438146016,49560,2,0.86401,0.10986,-0.01929,-6.359,-4.725,-6.366
2026-05-23 16:43:26.760,1438146216,49760,1,1.04175,-0.03296,0.09082,13.061,-3.504,-12.42
2026-05-23 16:43:26.760,1438146216,49760,2,0.88477,0.21704,0.03345,11.863,19.817,18.29
2026-05-23 16:43:26.960,1438146416,49960,1,1.00317,0.22144,0.19971,4.985,-1.557,8.298
2026-05-23 16:43:26.960,1438146416,49960,2,0.85889,0.01709,-0.00464,-14.702,-22.626,-21.595
2026-05-23 16:43:26.160,1438145616,50160,1,1.00488,0.05444,0.05273,-1.008,7.534,-2.969
2026-05-23 16:43:26.160,1438145616,50160,2,0.88062,0.10278,-0.00415,1.664,33.328,16.695
2026-05-23 16:43:26.360,1438145816,50360,1,1.00098,0.07495,0.18433,-21.756,6.649,-17.71
2026-05-23 16:43:26.360,1438145816,50360,2,0.89209,0.18335,0.02612,-7.58,-10.45,1.595
2026-05-23 16:43:27.560,1438147016,50560,1,0.95703,0.23877,0.20874,34.893,4.832,4.214
2026-05-23 16:43:27.560,1438147016,50560,2,0.92065,0.03418,0.05493,-3.557,19.061,-7.336
2026-05-23 16:43:27.760,1438147216,50760,1,1.01685,0.17847,0.20239,-33.015,2.695,6.931
2026-05-23 16:43:27.760,1438147216,50760,2,0.8689,0.08862,0.02393,-10.206,-6.504,0.336
2026-05-23 16:43:27.960,1438147416,50960,1,1.02173,0.12964,0.1748,-3.618,-6.779,-1.687
2026-05-23 16:43:27.960,1438147416,50960,2,0.88989,0.17163,0.03174,6.321,6.878,1.0
2026-05-23 16:43:27.160,1438146616,51160,1,1.00977,0.10449,0.20215,1.069,5.183,7.053
2026-05-23 16:43:27.160,1438146616,51160,2,0.87329,0.09888,-0.00781,2.397,-17.237,-4.977
2026-05-23 16:43:27.360,1438146816,51360,1,0.99634,0.10742,0.18408,-8.725,1.435,-1.985
2026-05-23 16:43:27.360,1438146816,51360,2,0.87915,0.15967,0.05103,-4.42,15.076,5.611
2026-05-23 16:43:28.560,1438148016,51560,1,1.00586,0.11182,0.19165,0.71,1.824,-0.168
2026-05-23 16:43:28.560,1438148016,51560,2,0.88574,0.13721,0.04224,1.13,-6.733,-0.168
2026-05-23 16:43:28.760,1438148216,51760,1,1.00391,0.104,0.19287,-4.282,-0.641,-0.809
2026-05-23 16:43:28.760,1438148216,51760,2,0.88867,0.15234,0.03687,-4.565,8.893,2.71
2026-05-23 16:43:28.960,1438148416,51960,1,0.99683,0.10962,0.19897,-0.649,0.244,-0.412
2026-05-23 16:43:28.960,1438148416,51960,2,0.89014,0.13672,0.03931,-0.847,2.962,0.679
2026-05-23 16:43:28.191,1438147647,52191,1,0.9939,0.10425,0.18433,-4.0,-0.824,-0.466
2026-05-23 16:43:28.191,1438147647,52191,2,0.89771,0.16138,0.04224,-1.489,0.237,1.634
2026-05-23 16:43:28.391,1438147847,52391,1,0.99609,0.10986,0.20972,-1.29,2.191,-0.031
2026-05-23 16:43:28.391,1438147847,52391,2,0.88013,0.14575,0.04248,2.504,-1.519,1.397
2026-05-23 16:43:29.591,1438149047,52591,1,0.99341,0.10889,0.20898,-1.641,1.817,-1.015
2026-05-23 16:43:29.591,1438149047,52591,2,0.88281,0.14233,0.05151,0.366,-0.122,2.153
2026-05-23 16:43:29.791,1438149247,52791,1,0.99365,0.104,0.20825,-0.298,0.611,-0.588
2026-05-23 16:43:29.791,1438149247,52791,2,0.88477,0.13574,0.03613,0.107,1.656,1.458
2026-05-23 16:43:29.991,1438149447,52991,1,0.99365,0.11035,0.20605,-0.321,0.137,-1.015
2026-05-23 16:43:29.991,1438149447,52991,2,0.89087,0.13086,0.05713,-3.321,1.863,2.397
2026-05-23 16:43:29.191,1438148647,53191,1,0.99341,0.11011,0.18945,-2.305,0.282,-0.153
2026-05-23 16:43:29.191,1438148647,53191,2,0.88672,0.13501,0.03784,-0.023,0.481,1.092
2026-05-23 16:43:29.391,1438148847,53391,1,0.99316,0.10474,0.18628,-2.664,0.878,-0.366
2026-05-23 16:43:29.391,1438148847,53391,2,0.89673,0.1228,0.02954,-1.099,2.557,0.405
2026-05-23 16:43:30.591,1438150047,53591,1,0.99536,0.1123,0.20215,-3.221,-0.603,-0.267
2026-05-23 16:43:30.591,1438150047,53591,2,0.88989,0.13623,0.05347,-2.29,1.878,1.298
2026-05-23 16:43:30.791,1438150247,53791,1,0.99341,0.12305,0.21167,-0.855,0.397,0.137
2026-05-23 16:43:30.791,1438150247,53791,2,0.88794,0.13818,0.04956,0.099,0.718,1.229
2026-05-23 16:43:30.991,1438150447,53991,1,0.98975,0.11279,0.20996,-2.13,0.13,-0.412
2026-05-23 16:43:30.991,1438150447,53991,2,0.89551,0.13916,0.03125,-1.969,2.74,1.313
2026-05-23 16:43:30.191,1438149647,54191,1,1.00806,0.11084,0.21094,-2.015,-0.13,-0.397
2026-05-23 16:43:30.191,1438149647,54191,2,0.89526,0.14136,0.05005,-0.595,-0.168,1.023
2026-05-23 16:43:30.391,1438149847,54391,1,0.99487,0.11304,0.19897,-2.473,0.718,-0.466
2026-05-23 16:43:30.391,1438149847,54391,2,0.88843,0.13647,0.03467,-0.504,1.863,1.122
2026-05-23 16:43:31.591,1438151047,54591,1,0.9939,0.11621,0.20361,-2.374,0.099,-0.153
2026-05-23 16:43:31.591,1438151047,54591,2,0.89355,0.14307,0.06177,-3.366,1.328,1.412
2026-05-23 16:43:31.791,1438151247,54791,1,0.99561,0.10889,0.19971,-1.435,-0.252,-0.214
2026-05-23 16:43:31.791,1438151247,54791,2,0.89404,0.14722,0.05664,-3.359,1.84,1.466
2026-05-23 16:43:31.991,1438151447,54991,1,0.99438,0.11572,0.20313,-1.336,0.336,-0.015
2026-05-23 16:43:31.991,1438151447,54991,2,0.88647,0.1416,0.04736,-0.313,0.076,0.908
2026-05-23 16:43:31.191,1438150647,55191,1,1.00366,0.09888,0.19507,-1.611,0.832,0.313
2026-05-23 16:43:31.191,1438150647,55191,2,0.88672,0.13525,0.05127,0.786,0.626,0.748
2026-05-23 16:43:31.391,1438150847,55391,1,0.97754,0.09985,0.21631,0.595,3.733,0.298
2026-05-23 16:43:31.391,1438150847,55391,2,0.89819,0.14893,0.05322,4.504,1.168,3.115
2026-05-23 16:43:32.591,1438152047,55591,1,0.99194,0.12793,0.20605,3.107,-0.16,-1.87
2026-05-23 16:43:32.591,1438152047,55591,2,0.87793,0.14868,0.0542,1.145,-2.214,1.298
2026-05-23 16:43:32.791,1438152247,55791,1,1.00195,0.10571,0.17603,-12.359,-3.786,1.725
2026-05-23 16:43:32.791,1438152247,55791,2,1.81641,0.22144,-0.03003,-2.817,104.374,-71.962
2026-05-23 16:43:35.614,1438155070,58614,1,0.9165,0.07422,0.03467,-44.008,-15.885,0.664
2026-05-23 16:43:35.614,1438155070,58614,2,0.59131,-0.02026,0.12256,35.481,-49.992,13.336
2026-05-23 16:43:35.814,1438155270,58814,1,1.09253,0.10718,0.0415,19.008,13.618,-12.336
2026-05-23 16:43:35.814,1438155270,58814,2,0.88086,0.10327,0.2478,-8.168,5.71,4.985
2026-05-23 16:43:35.014,1438154470,59014,1,0.59668,-0.07471,0.02466,-16.618,94.924,-27.0
2026-05-23 16:43:35.014,1438154470,59014,2,1.09106,0.15381,0.00659,-69.328,-96.214,28.42
2026-05-23 16:43:35.214,1438154670,59214,1,0.52661,0.07788,0.71069,-0.718,147.252,9.153
2026-05-23 16:43:35.214,1438154670,59214,2,0.81128,-0.13184,-0.14575,7.641,-29.244,16.931
2026-05-23 16:43:35.414,1438154870,59414,1,0.17798,0.04688,0.9458,-12.397,76.855,-13.344
2026-05-23 16:43:35.414,1438154870,59414,2,0.34253,-0.12329,-0.4104,14.603,-38.443,13.802
2026-05-23 16:43:36.614,1438156070,59614,1,0.14575,0.052,0.97876,-18.649,26.45,-9.725
2026-05-23 16:43:36.614,1438156070,59614,2,0.31689,-0.20044,-0.57007,6.046,-35.366,8.282
2026-05-23 16:43:36.814,1438156270,59814,1,-0.01318,0.09521,1.34766,-0.626,-8.962,0.313
2026-05-23 16:43:36.814,1438156270,59814,2,0.24658,-0.08765,-0.42456,-9.45,1.489,4.611
2026-05-23 16:43:36.014,1438155470,60014,1,-0.05249,0.04932,0.77295,-10.641,18.588,9.786
2026-05-23 16:43:36.014,1438155470,60014,2,0.08765,-0.11133,-0.48535,-4.855,-4.588,-9.328
2026-05-23 16:43:36.214,1438155670,60214,1,-0.07544,-0.0293,0.97949,-4.588,-21.786,17.221
2026-05-23 16:43:36.214,1438155670,60214,2,0.34448,-0.03882,-0.55347,4.084,60.916,-26.832
2026-05-23 16:43:36.414,1438155870,60414,1,0.16895,0.02905,0.95898,14.389,-36.275,15.107
2026-05-23 16:43:36.414,1438155870,60414,2,0.43262,-0.14551,-0.38257,-12.015,49.588,-14.45
2026-05-23 16:43:37.614,1438157070,60614,1,0.37671,0.07886,0.84399,1.527,-37.977,9.527
2026-05-23 16:43:37.614,1438157070,60614,2,0.69336,0.00732,-0.27783,-13.786,59.26,-5.924
2026-05-23 16:43:37.814,1438157270,60814,1,0.47266,0.05005,0.74585,2.58,-41.947,-1.046
2026-05-23 16:43:37.814,1438157270,60814,2,0.64209,0.03491,-0.15845,-0.71,32.626,2.794
2026-05-23 16:43:37.014,1438156470,61014,1,0.19043,-0.0437,0.00244,-55.733,-3.977,-6.405
2026-05-23 16:43:37.014,1438156470,61014,2,-0.10645,-0.00269,0.43115,-2.359,-74.0,13.511
2026-05-23 16:43:37.214,1438156670,61214,1,0.70313,0.18701,0.83398,3.565,-18.962,6.397
2026-05-23 16:43:37.214,1438156670,61214,2,0.85425,-0.14648,-0.34863,-51.84,45.26,-10.534
2026-05-23 16:43:37.414,1438156870,61414,1,0.89844,0.17529,0.59521,-9.496,-58.588,1.878
2026-05-23 16:43:37.414,1438156870,61414,2,0.96191,0.0105,-0.27783,-16.756,31.382,10.649
2026-05-23 16:43:38.652,1438158108,61652,1,1.11523,0.23047,0.51294,0.053,-28.992,0.618
2026-05-23 16:43:38.652,1438158108,61652,2,0.86182,0.07959,-0.35083,-29.794,-31.397,-0.74
2026-05-23 16:43:38.852,1438158308,61852,1,1.01538,0.18994,0.21216,-20.076,-7.527,6.038
2026-05-23 16:43:38.852,1438158308,61852,2,0.85791,-0.00854,-0.05127,-20.626,8.305,0.45
2026-05-23 16:43:38.052,1438157508,62052,1,1.01172,0.04956,0.25269,15.74,-3.023,12.908
2026-05-23 16:43:38.052,1438157508,62052,2,0.89185,0.0874,-0.02759,18.466,-10.435,3.634
2026-05-23 16:43:38.252,1438157708,62252,1,0.91748,0.13818,0.34082,-16.008,3.962,-18.786
2026-05-23 16:43:38.252,1438157708,62252,2,0.92676,0.04761,0.07178,-23.023,30.58,-15.359
2026-05-23 16:43:38.452,1438157908,62452,1,0.90088,0.12256,0.32324,-19.046,-12.237,-22.779
2026-05-23 16:43:38.452,1438157908,62452,2,0.83618,0.25854,0.03589,-16.847,20.603,16.214
2026-05-23 16:43:39.652,1438159108,62652,1,0.93188,0.18359,0.33936,26.191,6.023,22.565
2026-05-23 16:43:39.652,1438159108,62652,2,0.8418,0.10718,0.02661,9.038,-28.275,-4.221
2026-05-23 16:43:39.852,1438159308,62852,1,0.979,0.1665,0.3125,-12.962,4.84,-5.985
2026-05-23 16:43:39.852,1438159308,62852,2,0.76587,0.00244,-0.12061,-6.802,-22.351,9.168
2026-05-23 16:43:39.052,1438158508,63052,1,0.94946,0.10571,0.29907,-33.427,-7.252,-9.145
2026-05-23 16:43:39.052,1438158508,63052,2,0.77319,0.20801,-0.05688,7.634,21.374,3.137
2026-05-23 16:43:39.252,1438158708,63252,1,0.91821,0.12598,0.25244,25.115,-1.763,17.611
2026-05-23 16:43:39.252,1438158708,63252,2,0.84106,0.12549,-0.00269,13.107,-4.763,-0.939
2026-05-23 16:43:39.452,1438158908,63452,1,0.98315,0.11426,0.30273,-2.359,1.939,4.962
2026-05-23 16:43:39.452,1438158908,63452,2,0.83301,0.01587,-0.10693,-5.977,14.992,4.26
2026-05-23 16:43:40.652,1438160108,63652,1,0.94385,0.14502,0.27734,-7.687,2.321,-7.389
2026-05-23 16:43:40.652,1438160108,63652,2,0.8418,0.08008,-0.08154,-2.076,-12.916,0.176
2026-05-23 16:43:40.852,1438160308,63852,1,0.94141,0.08667,0.30566,-7.206,-0.542,-0.847
2026-05-23 16:43:40.852,1438160308,63852,2,0.81763,0.10498,-0.08081,-1.603,10.786,2.16
2026-05-23 16:43:40.052,1438159508,64052,1,0.95361,0.11499,0.29858,-2.229,-0.702,0.489
2026-05-23 16:43:40.052,1438159508,64052,2,0.85059,0.0918,-0.05884,-1.725,-5.504,-0.557
2026-05-23 16:43:40.252,1438159708,64252,1,0.9541,0.1123,0.26953,-1.382,-1.382,-0.603
2026-05-23 16:43:40.252,1438159708,64252,2,0.84351,0.08716,-0.06445,-2.985,9.473,1.198
2026-05-23 16:43:40.452,1438159908,64452,1,0.96094,0.10498,0.28052,-0.947,-0.45,-0.344
2026-05-23 16:43:40.452,1438159908,64452,2,0.84082,0.10132,-0.06006,-1.115,-4.252,0.718
2026-05-23 16:43:41.652,1438161108,64652,1,0.96094,0.10156,0.29736,-1.382,-0.634,0.099
2026-05-23 16:43:41.652,1438161108,64652,2,0.84033,0.08496,-0.06104,-2.58,6.802,2.702
2026-05-23 16:43:41.852,1438161308,64852,1,0.96704,0.12329,0.26099,3.282,1.237,-4.198
2026-05-23 16:43:41.852,1438161308,64852,2,0.84253,0.1123,-0.08203,-4.336,-5.534,-4.244
2026-05-23 16:43:41.052,1438160508,65052,1,1.08276,0.09863,0.31714,-1.863,20.649,3.695
2026-05-23 16:43:41.052,1438160508,65052,2,1.06665,0.24463,-0.22339,29.359,-0.595,13.55
2026-05-23 16:43:41.252,1438160708,65252,1,0.9895,0.16479,0.4834,8.832,64.137,12.71
2026-05-23 16:43:41.252,1438160708,65252,2,0.5791,-0.08105,-0.29541,17.427,-54.603,-5.321
2026-05-23 16:43:41.452,1438160908,65452,1,0.68701,-0.01416,0.66382,-8.237,62.55,-7.458
2026-05-23 16:43:41.452,1438160908,65452,2,0.5293,0.01172,-0.34277,17.473,24.588,8.718
2026-05-23 16:43:42.652,1438162108,65652,1,0.55664,0.13965,0.82983,-3.198,25.771,0.137
2026-05-23 16:43:42.652,1438162108,65652,2,0.57861,-0.06128,-0.37451,13.466,45.458,-7.534
2026-05-23 16:43:42.852,1438162308,65852,1,0.53467,0.16406,0.73755,-2.802,-47.809,1.656
2026-05-23 16:43:42.852,1438162308,65852,2,0.48193,-0.0708,0.12207,-30.634,69.809,-25.466
2026-05-23 16:43:42.052,1438161508,66052,1,0.25171,-0.09033,0.11523,-50.634,-154.275,-3.626
2026-05-23 16:43:42.052,1438161508,66052,2,0.88306,0.12744,-0.18701,-12.473,102.046,-29.282
2026-05-23 16:43:42.252,1438161708,66252,1,1.00244,-0.00684,-0.06665,-8.504,-44.672,-16.939
2026-05-23 16:43:42.252,1438161708,66252,2,1.09424,0.34741,0.12476,-83.168,141.145,20.198
2026-05-23 16:43:42.452,1438161908,66452,1,1.03906,0.09424,0.00854,8.092,14.008,-6.641
2026-05-23 16:43:42.452,1438161908,66452,2,1.06104,0.24683,-0.19873,-58.29,24.748,-3.954
2026-05-23 16:43:43.652,1438163108,66652,1,0.64258,0.03394,0.16602,-1.191,55.351,-2.275
2026-05-23 16:43:43.652,1438163108,66652,2,0.56616,0.17358,0.06812,-75.107,5.817,44.427
2026-05-23 16:43:43.852,1438163308,66852,1,0.98877,0.11133,0.30176,-1.351,2.145,5.122
2026-05-23 16:43:43.852,1438163308,66852,2,0.84131,0.16724,-0.04443,-3.969,-6.084,-12.397
2026-05-23 16:43:43.052,1438162508,67052,1,1.01123,0.10107,0.40552,5.985,-2.786,5.664
2026-05-23 16:43:43.052,1438162508,67052,2,0.84888,0.19556,-0.12598,-7.695,16.023,-2.588
2026-05-23 16:43:43.252,1438162708,67252,1,1.14111,0.1709,0.44287,-4.298,-12.702,6.672
2026-05-23 16:43:43.252,1438162708,67252,2,1.06152,0.11182,-0.16846,-15.382,-19.435,9.573
2026-05-23 16:43:43.452,1438162908,67452,1,1.16382,0.26147,0.40332,-5.282,3.695,9.107
2026-05-23 16:43:43.452,1438162908,67452,2,0.76563,0.29248,-0.24731,-19.366,-18.863,-26.153
2026-05-23 16:43:44.652,1438164108,67652,1,0.95703,0.00122,0.27954,-3.786,8.45,17.489
2026-05-23 16:43:44.652,1438164108,67652,2,0.78809,0.18677,-0.07935,-2.389,-45.397,-6.756
2026-05-23 16:43:44.852,1438164308,67852,1,0.93921,0.01196,0.33936,3.565,-2.84,-12.519
2026-05-23 16:43:44.852,1438164308,67852,2,0.70532,0.1394,-0.2002,-11.695,13.855,15.45
2026-05-23 16:43:44.052,1438163508,68052,1,0.9707,0.0293,0.3667,-3.153,-6.687,-11.29
2026-05-23 16:43:44.052,1438163508,68052,2,0.78174,0.16821,-0.14795,-8.855,-19.641,21.458
2026-05-23 16:43:44.252,1438163708,68252,1,0.88428,0.13184,0.24487,2.534,2.069,6.634
2026-05-23 16:43:44.252,1438163708,68252,2,0.71826,0.20679,-0.11499,11.359,0.267,6.42
2026-05-23 16:43:44.452,1438163908,68452,1,1.00098,0.07007,0.28784,10.313,4.618,-0.916
2026-05-23 16:43:44.452,1438163908,68452,2,0.77954,0.06421,-0.16553,-10.412,-8.695,8.137
2026-05-23 16:43:45.652,1438165108,68652,1,1.03687,0.00122,0.21021,-12.817,-5.076,-13.427
2026-05-23 16:43:45.652,1438165108,68652,2,0.76685,0.17456,-0.16016,2.221,19.58,14.0
2026-05-23 16:43:45.852,1438165308,68852,1,0.95752,0.09961,0.24756,4.924,0.771,-0.664
2026-05-23 16:43:45.852,1438165308,68852,2,0.78174,0.13477,-0.11865,0.962,-7.84,3.13
2026-05-23 16:43:45.052,1438164508,69052,1,0.948,0.17432,0.2688,2.267,2.198,0.725
2026-05-23 16:43:45.052,1438164508,69052,2,0.80249,0.1604,-0.14331,-8.931,5.756,4.229
2026-05-23 16:43:45.296,1438164752,69296,1,0.96582,0.1189,0.26929,-6.863,-0.786,-1.061
2026-05-23 16:43:45.296,1438164752,69296,2,0.78833,0.14746,-0.11719,-1.489,4.359,-0.573
2026-05-23 16:43:45.496,1438164952,69496,1,0.96704,0.09229,0.26587,0.603,0.641,1.603
2026-05-23 16:43:45.496,1438164952,69496,2,0.81274,0.1311,-0.10962,-1.321,-2.053,0.947
2026-05-23 16:43:46.696,1438166152,69696,1,0.97754,0.09106,0.26855,-0.519,-0.695,-0.931
2026-05-23 16:43:46.696,1438166152,69696,2,0.79248,0.15479,-0.12524,0.092,1.969,2.366
2026-05-23 16:43:46.896,1438166352,69896,1,0.96411,0.09741,0.27075,-0.153,0.031,-1.0
2026-05-23 16:43:46.896,1438166352,69896,2,0.80493,0.14404,-0.1189,-0.855,-1.802,1.794
2026-05-23 16:43:46.096,1438165552,70096,1,0.9751,0.10986,0.24756,-0.42,1.183,-0.618
2026-05-23 16:43:46.096,1438165552,70096,2,0.80127,0.1377,-0.11279,-0.603,-1.534,0.458
2026-05-23 16:43:46.296,1438165752,70296,1,1.06567,0.11816,0.27002,7.542,46.824,-2.58
2026-05-23 16:43:46.296,1438165752,70296,2,1.26416,0.29761,-0.54468,34.725,33.931,12.611
2026-05-23 16:43:46.496,1438165952,70496,1,0.55322,0.16089,0.60962,-23.74,114.061,5.13
2026-05-23 16:43:46.496,1438165952,70496,2,0.67358,0.02588,-0.1272,35.069,-245.26,-14.321
2026-05-23 16:43:47.696,1438167152,70696,1,0.38794,0.02515,0.73779,-20.557,64.313,24.115
2026-05-23 16:43:47.696,1438167152,70696,2,0.35132,-0.08936,-0.46899,31.702,55.626,-4.763
2026-05-23 16:43:47.896,1438167352,70896,1,0.23389,-0.11743,0.62793,-9.092,47.779,2.916
2026-05-23 16:43:47.896,1438167352,70896,2,-0.20654,-0.14526,-0.28442,2.786,-114.061,21.267
2026-05-23 16:43:47.096,1438166552,71096,1,0.29053,-0.01172,0.82959,-19.214,-30.832,-30.107
2026-05-23 16:43:47.096,1438166552,71096,2,0.77563,0.47363,0.44116,-14.008,-5.206,-8.344
2026-05-23 16:43:47.296,1438166752,71296,1,0.29565,-0.05249,0.71631,2.504,-78.336,-4.328
2026-05-23 16:43:47.296,1438166752,71296,2,0.43091,0.01001,-0.33862,-0.916,80.122,5.908
2026-05-23 16:43:47.496,1438166952,71496,1,0.51001,0.04053,0.70313,-10.023,-83.305,-29.557
2026-05-23 16:43:47.496,1438166952,71496,2,0.60278,0.13696,-0.06128,-13.084,74.198,-5.16
2026-05-23 16:43:48.696,1438168152,71696,1,0.82764,0.07324,0.26074,-25.702,-124.634,-26.359
2026-05-23 16:43:48.696,1438168152,71696,2,0.82178,0.26538,0.19482,-18.802,50.061,-17.496
2026-05-23 16:43:48.896,1438168352,71896,1,1.05005,-0.05981,-0.10425,-32.458,-42.733,-7.115
2026-05-23 16:43:48.896,1438168352,71896,2,0.99756,0.08618,0.198,7.206,43.412,-6.901
2026-05-23 16:43:48.096,1438167552,72096,1,1.10132,0.14429,-0.12305,-3.74,30.473,2.298
2026-05-23 16:43:48.096,1438167552,72096,2,1.0083,0.10522,0.21753,8.534,-39.649,11.328
2026-05-23 16:43:48.296,1438167752,72296,1,0.69263,-0.03613,0.38501,17.588,124.015,2.344
2026-05-23 16:43:48.296,1438167752,72296,2,0.7229,0.07349,-0.18848,47.198,-98.076,12.527
2026-05-23 16:43:48.496,1438167952,72496,1,0.31055,-0.06812,0.91284,-12.527,105.901,7.206
2026-05-23 16:43:48.496,1438167952,72496,2,0.48706,-0.00684,-0.31445,-8.099,-81.305,6.282
2026-05-23 16:43:49.696,1438169152,72696,1,0.1875,-0.03027,0.86499,-2.275,35.153,-15.947
2026-05-23 16:43:49.696,1438169152,72696,2,0.12622,0.03906,-0.22656,-7.748,-32.824,17.053
2026-05-23 16:43:49.896,1438169352,72896,1,0.31006,-0.01685,0.8269,8.74,-29.237,7.656
2026-05-23 16:43:49.896,1438169352,72896,2,0.7312,-0.00391,-0.32031,0.458,86.702,-23.053
2026-05-23 16:43:49.096,1438168552,73096,1,0.49292,-0.04907,0.80469,6.565,-64.58,2.924
2026-05-23 16:43:49.096,1438168552,73096,2,0.89624,-0.021,-0.13232,-10.878,32.458,-5.733
2026-05-23 16:43:49.296,1438168752,73296,1,0.68433,0.09399,0.75952,19.16,-66.611,-8.183
2026-05-23 16:43:49.296,1438168752,73296,2,0.948,0.11426,-0.29419,-11.687,100.511,-3.244
2026-05-23 16:43:49.496,1438168952,73496,1,0.90479,0.16748,0.57275,13.282,-60.74,4.397
2026-05-23 16:43:49.496,1438168952,73496,2,1.01099,0.16406,-0.30835,-32.71,-59.611,21.458
2026-05-23 16:43:50.696,1438170152,73696,1,0.94702,0.07764,0.26489,-5.26,-16.672,22.802
2026-05-23 16:43:50.696,1438170152,73696,2,0.81421,0.12305,-0.02295,18.076,-60.374,6.206
2026-05-23 16:43:50.896,1438170352,73896,1,1.12646,0.09155,0.22559,7.695,-13.924,-8.527
2026-05-23 16:43:50.896,1438170352,73896,2,1.01196,0.12256,-0.10034,-3.046,53.855,-6.794
2026-05-23 16:43:50.096,1438169552,74096,1,0.84277,0.10938,0.26489,-11.771,4.534,-8.985
2026-05-23 16:43:50.096,1438169552,74096,2,0.77148,0.11426,-0.02588,2.779,-50.443,-8.321
2026-05-23 16:43:50.296,1438169752,74296,1,1.00879,0.13306,0.29468,-1.885,9.962,1.588
2026-05-23 16:43:50.296,1438169752,74296,2,0.83325,0.09985,-0.0686,-3.42,36.885,9.305
2026-05-23 16:43:50.496,1438169952,74496,1,0.96143,0.12231,0.31543,-17.099,-0.168,-2.954
2026-05-23 16:43:50.496,1438169952,74496,2,0.82446,0.11353,-0.125,-9.489,-7.664,-6.076
2026-05-23 16:43:51.696,1438171152,74696,1,0.91846,0.09863,0.3147,-3.748,4.023,-3.389
2026-05-23 16:43:51.696,1438171152,74696,2,0.83643,0.15771,-0.03076,-0.954,-1.458,-2.084
2026-05-23 16:43:51.896,1438171352,74896,1,0.94971,0.10693,0.32129,1.099,-0.214,2.267
2026-05-23 16:43:51.896,1438171352,74896,2,0.8252,0.12402,-0.08862,-3.16,9.58,0.405
2026-05-23 16:43:51.096,1438170552,75096,1,0.94214,0.08862,0.32373,-7.412,-1.061,-0.344
2026-05-23 16:43:51.096,1438170552,75096,2,0.83081,0.14722,-0.0564,-3.29,-1.977,-0.244
2026-05-23 16:43:51.296,1438170752,75296,1,0.95264,0.08521,0.32153,-0.649,1.649,2.023
2026-05-23 16:43:51.296,1438170752,75296,2,0.83984,0.15967,-0.05322,-1.802,7.008,0.771
2026-05-23 16:43:51.496,1438170952,75496,1,0.93555,0.0896,0.31738,-3.008,1.321,0.58
2026-05-23 16:43:51.496,1438170952,75496,2,0.83789,0.15234,-0.05029,-2.153,-2.26,0.565
2026-05-23 16:43:52.696,1438172152,75696,1,0.95142,0.08789,0.32666,-1.0,0.191,-0.809
2026-05-23 16:43:52.696,1438172152,75696,2,0.83496,0.14746,-0.06104,-0.038,0.702,0.947
2026-05-23 16:43:52.896,1438172352,75896,1,0.94287,0.09375,0.31396,-2.198,0.298,-1.786
2026-05-23 16:43:52.896,1438172352,75896,2,0.84009,0.14111,-0.05298,-0.916,1.893,1.038
2026-05-23 16:43:52.096,1438171552,76096,1,0.94458,0.10156,0.31592,-0.221,-0.756,-0.908
2026-05-23 16:43:52.096,1438171552,76096,2,0.83984,0.15112,-0.06982,-2.443,1.649,1.817
2026-05-23 16:43:52.296,1438171752,76296,1,0.94092,0.11182,0.2981,-2.229,-0.061,-0.649
2026-05-23 16:43:52.296,1438171752,76296,2,0.83545,0.13916,-0.05981,-0.84,1.817,1.611
2026-05-23 16:43:52.496,1438171952,76496,1,0.93774,0.11108,0.31519,-1.267,0.771,-0.519
2026-05-23 16:43:52.496,1438171952,76496,2,0.84106,0.15308,-0.05933,-3.771,4.099,1.832
2026-05-23 16:43:53.696,1438173152,76696,1,0.9458,0.11426,0.32056,-0.832,2.519,-0.534
2026-05-23 16:43:53.696,1438173152,76696,2,0.85132,0.13965,-0.04614,1.794,-1.084,3.053
2026-05-23 16:43:53.896,1438173352,76896,1,0.97241,0.12817,0.28369,-3.405,9.908,-1.183
2026-05-23 16:43:53.896,1438173352,76896,2,0.86816,0.1377,-0.06152,-5.954,-2.74,3.397
2026-05-23 16:43:53.096,1438172552,77096,1,1.33862,0.13794,0.31909,1.901,29.878,-2.099
2026-05-23 16:43:53.096,1438172552,77096,2,1.5498,0.23315,-0.55688,105.603,0.756,8.977
2026-05-23 16:43:53.296,1438172752,77296,1,0.55786,0.16309,0.93481,-9.084,63.214,-4.298
2026-05-23 16:43:53.296,1438172752,77296,2,0.33789,0.00732,-0.48999,13.023,-195.092,-30.13
2026-05-23 16:43:53.496,1438172952,77496,1,0.54053,0.06714,0.65332,-9.527,26.969,15.16
2026-05-23 16:43:53.496,1438172952,77496,2,0.55078,-0.01221,-0.3269,33.557,64.947,-10.092
2026-05-23 16:43:54.696,1438174152,77696,1,0.20825,0.04468,1.03052,-8.954,64.26,18.786
2026-05-23 16:43:54.696,1438174152,77696,2,0.15088,-0.10474,-0.23779,-13.412,7.855,-14.267
2026-05-23 16:43:54.896,1438174352,77896,1,0.56567,-0.14722,0.70093,-19.931,-59.046,-0.321
2026-05-23 16:43:54.896,1438174352,77896,2,0.33252,0.01611,0.08228,-36.74,152.794,-4.359
2026-05-23 16:43:54.096,1438173552,78096,1,0.9541,0.03735,0.61987,48.771,-136.397,-34.26
2026-05-23 16:43:54.096,1438173552,78096,2,1.14111,-0.00146,0.2168,-52.267,120.305,-18.237
2026-05-23 16:43:54.296,1438173752,78296,1,0.93481,-0.00903,0.02808,56.893,-67.13,-11.847
2026-05-23 16:43:54.296,1438173752,78296,2,1.01807,0.09131,0.12573,-21.603,20.924,-7.183
2026-05-23 16:43:54.496,1438173952,78496,1,1.0835,0.05176,-0.01733,11.107,13.527,-0.115
2026-05-23 16:43:54.496,1438173952,78496,2,0.89282,0.1626,0.04443,10.0,-18.282,-3.893
2026-05-23 16:43:55.696,1438175152,78696,1,0.76489,0.06079,-0.07251,5.687,9.756,-15.679
2026-05-23 16:43:55.696,1438175152,78696,2,0.62988,0.14014,0.01196,-29.832,-3.198,23.504
2026-05-23 16:43:55.896,1438175352,78896,1,0.96753,0.02856,0.37085,-6.137,13.802,2.053
2026-05-23 16:43:55.896,1438175352,78896,2,0.95435,0.09326,-0.02612,-0.878,-28.672,3.099
2026-05-23 16:43:55.096,1438174552,79096,1,0.99585,0.11084,0.39722,-18.511,9.496,5.053
2026-05-23 16:43:55.096,1438174552,79096,2,0.92407,0.14893,-0.16699,-13.496,-37.702,21.786
2026-05-23 16:43:55.296,1438174752,79296,1,1.00659,0.07373,0.46118,-2.061,-0.672,-22.473
2026-05-23 16:43:55.296,1438174752,79296,2,0.79395,0.13135,-0.28516,-11.534,-78.649,6.71
2026-05-23 16:43:55.496,1438174952,79496,1,1.07251,-0.02319,0.33765,-5.977,-18.046,-8.214
2026-05-23 16:43:55.496,1438174952,79496,2,0.81396,0.32788,-0.30981,-3.641,89.817,13.076
2026-05-23 16:43:56.696,1438176152,79696,1,0.90796,0.03613,0.43726,-11.664,-6.954,12.763
2026-05-23 16:43:56.696,1438176152,79696,2,0.76636,0.13794,-0.1333,-10.496,-20.939,-12.13
2026-05-23 16:43:56.896,1438176352,79896,1,0.98706,0.06177,0.21045,13.985,-5.565,0.672
2026-05-23 16:43:56.896,1438176352,79896,2,0.78613,0.23706,-0.19238,17.931,56.336,11.893
2026-05-23 16:43:56.096,1438175552,80096,1,0.94092,0.08325,0.32251,33.344,9.389,16.687
2026-05-23 16:43:56.096,1438175552,80096,2,0.82837,0.14453,-0.20142,20.771,-28.626,-11.55
2026-05-23 16:43:56.296,1438175752,80296,1,0.89673,0.05518,0.2937,2.794,21.321,-4.603
2026-05-23 16:43:56.296,1438175752,80296,2,0.71338,0.08887,-0.09448,26.954,7.809,1.282
2026-05-23 16:43:56.496,1438175952,80496,1,1.00537,0.21924,0.32886,-4.229,-2.557,-7.26
2026-05-23 16:43:56.496,1438175952,80496,2,0.78271,0.21948,-0.09619,-9.687,-6.878,-6.985
2026-05-23 16:43:57.696,1438177152,80696,1,0.90308,0.06885,0.29175,-3.069,0.137,1.107
2026-05-23 16:43:57.696,1438177152,80696,2,0.75317,0.14453,-0.146,-1.42,-18.908,-0.351
2026-05-23 16:43:57.896,1438177352,80896,1,0.94775,0.1438,0.32617,-11.137,2.382,-3.977
2026-05-23 16:43:57.896,1438177352,80896,2,0.82446,0.14844,-0.08667,-4.374,3.366,3.557
2026-05-23 16:43:57.096,1438176552,81096,1,0.93799,0.11499,0.33057,-5.122,5.145,2.076
2026-05-23 16:43:57.096,1438176552,81096,2,0.80737,0.15991,-0.11157,-7.55,0.031,1.58
2026-05-23 16:43:57.296,1438176752,81296,1,0.94092,0.10083,0.3125,-10.702,-0.16,-3.267
2026-05-23 16:43:57.296,1438176752,81296,2,0.82324,0.1665,-0.08862,2.519,3.42,2.122
2026-05-23 16:43:57.496,1438176952,81496,1,0.92773,0.09253,0.34106,3.588,2.115,-2.26
2026-05-23 16:43:57.496,1438176952,81496,2,0.78833,0.14771,-0.09131,-1.496,2.786,2.305
2026-05-23 16:43:58.696,1438178152,81696,1,0.93091,0.1272,0.34106,2.511,1.13,-0.45
2026-05-23 16:43:58.696,1438178152,81696,2,0.82397,0.15015,-0.08765,0.214,0.351,0.802
2026-05-23 16:43:58.896,1438178352,81896,1,0.93115,0.12256,0.33984,-2.084,-1.336,-1.481
2026-05-23 16:43:58.896,1438178352,81896,2,0.8186,0.17236,-0.09351,-5.695,4.626,3.977
2026-05-23 16:43:58.096,1438177552,82096,1,0.94507,0.12842,0.31152,-3.069,-1.16,-1.076
2026-05-23 16:43:58.096,1438177552,82096,2,0.8291,0.15259,-0.08252,2.756,-5.115,1.153
2026-05-23 16:43:58.296,1438177752,82296,1,0.92676,0.13159,0.33228,-1.45,-0.405,-1.069
2026-05-23 16:43:58.296,1438177752,82296,2,0.80859,0.13574,-0.09595,0.962,4.435,2.534
2026-05-23 16:43:58.496,1438177952,82496,1,0.93921,0.12598,0.32983,-1.45,0.412,-0.008
2026-05-23 16:43:58.496,1438177952,82496,2,0.80542,0.13696,-0.12598,-0.344,-3.656,0.817
2026-05-23 16:43:59.696,1438179152,82696,1,1.00562,0.125,0.22485,-6.038,9.023,-2.435
2026-05-23 16:43:59.696,1438179152,82696,2,1.00073,0.20654,-0.25635,6.718,19.496,1.504
2026-05-23 16:43:59.896,1438179352,82896,1,0.83667,0.18701,0.65552,-10.084,95.511,3.985
2026-05-23 16:43:59.896,1438179352,82896,2,0.77417,0.03149,-0.29199,19.771,-224.664,12.282
2026-05-23 16:43:59.096,1438178552,83096,1,0.37207,0.10474,0.73218,-44.389,71.878,25.893
2026-05-23 16:43:59.096,1438178552,83096,2,0.24609,-0.02026,-0.34106,14.855,18.366,-11.26
2026-05-23 16:43:59.296,1438178752,83296,1,0.26245,0.01611,0.52686,-11.412,43.733,6.672
2026-05-23 16:43:59.296,1438178752,83296,2,0.05151,-0.04175,-0.18262,-14.641,-78.405,1.466
2026-05-23 16:43:59.496,1438178952,83496,1,0.53296,0.07446,0.85986,-1.855,-28.305,-6.321
2026-05-23 16:43:59.496,1438178952,83496,2,0.57617,-0.021,-0.59253,-8.679,39.939,4.649
2026-05-23 16:44:00.696,1438180152,83696,1,0.43433,0.03174,0.98218,-17.145,-21.863,3.557
2026-05-23 16:44:00.696,1438180152,83696,2,0.48413,-0.08154,-0.22607,-33.885,60.015,-1.939
2026-05-23 16:44:00.896,1438180352,83896,1,0.45361,-0.05859,0.61182,-13.168,-98.939,-7.985
2026-05-23 16:44:00.896,1438180352,83896,2,0.72559,0.10889,0.20874,-26.748,150.656,-15.252
2026-05-23 16:44:00.096,1438179552,84096,1,0.9541,0.0542,0.10938,18.023,-115.443,-42.916
2026-05-23 16:44:00.096,1438179552,84096,2,1.18335,0.25513,0.07007,-8.679,17.718,-28.687
2026-05-23 16:44:00.296,1438179752,84296,1,1.23169,0.09448,0.00122,-0.649,-37.366,-11.084
2026-05-23 16:44:00.296,1438179752,84296,2,0.85693,0.10474,0.08618,10.252,-6.397,-6.794
2026-05-23 16:44:00.496,1438179952,84496,1,0.57446,0.12036,0.0271,-22.718,32.031,3.366
2026-05-23 16:44:00.496,1438179952,84496,2,0.3374,-0.06006,0.09741,-5.244,-126.763,13.725
2026-05-23 16:44:01.696,1438181152,84696,1,0.67651,0.02368,0.22876,-5.947,45.817,13.45
2026-05-23 16:44:01.696,1438181152,84696,2,0.77954,-0.05054,-0.15845,1.305,-50.321,11.42
2026-05-23 16:44:01.896,1438181352,84896,1,0.91675,0.04028,0.23315,-4.137,0.382,3.626
2026-05-23 16:44:01.896,1438181352,84896,2,0.85107,0.20215,-0.12183,-5.969,-32.847,10.137
2026-05-23 16:44:01.096,1438180552,85096,1,1.13818,0.09131,0.52173,-0.435,-5.053,-3.863
2026-05-23 16:44:01.096,1438180552,85096,2,0.9917,0.28247,-0.14526,-13.496,18.626,0.725
2026-05-23 16:44:01.296,1438180752,85296,1,1.11426,0.04443,0.36304,12.137,-11.939,-3.26
2026-05-23 16:44:01.296,1438180752,85296,2,0.87598,0.27222,-0.30518,-2.145,-42.076,13.641
2026-05-23 16:44:01.496,1438180952,85496,1,1.04395,0.11475,0.2959,-3.092,-2.137,-4.359
2026-05-23 16:44:01.496,1438180952,85496,2,0.91626,0.15503,-0.18774,-30.756,44.412,27.504
2026-05-23 16:44:02.696,1438182152,85696,1,0.93237,0.07983,0.18652,-5.389,0.962,-5.015
2026-05-23 16:44:02.696,1438182152,85696,2,0.7522,0.17285,-0.1123,-20.351,-41.298,-2.855
2026-05-23 16:44:02.896,1438182352,85896,1,1.07275,0.09302,0.28076,2.534,5.733,-7.863
2026-05-23 16:44:02.896,1438182352,85896,2,0.93896,0.19946,-0.09131,-5.786,112.695,5.427
2026-05-23 16:44:02.096,1438181552,86096,1,0.85938,0.05762,0.24487,-27.176,-0.328,-9.527
2026-05-23 16:44:02.096,1438181552,86096,2,0.7041,0.1333,-0.07837,0.198,-62.412,-20.969
2026-05-23 16:44:02.326,1438181782,86326,1,0.97949,0.11328,0.20313,4.13,-9.336,-1.664
2026-05-23 16:44:02.326,1438181782,86326,2,0.85205,0.21973,-0.04565,-9.511,52.023,28.336
2026-05-23 16:44:03.526,1438182982,86526,1,1.01953,0.13086,0.23242,7.069,9.351,13.038
2026-05-23 16:44:03.526,1438182982,86526,2,0.81421,0.13623,-0.11084,16.443,-23.649,-14.084
2026-05-23 16:44:03.726,1438183182,86726,1,0.96118,0.11133,0.26758,3.115,3.992,2.191
2026-05-23 16:44:03.726,1438183182,86726,2,0.76367,0.16406,-0.17847,-3.107,13.725,1.282
2026-05-23 16:44:03.926,1438183382,86926,1,0.93921,0.13379,0.27905,-17.985,0.908,-2.282
2026-05-23 16:44:03.926,1438183382,86926,2,0.78931,0.1377,-0.14868,-2.985,-2.053,-7.519
2026-05-23 16:44:03.126,1438182582,87126,1,0.96021,0.09229,0.29639,13.55,8.221,-4.817
2026-05-23 16:44:03.126,1438182582,87126,2,0.79492,0.16309,-0.14941,-2.992,0.115,6.168
2026-05-23 16:44:03.326,1438182782,87326,1,0.95825,0.10742,0.29883,-9.71,-0.458,1.145
2026-05-23 16:44:03.326,1438182782,87326,2,0.7915,0.16431,-0.12085,-2.771,13.58,-0.191
2026-05-23 16:44:04.526,1438183982,87526,1,0.95972,0.1145,0.3103,-1.183,1.87,0.466
2026-05-23 16:44:04.526,1438183982,87526,2,0.81567,0.1604,-0.10596,-2.221,-4.985,-0.29
2026-05-23 16:44:04.726,1438184182,87726,1,0.93481,0.10791,0.30981,-1.206,-0.817,-1.13
2026-05-23 16:44:04.726,1438184182,87726,2,0.80054,0.16113,-0.09473,-2.26,9.359,1.0
2026-05-23 16:44:04.926,1438184382,87926,1,0.94556,0.11914,0.31494,-2.641,0.534,-0.779
2026-05-23 16:44:04.926,1438184382,87926,2,0.81982,0.1604,-0.10962,1.16,-5.511,3.145
2026-05-23 16:44:04.126,1438183582,88126,1,0.94019,0.12207,0.31177,-2.046,0.534,-0.748
2026-05-23 16:44:04.126,1438183582,88126,2,0.80151,0.14355,-0.12036,0.397,4.275,1.771
2026-05-23 16:44:04.326,1438183782,88326,1,0.95337,0.1333,0.31592,1.198,1.16,-0.786
2026-05-23 16:44:04.326,1438183782,88326,2,0.79199,0.14429,-0.13354,-2.145,-2.519,0.26
2026-05-23 16:44:05.526,1438184982,88526,1,0.94531,0.09302,0.28003,-13.908,-1.901,-2.87
2026-05-23 16:44:05.526,1438184982,88526,2,0.7627,0.21631,-0.25098,15.985,1.412,3.412
2026-05-23 16:44:05.726,1438185182,88726,1,1.27905,0.15625,0.72461,-20.527,92.282,24.206
2026-05-23 16:44:05.726,1438185182,88726,2,1.03418,-0.10791,-0.61475,15.298,-127.092,33.397
2026-05-23 16:44:05.926,1438185382,88926,1,0.66284,0.03223,0.47168,5.191,52.084,2.015
2026-05-23 16:44:05.926,1438185382,88926,2,0.3396,-0.0769,-0.28271,1.947,-4.779,12.489
2026-05-23 16:44:05.126,1438184582,89126,1,0.5127,0.10669,0.71558,-8.573,36.153,-3.145
2026-05-23 16:44:05.126,1438184582,89126,2,0.46826,-0.03735,-0.46436,18.931,26.031,2.947
2026-05-23 16:44:05.326,1438184782,89326,1,0.49243,-0.04663,0.95215,-9.069,2.282,-0.244
2026-05-23 16:44:05.326,1438184782,89326,2,0.48022,-0.0271,-0.50439,-2.695,68.58,-0.29
2026-05-23 16:44:06.526,1438185982,89526,1,0.47729,-0.05103,0.77466,2.55,-60.374,-6.817
2026-05-23 16:44:06.526,1438185982,89526,2,0.48779,0.14233,0.05933,-14.328,71.656,-15.534
2026-05-23 16:44:06.726,1438186182,89726,1,0.32813,-0.06396,0.07007,-22.466,-145.458,-6.748
2026-05-23 16:44:06.726,1438186182,89726,2,1.04272,0.09497,-0.2832,-13.725,128.832,-18.26
2026-05-23 16:44:06.926,1438186382,89926,1,1.09131,0.07129,-0.05933,-15.466,-41.412,-7.924
2026-05-23 16:44:06.926,1438186382,89926,2,1.19507,0.28394,0.38623,-54.382,168.87,17.389
2026-05-23 16:44:09.050,1438188506,93050,1,0.91382,0.13135,0.37354,-2.885,1.023,1.947
2026-05-23 16:44:09.050,1438188506,93050,2,0.79419,0.13403,-0.13281,1.542,-2.229,-1.198
2026-05-23 16:44:09.250,1438188706,93250,1,0.89502,0.1394,0.37598,1.023,-1.145,0.267
2026-05-23 16:44:09.250,1438188706,93250,2,0.8269,0.14185,-0.08936,-6.55,6.557,1.931
2026-05-23 16:44:09.450,1438188906,93450,1,0.9082,0.12695,0.35669,-2.397,-3.733,-0.802
2026-05-23 16:44:09.450,1438188906,93450,2,0.81445,0.13574,-0.08813,2.046,-0.985,1.137
2026-05-23 16:44:10.650,1438190106,93650,1,0.91626,0.14185,0.3418,-1.901,-2.092,-1.237
2026-05-23 16:44:10.650,1438190106,93650,2,0.81934,0.1438,-0.08936,-0.573,0.221,2.389
2026-05-23 16:44:10.850,1438190306,93850,1,0.92065,0.13257,0.33643,-2.069,1.221,-1.244
2026-05-23 16:44:10.850,1438190306,93850,2,0.86963,0.14233,-0.11523,-7.389,8.725,-1.115
2026-05-23 16:44:10.050,1438189506,94050,1,1.02246,0.18945,0.2937,3.74,37.267,-8.397
2026-05-23 16:44:10.050,1438189506,94050,2,1.38135,0.20654,-0.46509,44.725,30.473,13.733
2026-05-23 16:44:10.250,1438189706,94250,1,0.53687,0.17261,0.6123,-22.015,117.229,1.298
2026-05-23 16:44:10.250,1438189706,94250,2,0.61426,0.03638,-0.08618,49.847,-250.137,2.29
2026-05-23 16:44:10.450,1438189906,94450,1,0.30737,0.10303,0.9104,-17.985,73.168,1.863
2026-05-23 16:44:10.450,1438189906,94450,2,0.23657,-0.13696,-0.47827,18.221,9.924,11.595
2026-05-23 16:44:11.650,1438191106,94650,1,0.11816,0.14673,0.69458,-12.634,18.992,8.947
2026-05-23 16:44:11.650,1438191106,94650,2,0.09302,-0.12695,-0.22803,-35.221,-58.389,-0.656
2026-05-23 16:44:11.850,1438191306,94850,1,0.08325,-0.04248,1.03564,-14.374,35.092,8.649
2026-05-23 16:44:11.850,1438191306,94850,2,0.18799,-0.19019,-0.50317,-5.183,130.42,-6.031
2026-05-23 16:44:11.050,1438190506,95050,1,0.27393,-0.04517,0.82764,-7.214,-58.588,-8.351
2026-05-23 16:44:11.050,1438190506,95050,2,0.48853,0.0293,-0.41064,-13.885,93.947,0.771
2026-05-23 16:44:11.250,1438190706,95250,1,0.41211,0.00537,0.70337,-17.107,-131.397,-22.389
2026-05-23 16:44:11.250,1438190706,95250,2,0.875,0.02051,0.12891,-39.672,159.702,-20.237
2026-05-23 16:44:11.450,1438190906,95450,1,1.10254,0.16699,0.06201,30.557,-105.84,-19.107
2026-05-23 16:44:11.450,1438190906,95450,2,0.85107,0.16284,0.14307,-52.618,35.397,-24.992
2026-05-23 16:44:12.650,1438192106,95650,1,1.17114,0.10254,-0.24902,23.313,-14.565,-5.519
2026-05-23 16:44:12.650,1438192106,95650,2,0.78516,0.09546,0.2395,31.038,-79.275,3.748
2026-05-23 16:44:12.917,1438192373,95917,1,0.82788,0.11694,-0.04907,-5.779,107.359,8.756
2026-05-23 16:44:12.917,1438192373,95917,2,0.94287,0.02124,0.12891,44.42,-56.252,-3.382
2026-05-23 16:44:12.117,1438191573,96117,1,0.50439,-0.0083,0.60913,-3.168,138.137,12.969
2026-05-23 16:44:12.117,1438191573,96117,2,0.5647,-0.06079,-0.14746,21.298,-50.931,19.13
2026-05-23 16:44:12.317,1438191773,96317,1,0.27051,0.07983,0.9165,-15.366,58.366,-16.443
2026-05-23 16:44:12.317,1438191773,96317,2,0.42603,-0.05127,-0.28003,-0.122,-69.901,14.687
2026-05-23 16:44:13.517,1438192973,96517,1,0.18677,0.02051,0.95947,-17.71,25.863,2.802
2026-05-23 16:44:13.517,1438192973,96517,2,0.30591,-0.11304,-0.54272,-15.893,-4.626,1.122
2026-05-23 16:44:13.717,1438193173,96717,1,0.22681,-0.1001,0.78247,-0.847,-13.031,0.985
2026-05-23 16:44:13.717,1438193173,96717,2,0.32861,0.0105,-0.41309,-2.641,25.763,-1.87
2026-05-23 16:44:13.917,1438193373,96917,1,0.33032,0.00684,0.65869,20.672,-65.656,0.863
2026-05-23 16:44:13.917,1438193373,96917,2,0.55542,-0.01758,-0.15625,-8.0,81.977,1.244
2026-05-23 16:44:13.117,1438192573,97117,1,0.60278,0.06152,0.52051,23.992,-95.031,0.053
2026-05-23 16:44:13.117,1438192573,97117,2,0.76929,0.13257,-0.198,-13.557,67.702,-28.298
2026-05-23 16:44:13.317,1438192773,97317,1,1.07861,0.1272,0.42896,29.168,-73.985,11.733
2026-05-23 16:44:13.317,1438192773,97317,2,1.12451,-0.04639,-0.26636,-3.45,37.771,14.985
2026-05-23 16:44:14.517,1438193973,97517,1,1.13428,0.14648,0.35498,-46.832,-33.939,-18.473
2026-05-23 16:44:14.517,1438193973,97517,2,0.90063,0.24438,-0.0249,-27.076,-24.786,15.679
2026-05-23 16:44:14.717,1438194173,97717,1,0.91968,0.03491,0.21069,30.069,-4.718,-0.733
2026-05-23 16:44:14.717,1438194173,97717,2,0.81836,0.17285,-0.1001,16.206,14.87,-7.221
2026-05-23 16:44:14.917,1438194373,97917,1,0.96948,0.18604,0.24878,-3.702,4.977,10.947
2026-05-23 16:44:14.917,1438194373,97917,2,0.81201,0.06641,-0.01685,1.313,-51.0,-9.71
2026-05-23 16:44:14.117,1438193573,98117,1,1.0061,0.10889,0.25854,-3.962,2.496,-8.015
2026-05-23 16:44:14.117,1438193573,98117,2,0.85547,0.14258,-0.07959,-11.244,46.954,8.313
2026-05-23 16:44:14.317,1438193773,98317,1,0.94751,0.10352,0.2666,-5.527,5.733,2.214
2026-05-23 16:44:14.317,1438193773,98317,2,0.85547,0.13135,-0.052,5.947,-27.84,-4.191
2026-05-23 16:44:15.517,1438194973,98517,1,0.96021,0.09253,0.27856,0.641,3.863,-1.221
2026-05-23 16:44:15.517,1438194973,98517,2,0.84839,0.14502,-0.06128,-4.092,20.595,4.542
2026-05-23 16:44:15.717,1438195173,98717,1,0.96143,0.0752,0.26025,-4.053,9.275,-0.947
2026-05-23 16:44:15.717,1438195173,98717,2,0.83765,0.14185,-0.06323,0.649,-11.321,-1.359
2026-05-23 16:44:15.917,1438195373,98917,1,1.10571,0.14404,0.27441,4.634,51.931,-12.214
2026-05-23 16:44:15.917,1438195373,98917,2,1.49707,0.41138,-0.43677,40.664,14.725,7.924
2026-05-23 16:44:15.117,1438194573,99117,1,0.57178,0.16626,1.11792,0.183,108.855,9.237
2026-05-23 16:44:15.117,1438194573,99117,2,0.33545,-0.10645,-0.58594,-16.679,-250.137,9.763
2026-05-23 16:44:15.317,1438194773,99317,1,0.46948,0.1333,0.59204,-11.595,28.504,1.473
2026-05-23 16:44:15.317,1438194773,99317,2,0.5061,-0.01855,-0.5957,-15.359,159.374,5.573
2026-05-23 16:44:16.517,1438195973,99517,1,0.70972,0.0979,0.80713,-1.244,28.985,22.046
2026-05-23 16:44:16.517,1438195973,99517,2,0.34277,-0.09009,-0.2688,-19.382,109.824,-13.588
2026-05-23 16:44:16.717,1438196173,99717,1,0.32104,-0.0415,0.74707,3.702,-77.519,-4.565
2026-05-23 16:44:16.717,1438196173,99717,2,0.47729,0.25269,-0.08569,-56.221,215.122,-8.473
2026-05-23 16:44:16.917,1438196373,99917,1,0.51831,-0.05566,0.60229,-25.267,-142.855,1.74
2026-05-23 16:44:16.917,1438196373,99917,2,0.63672,-0.00684,0.02417,-17.977,116.473,-10.069
2026-05-23 16:44:16.117,1438195573,100117,1,0.88379,0.13818,0.25244,25.817,-81.092,-30.824
2026-05-23 16:44:16.117,1438195573,100117,2,0.95435,0.28735,0.14136,-24.985,63.168,-19.656
2026-05-23 16:44:16.317,1438195773,100317,1,0.99487,0.1687,-0.02612,-3.076,-35.42,-11.405
2026-05-23 16:44:16.317,1438195773,100317,2,0.97461,0.28809,0.06079,-25.183,25.328,6.0
2026-05-23 16:44:17.517,1438196973,100517,1,1.1084,0.06567,-0.0542,2.198,57.626,11.847
2026-05-23 16:44:17.517,1438196973,100517,2,0.97119,0.22583,0.22485,-9.313,-26.115,13.733
2026-05-23 16:44:17.717,1438197173,100717,1,0.896,-0.02881,-0.05322,-11.313,82.634,-1.649
2026-05-23 16:44:17.717,1438197173,100717,2,0.69849,0.26294,0.03491,7.679,-91.389,1.916
2026-05-23 16:44:17.917,1438197373,100917,1,0.55664,0.08179,0.6333,5.824,113.099,15.305
2026-05-23 16:44:17.917,1438197373,100917,2,0.49536,-0.12012,-0.17285,36.427,-53.962,9.16
2026-05-23 16:44:17.117,1438196573,101117,1,0.55273,-0.00293,0.73218,-11.267,51.023,-9.687
2026-05-23 16:44:17.117,1438196573,101117,2,0.66382,0.03638,-0.3291,10.191,-38.267,29.939
2026-05-23 16:44:17.317,1438196773,101317,1,0.28418,0.04614,0.91479,-18.832,21.359,-4.55
2026-05-23 16:44:17.317,1438196773,101317,2,0.35278,0.02319,-0.31885,-1.718,12.542,-3.962
2026-05-23 16:44:18.517,1438197973,101517,1,0.42871,0.0293,0.78149,-0.969,-22.786,6.473
2026-05-23 16:44:18.517,1438197973,101517,2,0.38135,-0.09448,-0.31299,-22.374,43.107,3.756
2026-05-23 16:44:18.717,1438198173,101717,1,0.54468,-0.00854,0.57861,16.55,-58.824,4.191
2026-05-23 16:44:18.717,1438198173,101717,2,0.75146,0.01538,-0.18042,-20.13,9.511,3.336
2026-05-23 16:44:18.917,1438198373,101917,1,0.83423,-0.02612,0.66772,19.962,-71.939,4.397
2026-05-23 16:44:18.917,1438198373,101917,2,0.9873,0.12842,-0.27856,-24.053,22.344,3.527
2026-05-23 16:44:18.117,1438197573,102117,1,1.1604,0.2063,0.50806,40.282,-42.107,12.397
2026-05-23 16:44:18.117,1438197573,102117,2,1.18506,-0.00952,-0.21533,-9.824,63.74,7.206
2026-05-23 16:44:18.317,1438197773,102317,1,0.83179,0.17798,0.1897,-23.527,-12.588,-0.924
2026-05-23 16:44:18.317,1438197773,102317,2,0.68872,0.08545,0.04712,-2.374,-50.588,-24.328
2026-05-23 16:44:19.517,1438198973,102517,1,1.10498,0.14429,0.25391,-20.626,7.313,-1.031
2026-05-23 16:44:19.517,1438198973,102517,2,0.88281,0.12061,0.01904,-18.412,33.176,11.053
2026-05-23 16:44:19.717,1438199173,102717,1,0.99512,0.06323,0.22827,-6.282,-6.099,-2.771
2026-05-23 16:44:19.717,1438199173,102717,2,0.84351,0.16724,-0.1394,1.809,16.122,4.748
2026-05-23 16:44:19.917,1438199373,102917,1,0.91821,0.13623,0.25854,5.931,6.328,0.74
2026-05-23 16:44:19.917,1438199373,102917,2,0.84985,0.11963,-0.01392,6.824,-33.137,-3.779
2026-05-23 16:44:19.117,1438198573,103117,1,0.95337,0.15259,0.2998,-6.618,3.878,-6.496
2026-05-23 16:44:19.117,1438198573,103117,2,0.81079,0.13281,-0.06006,-15.275,33.214,11.893
2026-05-23 16:44:19.317,1438198773,103317,1,0.95776,0.1377,0.28784,-11.802,-0.481,1.542
2026-05-23 16:44:19.317,1438198773,103317,2,0.86572,0.13794,-0.07837,-7.962,-3.679,-4.573
2026-05-23 16:44:20.517,1438199973,103517,1,0.95337,0.09326,0.28491,-5.863,1.45,3.618
2026-05-23 16:44:20.517,1438199973,103517,2,0.80835,0.16626,-0.08936,11.962,-15.198,-0.069
2026-05-23 16:44:20.717,1438200173,103717,1,0.95728,0.04883,0.32324,-7.321,0.046,-2.397
2026-05-23 16:44:20.717,1438200173,103717,2,0.79565,0.15063,-0.09253,-1.313,-12.13,5.794
2026-05-23 16:44:20.917,1438200373,103917,1,0.96582,0.10034,0.27295,1.511,-2.809,5.275
2026-05-23 16:44:20.917,1438200373,103917,2,0.81152,0.1167,-0.10352,3.794,-2.214,-0.573
2026-05-23 16:44:20.117,1438199573,104117,1,0.94556,0.13257,0.33423,-3.405,6.702,-10.641
2026-05-23 16:44:20.117,1438199573,104117,2,0.81323,0.15088,-0.13794,-0.542,-3.84,4.443
2026-05-23 16:44:20.317,1438199773,104317,1,0.93237,0.09473,0.28345,-2.221,-0.122,1.267
2026-05-23 16:44:20.317,1438199773,104317,2,0.80786,0.13184,-0.09766,-3.595,-2.672,-0.031
2026-05-23 16:44:21.517,1438200973,104517,1,0.948,0.10815,0.3125,-3.802,2.328,-3.305
2026-05-23 16:44:21.517,1438200973,104517,2,0.80811,0.13086,-0.09985,-1.916,4.786,1.603
2026-05-23 16:44:21.717,1438201173,104717,1,0.93848,0.12134,0.30151,-0.878,1.519,0.313
2026-05-23 16:44:21.717,1438201173,104717,2,0.80884,0.11719,-0.09277,-1.405,0.687,0.885
2026-05-23 16:44:21.917,1438201373,104917,1,0.94189,0.11694,0.31714,-1.382,2.099,
2026-05-23 16:44:21.917,1438201373,104917,2,0.81714,0.13232,-0.08374,-1.412,4.947,1.435
2026-05-23 16:44:21.117,1438200573,105117,1,0.93506,0.1228,0.30127,-1.092,-0.733,0.458
2026-05-23 16:44:21.117,1438200573,105117,2,0.82324,0.12939,-0.10498,-1.038,1.145,0.939
2026-05-23 16:44:21.317,1438200773,105317,1,0.95264,0.11743,0.31445,-1.947,-1.237,-0.672
2026-05-23 16:44:21.317,1438200773,105317,2,0.81836,0.14233,-0.09912,-2.046,-0.649,1.153
2026-05-23 16:44:22.517,1438201973,105517,1,0.95239,0.12329,0.30103,-0.046,-0.588,0.504
2026-05-23 16:44:22.517,1438201973,105517,2,0.81714,0.13745,-0.1001,0.374,1.137,0.397
2026-05-23 16:44:22.717,1438202173,105717,1,0.93579,0.12939,0.29297,-1.969,-0.565,0.412
2026-05-23 16:44:22.717,1438202173,105717,2,0.82031,0.1416,-0.09253,-0.443,-1.252,1.634
2026-05-23 16:44:22.917,1438202373,105917,1,0.94775,0.12915,0.29883,-2.168,-0.183,0.397
2026-05-23 16:44:22.917,1438202373,105917,2,0.81299,0.1416,-0.10938,-1.076,0.336,0.901
2026-05-23 16:44:22.117,1438201573,106117,1,0.94922,0.12476,0.30933,-0.595,1.397,0.221
2026-05-23 16:44:22.117,1438201573,106117,2,0.81714,0.13672,-0.11987,-2.71,2.16,1.695
2026-05-23 16:44:22.317,1438201773,106317,1,0.94214,0.12329,0.2998,-2.023,0.901,0.038
2026-05-23 16:44:22.317,1438201773,106317,2,0.82324,0.1416,-0.09595,-1.351,0.634,1.74
2026-05-23 16:44:23.517,1438202973,106517,1,0.94043,0.12524,0.30591,-0.55,0.947,0.076
2026-05-23 16:44:23.517,1438202973,106517,2,0.81543,0.13672,-0.0752,-2.076,1.687,1.573
2026-05-23 16:44:23.717,1438203173,106717,1,0.94165,0.13135,0.30664,-0.969,-0.275,-0.504
2026-05-23 16:44:23.717,1438203173,106717,2,0.81421,0.14429,-0.10205,-1.588,1.435,2.374
2026-05-23 16:44:23.917,1438203373,106917,1,0.94824,0.12061,0.302,-1.733,1.229,-0.145
2026-05-23 16:44:23.917,1438203373,106917,2,0.82031,0.13232,-0.08716,-0.366,-0.656,1.405
2026-05-23 16:44:23.117,1438202573,107117,1,0.97485,0.14087,0.23413,-7.718,12.183,-5.122
2026-05-23 16:44:23.117,1438202573,107117,2,1.11621,0.26782,-0.44067,36.939,16.656,1.931
2026-05-23 16:44:23.317,1438202773,107317,1,1.09644,0.11108,0.66406,13.252,121.473,17.87
2026-05-23 16:44:23.317,1438202773,107317,2,1.01831,-0.08179,-0.31836,9.13,-169.023,33.611
2026-05-23 16:44:24.517,1438203973,107517,1,0.62329,-0.07324,0.58496,-26.847,61.527,-4.557
2026-05-23 16:44:24.517,1438203973,107517,2,0.25488,0.23828,-0.30762,11.023,-86.145,-3.313
2026-05-23 16:44:24.717,1438204173,107717,1,0.37817,0.03174,0.92334,6.58,34.687,8.786
2026-05-23 16:44:24.717,1438204173,107717,2,0.24609,-0.15918,-0.49097,2.084,14.74,8.069
2026-05-23 16:44:24.917,1438204373,107917,1,0.36108,-0.00317,1.03198,-8.214,-43.977,2.679
2026-05-23 16:44:24.917,1438204373,107917,2,0.52563,-0.1001,-0.34595,-18.725,117.733,-16.977
2026-05-23 16:44:24.117,1438203573,108117,1,0.47803,0.01953,0.08862,-22.786,-159.275,-23.794
2026-05-23 16:44:24.117,1438203573,108117,2,0.65894,0.14526,0.17798,-26.954,97.359,-13.885
2026-05-23 16:44:24.317,1438203773,108317,1,0.68286,0.02051,-0.15186,-36.183,-92.275,-21.672
2026-05-23 16:44:24.317,1438203773,108317,2,1.28882,-0.0415,0.25366,-8.733,98.84,-45.221
2026-05-23 16:44:25.517,1438204973,108517,1,1.21973,0.14697,-0.08545,14.366,3.229,2.718
2026-05-23 16:44:25.517,1438204973,108517,2,0.9939,0.14819,0.15967,19.237,19.656,-9.237
2026-05-23 16:44:25.717,1438205173,108717,1,0.85669,-0.02026,0.06274,-11.832,46.031,-2.153
2026-05-23 16:44:25.717,1438205173,108717,2,0.49414,0.10889,0.30029,6.885,-58.45,8.099
2026-05-23 16:44:25.917,1438205373,108917,1,0.79956,,0.1123,-28.573,3.802,-6.26
2026-05-23 16:44:25.917,1438205373,108917,2,0.77295,0.271,-0.00464,-11.206,27.756,19.137
2026-05-23 16:44:25.117,1438204573,109117,1,0.90088,0.04858,0.39063,0.366,26.344,-5.435
2026-05-23 16:44:25.117,1438204573,109117,2,0.82031,0.24194,0.06055,-12.649,-24.702,-9.206
2026-05-23 16:44:25.317,1438204773,109317,1,0.99854,0.09375,0.31299,-4.084,-13.046,3.214
2026-05-23 16:44:25.317,1438204773,109317,2,1.01074,0.12378,-0.14282,-4.748,9.947,3.092
2026-05-23 16:44:26.517,1438205973,109517,1,1.12964,0.08936,0.42114,10.046,-9.427,-1.939
2026-05-23 16:44:26.517,1438205973,109517,2,1.01855,0.11841,-0.19385,2.626,20.969,-2.298
2026-05-23 16:44:26.717,1438206173,109717,1,1.03467,0.1665,0.28296,-2.672,-8.573,-15.168
2026-05-23 16:44:26.717,1438206173,109717,2,0.8501,0.11768,-0.10425,8.908,-25.664,8.794
2026-05-23 16:44:26.917,1438206373,109917,1,1.05322,0.08618,0.28027,-1.748,8.153,-2.519
2026-05-23 16:44:26.917,1438206373,109917,2,0.86792,0.0542,-0.10645,-6.244,-38.786,17.802
2026-05-23 16:44:26.117,1438205573,110117,1,0.92847,0.09888,0.20581,14.137,4.588,1.695
2026-05-23 16:44:26.117,1438205573,110117,2,0.84253,0.13672,-0.01733,10.489,3.481,1.687
2026-05-23 16:44:26.317,1438205773,110317,1,1.07056,0.11206,0.25366,-13.206,-0.756,2.298
2026-05-23 16:44:26.317,1438205773,110317,2,0.84888,0.1582,-0.07983,-1.55,-23.924,-1.794
2026-05-23 16:44:27.517,1438206973,110517,1,0.93384,0.10059,0.29175,2.802,8.634,12.061
2026-05-23 16:44:27.517,1438206973,110517,2,0.84521,0.17041,-0.22632,8.168,4.282,-5.405
2026-05-23 16:44:27.717,1438207173,110717,1,0.86108,0.07153,0.26611,16.183,4.366,5.099
2026-05-23 16:44:27.717,1438207173,110717,2,0.68457,-0.01538,-0.0686,-24.473,-51.519,-13.679
2026-05-23 16:44:27.917,1438207373,110917,1,1.09497,0.1167,0.27026,-22.718,3.351,-17.153
2026-05-23 16:44:27.917,1438207373,110917,2,0.81006,0.198,-0.12793,-9.031,42.924,17.557
2026-05-23 16:44:27.117,1438206573,111117,1,0.89526,0.06909,0.28491,8.359,-0.924,0.29
2026-05-23 16:44:27.117,1438206573,111117,2,0.80957,0.21045,-0.07568,13.359,-44.817,-8.069
2026-05-23 16:44:27.317,1438206773,111317,1,0.97705,0.10938,0.2771,6.435,5.74,7.679
2026-05-23 16:44:27.317,1438206773,111317,2,0.8103,0.12231,-0.07617,-5.603,21.985,-0.389
2026-05-23 16:44:28.517,1438207973,111517,1,0.98022,0.07202,0.26196,-16.565,1.237,-1.794
2026-05-23 16:44:28.517,1438207973,111517,2,0.84839,0.19873,-0.05811,-6.252,6.015,4.588
2026-05-23 16:44:28.717,1438208173,111717,1,0.96704,0.08423,0.29419,8.366,3.023,3.031
2026-05-23 16:44:28.717,1438208173,111717,2,0.84521,0.14111,-0.06616,5.794,-3.832,-1.802
2026-05-23 16:44:28.917,1438208373,111917,1,0.94263,0.13623,0.29785,-1.641,-0.634,-1.84
2026-05-23 16:44:28.917,1438208373,111917,2,0.84619,0.14282,-0.02832,-3.435,-1.137,1.542
2026-05-23 16:44:28.117,1438207573,112117,1,0.96338,0.11572,0.26929,-4.298,-0.748,-0.962
2026-05-23 16:44:28.117,1438207573,112117,2,0.83643,0.16211,-0.04199,0.626,3.015,1.519
2026-05-23 16:44:28.317,1438207773,112317,1,0.96924,0.09375,0.27979,-3.015,1.107,-0.26
2026-05-23 16:44:28.317,1438207773,112317,2,0.83545,0.1543,-0.07031,-1.908,-0.626,1.763
2026-05-23 16:44:29.517,1438208973,112517,1,0.94775,0.10474,0.26685,0.725,0.679,-0.015
2026-05-23 16:44:29.517,1438208973,112517,2,0.83081,0.14697,-0.07666,3.74,0.679,0.137
2026-05-23 16:44:29.717,1438209173,112717,1,0.97949,0.09766,0.26001,1.13,7.992,-0.809
2026-05-23 16:44:29.717,1438209173,112717,2,0.87036,0.16553,-0.06055,-4.198,3.031,1.313
2026-05-23 16:44:29.917,1438209373,112917,1,0.96948,0.10645,0.25024,-4.718,18.214,-2.733
2026-05-23 16:44:29.917,1438209373,112917,2,0.84839,0.17017,-0.07788,1.389,-17.977,3.924
2026-05-23 16:44:29.117,1438208573,113117,1,1.29126,0.20215,0.25537,7.344,60.382,1.656
2026-05-23 16:44:29.117,1438208573,113117,2,1.38672,0.16113,-0.6355,54.427,-98.359,12.649
2026-05-23 16:44:29.317,1438208773,113317,1,0.47046,0.07837,1.17212,-18.328,89.557,21.0
2026-05-23 16:44:29.317,1438208773,113317,2,0.33838,-0.04248,-0.38745,1.389,-157.977,-24.565
2026-05-23 16:44:30.517,1438209973,113517,1,0.39453,0.08911,0.88232,-5.29,75.527,-4.672
2026-05-23 16:44:30.517,1438209973,113517,2,0.09277,-0.09839,-0.41138,8.458,15.16,15.702
2026-05-23 16:44:30.717,1438210173,113717,1,0.2439,0.14697,1.00269,-7.534,-9.756,-2.664
2026-05-23 16:44:30.717,1438210173,113717,2,0.198,-0.10645,-0.3252,-26.924,159.0,-31.321
2026-05-23 16:44:30.917,1438210373,113917,1,0.21338,-0.09473,0.77466,-14.458,-98.328,10.092
2026-05-23 16:44:30.917,1438210373,113917,2,0.70752,0.0354,-0.08374,-19.069,157.084,-39.702
2026-05-23 16:44:30.117,1438209573,114117,1,0.65698,-0.09961,0.03369,-21.458,-101.046,-14.725
2026-05-23 16:44:30.117,1438209573,114117,2,0.89404,0.10498,0.05884,11.992,84.565,-9.855
2026-05-23 16:44:30.317,1438209773,114317,1,1.09131,-0.00879,-0.06006,7.0,-48.298,-21.198
2026-05-23 16:44:30.317,1438209773,114317,2,0.90967,0.24561,0.23413,-24.244,42.687,4.519
2026-05-23 16:44:31.517,1438210973,114517,1,1.07227,0.02637,-0.00684,12.008,-0.099,-8.42
2026-05-23 16:44:31.517,1438210973,114517,2,1.04688,0.2041,0.19287,-5.053,-30.351,3.87
2026-05-23 16:44:31.717,1438211173,114717,1,0.57617,0.0708,0.13647,-4.817,99.015,13.664
2026-05-23 16:44:31.717,1438211173,114717,2,0.09351,0.10205,0.14771,-43.527,-58.092,15.527
2026-05-23 16:44:31.917,1438211373,114917,1,0.85278,0.07104,0.38843,-16.725,-3.634,5.481
2026-05-23 16:44:31.917,1438211373,114917,2,0.77222,-0.15625,-0.01685,9.557,59.847,0.328
2026-05-23 16:44:31.117,1438210573,115117,1,0.9314,-0.021,0.41992,-10.397,5.099,2.809
2026-05-23 16:44:31.117,1438210573,115117,2,0.92407,0.22388,-0.02905,-12.29,-57.756,16.786
2026-05-23 16:44:31.317,1438210773,115317,1,0.94165,-0.01025,0.52783,11.718,1.687,-2.771
2026-05-23 16:44:31.317,1438210773,115317,2,0.8457,0.08374,-0.33203,5.344,-44.176,-4.573
2026-05-23 16:44:32.517,1438211973,115517,1,1.02783,0.05322,0.51123,3.519,-21.061,4.672
2026-05-23 16:44:32.517,1438211973,115517,2,0.9873,0.08887,-0.25586,-53.557,62.817,7.053
2026-05-23 16:44:32.717,1438212173,115717,1,0.95215,0.03711,0.33643,3.962,-6.496,18.046
2026-05-23 16:44:32.717,1438212173,115717,2,0.82764,0.14111,-0.07544,15.496,12.672,-28.084
2026-05-23 16:44:32.917,1438212373,115917,1,0.99194,0.04883,0.27124,-10.527,-15.45,-4.542
2026-05-23 16:44:32.917,1438212373,115917,2,0.8335,0.17529,-0.04395,-13.45,64.084,0.748
2026-05-23 16:44:32.117,1438211573,116117,1,1.01416,0.1272,0.27441,27.702,-6.412,-7.832
2026-05-23 16:44:32.117,1438211573,116117,2,0.8374,0.2395,-0.28906,24.176,-5.687,16.885
2026-05-23 16:44:32.317,1438211773,116317,1,0.90723,0.12085,0.28198,12.0,-2.0,-8.282
2026-05-23 16:44:32.317,1438211773,116317,2,0.70386,0.14331,-0.15479,13.267,-53.603,-10.206
2026-05-23 16:44:33.517,1438212973,116517,1,1.01807,0.22021,0.28442,-8.29,4.885,-0.939
2026-05-23 16:44:33.517,1438212973,116517,2,0.84644,0.12988,-0.10327,-5.824,46.344,4.595
2026-05-23 16:44:33.717,1438213173,116717,1,0.96289,0.13428,0.22339,-11.145,-8.725,-1.45
2026-05-23 16:44:33.717,1438213173,116717,2,0.79565,0.16577,-0.12427,-5.794,-29.206,0.061
2026-05-23 16:44:33.917,1438213373,116917,1,0.99829,0.11206,0.24829,8.176,0.733,3.221
2026-05-23 16:44:33.917,1438213373,116917,2,0.80542,0.20117,-0.08643,-2.389,28.695,4.115
2026-05-23 16:44:33.117,1438212573,117117,1,0.96509,0.13257,0.26392,4.053,3.412,-2.481
2026-05-23 16:44:33.117,1438212573,117117,2,0.82495,0.15552,-0.09424,7.183,-19.87,0.015
2026-05-23 16:44:33.317,1438212773,117317,1,0.95337,0.17261,0.27612,-54.176,-0.061,-9.832
2026-05-23 16:44:33.317,1438212773,117317,2,0.79346,0.16138,-0.10498,-19.26,21.397,-5.107
2026-05-23 16:44:34.517,1438213973,117517,1,0.94507,0.10059,0.30542,15.863,7.328,5.214
2026-05-23 16:44:34.517,1438213973,117517,2,0.82617,0.21509,-0.07764,5.519,-16.16,-0.061
2026-05-23 16:44:34.717,1438214173,117717,1,0.93872,0.10132,0.32568,0.947,2.099,-0.313
2026-05-23 16:44:34.717,1438214173,117717,2,0.81909,0.15698,-0.10596,-0.916,17.985,4.55
2026-05-23 16:44:34.917,1438214373,117917,1,0.94946,0.1416,0.32422,0.084,1.725,-2.092
2026-05-23 16:44:34.917,1438214373,117917,2,0.81006,0.18677,-0.07861,-0.344,-11.122,-0.229
2026-05-23 16:44:34.117,1438213573,118117,1,0.92749,0.12817,0.32275,-3.366,-1.084,-0.527
2026-05-23 16:44:34.117,1438213573,118117,2,0.81982,0.15698,-0.07959,-0.634,7.702,3.496
2026-05-23 16:44:34.317,1438213773,118317,1,0.94458,0.1189,0.31152,3.153,,-1.817
2026-05-23 16:44:34.317,1438213773,118317,2,0.80835,0.15698,-0.1167,2.611,-1.771,2.046
2026-05-23 16:44:35.517,1438214973,118517,1,0.93994,0.14038,0.30835,-0.229,-1.275,-0.618
2026-05-23 16:44:35.517,1438214973,118517,2,0.81055,0.1499,-0.07568,-1.962,-5.687,1.351
2026-05-23 16:44:35.717,1438215173,118717,1,0.95142,0.13867,0.30542,-2.107,-0.092,-0.427
2026-05-23 16:44:35.717,1438215173,118717,2,0.8042,0.1521,-0.11475,-2.45,0.412,0.985
2026-05-23 16:44:35.917,1438215373,118917,1,0.93677,0.15308,0.29688,-2.435,0.412,-0.542
2026-05-23 16:44:35.917,1438215373,118917,2,0.81201,0.15063,-0.09521,-0.389,-1.153,0.206
2026-05-23 16:44:35.117,1438214573,119117,1,0.93579,0.14355,0.33057,-2.099,2.344,-0.55
2026-05-23 16:44:35.117,1438214573,119117,2,0.81274,0.15771,-0.09692,-5.344,5.58,1.611
2026-05-23 16:44:35.317,1438214773,119317,1,0.93799,0.13647,0.32104,0.053,0.008,-0.931
2026-05-23 16:44:35.317,1438214773,119317,2,0.81934,0.15991,-0.10742,-0.885,0.588,0.718
2026-05-23 16:44:36.517,1438215973,119517,1,0.92334,0.146,0.32495,-2.725,0.519,-0.779
2026-05-23 16:44:36.517,1438215973,119517,2,0.82349,0.16846,-0.06201,-3.305,6.13,2.748
2026-05-23 16:44:36.717,1438216173,119717,1,0.93408,0.14429,0.30591,-0.595,-0.336,-0.176
2026-05-23 16:44:36.717,1438216173,119717,2,0.83105,0.16162,-0.08203,-3.725,2.344,0.496
2026-05-23 16:44:36.917,1438216373,119917,1,0.93604,0.14014,0.31421,-4.672,-0.779,-1.015
2026-05-23 16:44:36.917,1438216373,119917,2,0.83447,0.15991,-0.06299,-1.038,-0.321,1.053
2026-05-23 16:44:36.117,1438215573,120117,1,0.93408,0.15454,0.31494,1.389,4.588,-4.863
2026-05-23 16:44:36.117,1438215573,120117,2,0.83301,0.15088,-0.06836,-3.809,-9.084,3.45
2026-05-23 16:44:36.317,1438215773,120317,1,0.94263,0.15845,0.22949,-15.382,12.855,3.069
2026-05-23 16:44:36.317,1438215773,120317,2,0.84912,0.19312,-0.23047,2.168,7.802,-0.427
2026-05-23 16:44:37.517,1438216973,120517,1,0.93213,0.28955,0.72681,-13.42,123.321,25.061
2026-05-23 16:44:37.517,1438216973,120517,2,0.97998,-0.03784,-0.34033,26.366,-223.634,-1.817
2026-05-23 16:44:37.717,1438217173,120717,1,0.60742,-0.03613,0.85181,-9.115,20.634,14.992
2026-05-23 16:44:37.717,1438217173,120717,2,0.14429,-0.02344,-0.25635,15.969,98.656,-14.771
2026-05-23 16:44:37.917,1438217373,120917,1,0.6167,0.03076,0.70557,0.756,63.595,17.824
2026-05-23 16:44:37.917,1438217373,120917,2,0.4436,0.06543,-0.34619,-1.351,-50.718,3.282
2026-05-23 16:44:37.117,1438216573,121117,1,0.37793,0.00024,0.77515,13.702,-28.092,-3.954
2026-05-23 16:44:37.117,1438216573,121117,2,0.3208,-0.12109,-0.20435,-19.595,39.939,9.702
2026-05-23 16:44:37.317,1438216773,121317,1,0.57422,-0.0686,0.71094,-9.397,-67.382,0.908
2026-05-23 16:44:37.317,1438216773,121317,2,0.63062,-0.03003,0.17969,-26.244,78.87,-15.168
2026-05-23 16:44:38.517,1438217973,121517,1,1.17114,-0.01416,0.18335,135.206,-118.145,-41.794
2026-05-23 16:44:38.517,1438217973,121517,2,0.82397,0.00977,0.07593,-83.786,70.771,-12.664
2026-05-23 16:44:38.717,1438218173,121717,1,0.93872,0.13623,0.23315,41.649,-45.992,-3.565
2026-05-23 16:44:38.717,1438218173,121717,2,0.92578,0.18945,-0.01025,-19.87,15.481,-1.008
2026-05-23 16:44:38.917,1438218373,121917,1,0.92163,0.07715,0.14893,22.046,11.71,-2.649
2026-05-23 16:44:38.917,1438218373,121917,2,0.54077,0.09912,0.25195,-4.527,-57.718,-6.046
2026-05-23 16:44:38.117,1438217573,122117,1,0.94629,0.00293,-0.2627,-15.069,-7.634,-12.214
2026-05-23 16:44:38.117,1438217573,122117,2,1.01367,0.11084,0.19873,14.015,-29.496,13.244
2026-05-23 16:44:38.317,1438217773,122317,1,0.99585,0.09424,0.09204,-18.954,4.641,4.832
2026-05-23 16:44:38.317,1438217773,122317,2,0.82617,0.17065,-0.08179,-1.679,3.122,2.954
2026-05-23 16:44:41.400,1438220856,125400,1,0.97241,0.10352,0.26611,0.084,-0.099,0.71
2026-05-23 16:44:41.400,1438220856,125400,2,0.81909,0.14355,-0.09473,0.565,-13.046,-1.298
2026-05-23 16:44:42.600,1438222056,125600,1,0.96875,0.11426,0.26855,2.832,0.679,-1.481
2026-05-23 16:44:42.600,1438222056,125600,2,0.81689,0.1543,-0.10693,-2.336,13.221,3.061
2026-05-23 16:44:42.800,1438222256,125800,1,0.96533,0.10571,0.25439,-0.954,-0.267,-0.153
2026-05-23 16:44:42.800,1438222256,125800,2,0.78857,0.14087,-0.12061,0.206,-5.695,-0.328
2026-05-23 16:44:42.000,1438221456,126000,1,0.96509,0.09229,0.29224,-9.611,-0.473,0.053
2026-05-23 16:44:42.000,1438221456,126000,2,0.79517,0.1665,-0.1106,-6.29,6.977,-3.916
2026-05-23 16:44:42.200,1438221656,126200,1,1.00024,0.08276,0.2981,-3.13,9.664,0.634
2026-05-23 16:44:42.200,1438221656,126200,2,0.92822,0.12158,-0.07178,-8.023,-32.939,8.947
2026-05-23 16:44:42.400,1438221856,126400,1,1.29785,0.17554,0.25244,5.649,92.412,5.595
2026-05-23 16:44:42.400,1438221856,126400,2,1.2832,-0.00244,-0.3833,56.779,-54.092,18.634
2026-05-23 16:44:43.600,1438223056,126600,1,0.65894,0.20459,0.9397,-39.313,67.908,18.916
2026-05-23 16:44:43.600,1438223056,126600,2,0.2937,-0.09399,-0.41626,-20.023,-87.702,-10.702
2026-05-23 16:44:43.800,1438223256,126800,1,0.802,0.02637,0.09546,-10.809,12.42,12.473
2026-05-23 16:44:43.800,1438223256,126800,2,0.59497,0.18945,-0.09351,-21.374,-14.794,18.748
2026-05-23 16:44:43.000,1438222456,127000,1,0.56226,-0.07495,0.97607,-0.092,5.641,13.992
2026-05-23 16:44:43.000,1438222456,127000,2,0.47485,-0.07031,-0.51904,0.42,48.183,-15.298
2026-05-23 16:44:43.200,1438222656,127200,1,0.52197,-0.08911,0.88599,-3.893,-39.618,-0.718
2026-05-23 16:44:43.200,1438222656,127200,2,0.46704,0.10791,-0.25854,-2.176,55.389,-6.282
2026-05-23 16:44:43.400,1438222856,127400,1,0.29956,-0.12354,0.32202,-21.832,-118.527,-15.168
2026-05-23 16:44:43.400,1438222856,127400,2,0.51953,0.04102,-0.31519,2.084,166.511,-42.901
2026-05-23 16:44:44.600,1438224056,127600,1,0.86401,0.0686,0.07031,36.435,-6.695,-7.221
2026-05-23 16:44:44.600,1438224056,127600,2,0.78076,0.20068,0.09863,-63.412,35.389,27.939
2026-05-23 16:44:44.800,1438224256,127800,1,0.90601,0.04907,0.229,16.244,42.099,-10.176
2026-05-23 16:44:44.800,1438224256,127800,2,0.8335,0.1499,-0.03906,-10.748,1.076,12.336
2026-05-23 16:44:44.000,1438223456,128000,1,0.65039,0.10645,0.41968,-39.496,110.542,-4.847
2026-05-23 16:44:44.000,1438223456,128000,2,0.8313,0.1792,-0.10913,4.099,-19.061,-1.992
2026-05-23 16:44:47.951,1438227407,130951,1,0.96021,0.09375,0.29639,-2.267,3.924,2.702
2026-05-23 16:44:47.951,1438227407,130951,2,0.80713,0.146,-0.10913,2.672,6.756,1.038
2026-05-23 16:44:47.151,1438226607,131151,1,0.93774,0.13159,0.30396,-2.786,1.679,0.023
2026-05-23 16:44:47.151,1438226607,131151,2,0.83691,0.14917,-0.09937,-2.069,-1.427,1.076
2026-05-23 16:44:47.351,1438226807,131351,1,0.93628,0.09668,0.30273,-2.786,-0.344,-0.145
2026-05-23 16:44:47.351,1438226807,131351,2,0.81567,0.14624,-0.0835,0.053,5.099,1.443
2026-05-23 16:44:48.551,1438228007,131551,1,0.94214,0.11572,0.30225,3.282,-0.305,1.244
2026-05-23 16:44:48.551,1438228007,131551,2,0.83179,0.14404,-0.08105,3.29,-4.107,0.092
2026-05-23 16:44:48.751,1438228207,131751,1,0.9519,0.1167,0.29858,-1.893,-2.466,0.214
2026-05-23 16:44:48.751,1438228207,131751,2,0.79858,0.16919,-0.11572,0.832,-4.351,0.595
2026-05-23 16:44:48.951,1438228407,131951,1,0.95679,0.10303,0.28955,4.756,-0.954,1.718
2026-05-23 16:44:48.951,1438228407,131951,2,0.82129,0.14893,-0.11865,5.176,-1.534,-0.534
2026-05-23 16:44:48.151,1438227607,132151,1,0.94067,0.11768,0.27563,0.046,1.061,-2.802
2026-05-23 16:44:48.151,1438227607,132151,2,0.81787,0.14526,-0.05859,-5.924,5.779,3.725
2026-05-23 16:44:48.351,1438227807,132351,1,0.95972,0.12598,0.28516,3.252,4.71,-0.718
2026-05-23 16:44:48.351,1438227807,132351,2,0.81812,0.12939,-0.07324,2.328,-1.511,1.954
2026-05-23 16:44:49.551,1438229007,132551,1,0.95068,0.14697,0.29224,-5.267,3.45,0.489
2026-05-23 16:44:49.551,1438229007,132551,2,0.8291,0.13013,-0.0813,-5.489,7.145,1.168
2026-05-23 16:44:49.751,1438229207,132751,1,0.92114,0.13037,0.31494,-14.466,0.298,-0.023
2026-05-23 16:44:49.751,1438229207,132751,2,0.81714,0.15894,-0.08911,-7.405,2.221,0.305
2026-05-23 16:44:49.951,1438229407,132951,1,0.95142,0.11133,0.32129,-0.305,0.328,1.756
2026-05-23 16:44:49.951,1438229407,132951,2,0.83667,0.14844,-0.07056,2.779,-1.489,0.618
2026-05-23 16:44:49.151,1438228607,133151,1,0.94189,0.12793,0.30371,-0.87,-1.656,-1.863
2026-05-23 16:44:49.151,1438228607,133151,2,0.81592,0.13599,-0.09888,-0.977,7.115,1.802
2026-05-23 16:44:49.351,1438228807,133351,1,0.948,0.11304,0.30811,-0.519,-0.969,-0.031
2026-05-23 16:44:49.351,1438228807,133351,2,0.80713,0.15112,-0.11865,0.725,-5.405,-0.893
2026-05-23 16:44:50.551,1438230007,133551,1,0.93213,0.12256,0.29736,-2.481,-0.893,0.626
2026-05-23 16:44:50.551,1438230007,133551,2,0.82007,0.13354,-0.09766,-0.534,3.153,0.702
2026-05-23 16:44:50.751,1438230207,133751,1,0.948,0.11401,0.2998,-2.084,1.214,-0.069
2026-05-23 16:44:50.751,1438230207,133751,2,0.81665,0.16846,-0.09155,-2.366,2.275,0.58
2026-05-23 16:44:50.951,1438230407,133951,1,0.94336,0.1123,0.29785,-2.45,0.756,0.397
2026-05-23 16:44:50.951,1438230407,133951,2,0.82129,0.16528,-0.10132,-1.71,1.626,1.656
2026-05-23 16:44:50.151,1438229607,134151,1,0.94458,0.11694,0.30664,-1.977,0.351,0.168
2026-05-23 16:44:50.151,1438229607,134151,2,0.81836,0.16089,-0.08423,-1.557,0.702,1.374
2026-05-23 16:44:50.351,1438229807,134351,1,0.9436,0.12183,0.3042,-0.71,-2.069,0.718
2026-05-23 16:44:50.351,1438229807,134351,2,0.83008,0.15381,-0.08984,0.214,-0.427,3.176
2026-05-23 16:44:51.551,1438231007,134551,1,0.95435,0.12695,0.30688,3.527,-0.183,1.008
2026-05-23 16:44:51.551,1438231007,134551,2,0.81812,0.13525,-0.08423,0.885,0.634,0.893
2026-05-23 16:44:51.751,1438231207,134751,1,0.96021,0.13452,0.29565,-0.832,-0.267,0.939
2026-05-23 16:44:51.751,1438231207,134751,2,0.82642,0.14941,-0.09888,0.176,1.412,1.267
2026-05-23 16:44:51.951,1438231407,134951,1,0.94629,0.1167,0.30078,-4.389,-0.137,-0.107
2026-05-23 16:44:51.951,1438231407,134951,2,0.79517,0.14966,-0.10425,1.397,1.794,1.649
2026-05-23 16:44:51.151,1438230607,135151,1,0.96118,0.11084,0.28613,-1.191,1.137,-0.229
2026-05-23 16:44:51.151,1438230607,135151,2,0.82056,0.14111,-0.09888,1.107,1.664,1.069
2026-05-23 16:44:51.351,1438230807,135351,1,0.93433,0.1189,0.29272,-2.855,-0.366,-0.511
2026-05-23 16:44:51.351,1438230807,135351,2,0.80371,0.14575,-0.09668,-2.107,0.863,1.053
2026-05-23 16:44:52.551,1438232007,135551,1,0.95361,0.11328,0.29175,-0.527,5.443,1.053
2026-05-23 16:44:52.551,1438232007,135551,2,0.83398,0.15186,-0.10718,0.603,-2.275,-0.237
2026-05-23 16:44:52.751,1438232207,135751,1,0.95605,0.11182,0.32007,-4.733,1.809,1.733
2026-05-23 16:44:52.751,1438232207,135751,2,0.81055,0.13843,-0.12402,-1.176,5.962,-0.366
2026-05-23 16:44:52.951,1438232407,135951,1,0.91846,0.10449,0.31641,-1.634,3.931,-0.748
2026-05-23 16:44:52.951,1438232407,135951,2,0.7998,0.16895,-0.11816,-0.008,-4.176,0.023
2026-05-23 16:44:52.151,1438231607,136151,1,0.93579,0.10645,0.31567,-0.809,0.901,1.008
2026-05-23 16:44:52.151,1438231607,136151,2,0.81299,0.14844,-0.10059,1.542,4.611,0.504
2026-05-23 16:44:52.351,1438231807,136351,1,0.93726,0.10181,0.32056,-8.0,0.198,-0.344
2026-05-23 16:44:52.351,1438231807,136351,2,0.79541,0.16235,-0.10229,-3.519,4.153,6.076
2026-05-23 16:44:53.551,1438233007,136551,1,0.92822,0.06152,0.34668,-3.901,-14.771,3.908
2026-05-23 16:44:53.551,1438233007,136551,2,0.80029,0.13525,-0.12183,-0.313,2.366,0.756
2026-05-23 16:44:53.751,1438233207,136751,1,0.99829,0.08643,0.24707,-21.122,-19.351,0.153
2026-05-23 16:44:53.751,1438233207,136751,2,0.85059,0.15161,-0.09619,-16.855,7.176,1.0
2026-05-23 16:44:53.951,1438233407,136951,1,0.97363,0.07715,0.15894,-42.061,-8.389,0.863
2026-05-23 16:44:53.951,1438233407,136951,2,0.78833,0.20728,-0.06738,-9.015,-24.733,-1.87
2026-05-23 16:44:53.151,1438232607,137151,1,1.03809,-0.02393,0.25854,21.603,5.924,-8.656
2026-05-23 16:44:53.151,1438232607,137151,2,0.81104,0.17798,-0.12354,2.771,4.382,6.573
2026-05-23 16:44:53.351,1438232807,137351,1,0.99927,0.07886,0.23926,19.939,7.038,1.466
2026-05-23 16:44:53.351,1438232807,137351,2,0.84912,0.13354,-0.09424,4.931,-9.534,-1.626
2026-05-23 16:44:54.551,1438234007,137551,1,0.97144,0.07764,0.24902,-4.153,1.939,-1.298
2026-05-23 16:44:54.551,1438234007,137551,2,0.82397,0.14697,-0.08276,-9.053,8.389,5.191
2026-05-23 16:44:54.751,1438234207,137751,1,0.97363,0.06836,0.24878,-7.198,2.023,-1.824
2026-05-23 16:44:54.751,1438234207,137751,2,0.81616,0.14429,-0.09033,0.618,-6.626,0.489
2026-05-23 16:44:54.951,1438234407,137951,1,0.98657,0.07324,0.22681,0.511,2.809,-0.977
2026-05-23 16:44:54.951,1438234407,137951,2,0.83081,0.15088,-0.07837,-3.756,3.985,0.847
2026-05-23 16:44:54.151,1438233607,138151,1,0.97192,0.07373,0.24683,-2.382,1.565,-0.29
2026-05-23 16:44:54.151,1438233607,138151,2,0.8252,0.15381,-0.06445,-3.038,5.458,0.542
2026-05-23 16:44:54.351,1438233807,138351,1,0.97974,0.06665,0.25757,-0.557,0.847,0.053
2026-05-23 16:44:54.351,1438233807,138351,2,0.83667,0.17505,-0.06079,-4.145,1.763,0.473
2026-05-23 16:44:55.551,1438235007,138551,1,0.98193,0.07007,0.24902,-2.481,0.305,-1.389
2026-05-23 16:44:55.551,1438235007,138551,2,0.84106,0.18066,-0.06226,-2.947,3.069,2.191
2026-05-23 16:44:55.751,1438235207,138751,1,0.99194,0.08398,0.25269,0.435,-1.084,0.031
2026-05-23 16:44:55.751,1438235207,138751,2,0.83691,0.16357,-0.08643,1.29,-3.527,1.55
2026-05-23 16:44:55.951,1438235407,138951,1,0.98584,0.07642,0.23389,0.824,0.405,-1.458
2026-05-23 16:44:55.951,1438235407,138951,2,0.82813,0.15576,-0.08813,-0.298,2.191,1.962
2026-05-23 16:44:55.151,1438234607,139151,1,0.96973,0.09082,0.24048,-0.809,0.351,0.061
2026-05-23 16:44:55.151,1438234607,139151,2,0.823,0.16699,-0.06592,-2.931,-2.573,1.115
2026-05-23 16:44:55.351,1438234807,139351,1,0.98389,0.08398,0.24487,-0.794,0.344,-1.366
2026-05-23 16:44:55.351,1438234807,139351,2,0.82324,0.15674,-0.07227,-1.046,3.328,1.954
2026-05-23 16:44:56.551,1438236007,139551,1,0.97363,0.09106,0.2395,-2.649,1.115,-1.534
2026-05-23 16:44:56.551,1438236007,139551,2,0.82886,0.16284,-0.07788,0.885,-0.679,1.695
2026-05-23 16:44:56.751,1438236207,139751,1,0.97046,0.08691,0.26221,-4.107,1.985,-0.878
2026-05-23 16:44:56.751,1438236207,139751,2,0.82446,0.1543,-0.07104,-2.656,5.626,2.183
2026-05-23 16:44:56.951,1438236407,139951,1,0.96167,0.08667,0.25732,-1.282,0.359,-0.115
2026-05-23 16:44:56.951,1438236407,139951,2,0.82422,0.15967,-0.05054,-2.198,-1.382,1.115
2026-05-23 16:44:56.151,1438235607,140151,1,0.96802,0.08325,0.2522,-1.649,1.695,0.603
2026-05-23 16:44:56.151,1438235607,140151,2,0.83252,0.16064,-0.07178,-3.985,3.924,0.901
2026-05-23 16:44:56.351,1438235807,140351,1,0.99072,0.10059,0.25488,2.191,1.359,0.504
2026-05-23 16:44:56.351,1438235807,140351,2,0.83643,0.21509,-0.07642,6.908,1.519,0.779
2026-05-23 16:44:57.551,1438237007,140551,1,0.96167,0.02881,0.26904,19.985,6.985,8.817
2026-05-23 16:44:57.551,1438237007,140551,2,0.80029,0.19019,-0.10962,35.565,-25.015,-16.099
2026-05-23 16:44:57.751,1438237207,140751,1,0.91943,0.11987,0.27441,10.664,-5.794,-13.588
2026-05-23 16:44:57.751,1438237207,140751,2,0.80029,0.04272,-0.04224,-1.198,23.198,14.206
2026-05-23 16:44:57.951,1438237407,140951,1,1.01343,0.27124,0.20044,-18.42,-16.809,-20.145
2026-05-23 16:44:57.951,1438237407,140951,2,0.83252,0.06787,-0.02905,-44.565,-8.099,6.573
2026-05-23 16:44:57.151,1438236607,141151,1,1.04126,0.10229,0.13892,-62.084,-28.26,18.824
2026-05-23 16:44:57.151,1438236607,141151,2,0.85815,0.26099,-0.03027,-39.214,8.695,9.702
2026-05-23 16:44:57.351,1438236807,141351,1,0.9939,-0.11963,0.1416,-3.786,-6.237,9.412
2026-05-23 16:44:57.351,1438236807,141351,2,0.75977,0.32202,-0.09229,6.45,-21.824,-5.511
2026-05-23 16:44:58.551,1438238007,141551,1,1.03613,-0.0061,0.10669,19.595,11.344,-10.26
2026-05-23 16:44:58.551,1438238007,141551,2,0.8042,0.2561,-0.07275,23.038,12.832,12.55
2026-05-23 16:44:58.751,1438238207,141751,1,0.93823,0.05981,0.17065,4.099,11.389,-10.618
2026-05-23 16:44:58.751,1438238207,141751,2,0.78369,0.13672,-0.0188,5.244,-2.786,-3.176
2026-05-23 16:44:58.951,1438238407,141951,1,1.02612,0.07056,0.24316,3.282,4.924,-6.374
2026-05-23 16:44:58.951,1438238407,141951,2,0.84082,0.11719,-0.06201,-0.74,-1.267,8.626
2026-05-23 16:44:58.151,1438237607,142151,1,1.0,0.15234,0.22949,2.305,5.55,-5.282
2026-05-23 16:44:58.151,1438237607,142151,2,0.82104,0.13403,-0.0874,-4.13,9.214,1.504
2026-05-23 16:44:58.351,1438237807,142351,1,0.98218,0.12524,0.21606,3.496,0.885,1.45
2026-05-23 16:44:58.351,1438237807,142351,2,0.82813,0.13135,-0.05957,-0.298,-9.985,0.603
2026-05-23 16:44:59.551,1438239007,142551,1,1.00146,0.104,0.23413,-6.832,-1.656,6.702
2026-05-23 16:44:59.551,1438239007,142551,2,0.82422,0.11426,-0.09106,3.489,7.466,2.374
2026-05-23 16:44:59.751,1438239207,142751,1,1.01196,0.08911,0.18579,-2.076,-2.908,0.221
2026-05-23 16:44:59.751,1438239207,142751,2,0.81836,0.15332,-0.09009,-2.496,-0.878,-1.313
2026-05-23 16:44:59.951,1438239407,142951,1,0.96973,0.07593,0.20874,3.29,-3.748,-4.947
2026-05-23 16:44:59.951,1438239407,142951,2,0.82397,0.14697,-0.05347,5.634,0.74,2.389
2026-05-23 16:44:59.151,1438238607,143151,1,0.98486,0.13477,0.23462,6.435,1.053,3.359
2026-05-23 16:44:59.151,1438238607,143151,2,0.83447,0.11523,-0.08057,-2.29,5.748,1.198
2026-05-23 16:44:59.351,1438238807,143351,1,0.9751,0.12598,0.20898,-4.328,1.168,-1.191
2026-05-23 16:44:59.351,1438238807,143351,2,0.84033,0.13501,-0.08179,-2.412,8.191,1.779
2026-05-23 16:45:00.551,1438240007,143551,1,0.96484,0.13184,0.20361,-0.351,1.16,1.672
2026-05-23 16:45:00.551,1438240007,143551,2,0.83643,0.14453,-0.06079,-0.962,-2.557,-0.679
2026-05-23 16:45:00.751,1438240207,143751,1,0.98633,0.13062,0.2146,-4.763,1.481,-0.328
2026-05-23 16:45:00.751,1438240207,143751,2,0.85059,0.13257,-0.04956,-1.366,6.878,1.374
2026-05-23 16:45:00.951,1438240407,143951,1,0.96973,0.11865,0.23389,-2.145,1.618,-0.74
2026-05-23 16:45:00.951,1438240407,143951,2,0.85327,0.15039,-0.04639,1.977,-4.244,1.748
2026-05-23 16:45:00.151,1438239607,144151,1,0.97583,0.1189,0.22559,-1.702,2.267,-0.511
2026-05-23 16:45:00.151,1438239607,144151,2,0.83667,0.13672,-0.06274,-0.962,-2.771,1.809
2026-05-23 16:45:00.351,1438239807,144351,1,0.97754,0.12598,0.23584,1.557,2.321,-1.435
2026-05-23 16:45:00.351,1438239807,144351,2,0.82568,0.13794,-0.07227,-0.893,3.183,2.13
2026-05-23 16:45:01.551,1438241007,144551,1,0.97974,0.13037,0.23755,0.168,1.878,0.511
2026-05-23 16:45:01.551,1438241007,144551,2,0.82568,0.10791,-0.06592,-0.374,2.863,0.641
2026-05-23 16:45:01.751,1438241207,144751,1,0.96875,0.12598,0.23022,-2.344,-0.847,-1.153
2026-05-23 16:45:01.751,1438241207,144751,2,0.8252,0.12524,-0.07178,-1.473,-1.504,1.244
2026-05-23 16:45:01.951,1438241407,144951,1,0.97485,0.13037,0.23608,-2.893,0.641,0.008
2026-05-23 16:45:01.951,1438241407,144951,2,0.8291,0.1228,-0.06738,-1.183,2.939,0.771
2026-05-23 16:45:01.151,1438240607,145151,1,0.96753,0.13013,0.24365,-1.847,2.145,-0.237
2026-05-23 16:45:01.151,1438240607,145151,2,0.83545,0.12549,-0.06738,-2.45,2.038,1.511
2026-05-23 16:45:01.351,1438240807,145351,1,0.97241,0.12378,0.24292,-2.405,0.908,-0.55
2026-05-23 16:45:01.351,1438240807,145351,2,0.82959,0.13403,-0.07007,-2.084,0.695,1.244
2026-05-23 16:45:02.551,1438242007,145551,1,0.9707,0.12109,0.25195,-2.618,2.313,0.366
2026-05-23 16:45:02.551,1438242007,145551,2,0.84424,0.12646,-0.07007,-3.099,1.809,0.267
2026-05-23 16:45:02.751,1438242207,145751,1,0.9646,0.12231,0.24683,-2.198,-0.153,-0.519
2026-05-23 16:45:02.751,1438242207,145751,2,0.83643,0.13379,-0.07764,0.122,4.336,1.153
2026-05-23 16:45:02.951,1438242407,145951,1,0.97339,0.11328,0.25391,-0.779,0.962,-0.176
2026-05-23 16:45:02.951,1438242407,145951,2,0.83716,0.11694,-0.05225,-1.786,-0.824,1.023
2026-05-23 16:45:02.151,1438241607,146151,1,0.96655,0.11865,0.24438,-1.985,0.015,-0.344
2026-05-23 16:45:02.151,1438241607,146151,2,0.83569,0.12769,-0.06543,-1.282,1.603,1.466
2026-05-23 16:45:02.351,1438241807,146351,1,1.00757,0.12524,0.25464,-9.084,-9.847,12.733
2026-05-23 16:45:02.351,1438241807,146351,2,0.85645,0.11108,-0.07837,9.008,-1.687,0.565
2026-05-23 16:45:03.551,1438243007,146551,1,0.97656,0.07153,0.2146,-8.534,-8.763,15.901
2026-05-23 16:45:03.551,1438243007,146551,2,0.83984,0.11035,-0.05957,-5.076,1.412,-3.679
2026-05-23 16:45:03.751,1438243207,146751,1,0.97632,-0.00879,0.1853,-6.023,-1.115,-0.305
2026-05-23 16:45:03.751,1438243207,146751,2,0.8374,0.16162,-0.04883,-6.763,-1.191,-6.969
2026-05-23 16:45:03.951,1438243407,146951,1,0.99316,0.00928,0.21191,-10.275,0.282,-10.351
2026-05-23 16:45:03.951,1438243407,146951,2,0.82568,0.23755,-0.01172,-11.481,5.26,0.366
2026-05-23 16:45:03.151,1438242607,147151,1,1.00317,-0.0105,0.20483,-6.969,1.053,-1.137
2026-05-23 16:45:03.151,1438242607,147151,2,0.8479,0.24097,-0.02393,0.076,3.031,0.702
2026-05-23 16:45:03.351,1438242807,147351,1,0.98901,0.02612,0.20752,7.687,3.176,-3.832
2026-05-23 16:45:03.351,1438242807,147351,2,0.84912,0.19067,-0.01343,3.153,-7.206,4.695
2026-05-23 16:45:04.551,1438244007,147551,1,0.97144,0.05322,0.23804,1.527,2.282,-3.641
2026-05-23 16:45:04.551,1438244007,147551,2,0.85034,0.18091,-0.05005,3.168,-4.229,3.221
2026-05-23 16:45:04.751,1438244207,147751,1,0.98828,0.06836,0.23828,-2.809,2.87,-3.55
2026-05-23 16:45:04.751,1438244207,147751,2,0.83496,0.17065,-0.05469,-1.29,-2.87,3.618
2026-05-23 16:45:04.951,1438244407,147951,1,0.97803,0.07739,0.23071,-3.328,2.092,-2.321
2026-05-23 16:45:04.951,1438244407,147951,2,0.83276,0.1665,-0.07446,3.214,-2.084,4.336
2026-05-23 16:45:04.151,1438243607,148151,1,0.98291,0.08984,0.24048,0.84,1.412,-2.641
2026-05-23 16:45:04.151,1438243607,148151,2,0.83496,0.15454,-0.0708,1.031,0.58,2.244
2026-05-23 16:45:04.351,1438243807,148351,1,0.97339,0.10425,0.24878,-2.389,0.031,-1.16
2026-05-23 16:45:04.351,1438243807,148351,2,0.82422,0.15381,-0.06445,-0.649,-0.168,2.16
2026-05-23 16:45:05.551,1438245007,148551,1,0.9707,0.08984,0.24878,-0.977,0.748,-1.847
2026-05-23 16:45:05.551,1438245007,148551,2,0.82739,0.1438,-0.05273,-1.435,0.458,2.267
2026-05-23 16:45:05.751,1438245207,148751,1,0.96484,0.09546,0.23633,-2.679,-0.832,-1.511
2026-05-23 16:45:05.751,1438245207,148751,2,0.83447,0.14746,-0.07251,-0.931,2.221,1.855
2026-05-23 16:45:05.951,1438245407,148951,1,0.97144,0.10352,0.24805,-3.931,0.626,-1.344
2026-05-23 16:45:05.951,1438245407,148951,2,0.84595,0.14844,-0.05884,-2.695,3.389,1.885
2026-05-23 16:45:05.151,1438244607,149151,1,0.9729,0.10889,0.24805,-6.649,0.664,-1.473
2026-05-23 16:45:05.151,1438244607,149151,2,0.85962,0.15161,-0.04639,-2.55,3.069,1.885
2026-05-23 16:45:05.351,1438244807,149351,1,0.97046,0.09229,0.23706,-3.641,0.092,0.252
2026-05-23 16:45:05.351,1438244807,149351,2,0.83081,0.14331,-0.05884,-0.504,0.328,2.061
2026-05-23 16:45:06.551,1438246007,149551,1,0.97705,0.11841,0.25513,1.336,1.496,-0.885
2026-05-23 16:45:06.551,1438246007,149551,2,0.85132,0.13379,-0.06128,-0.908,1.84,1.855
2026-05-23 16:45:06.751,1438246207,149751,1,0.97803,0.10425,0.25781,1.443,-1.252,-0.29
2026-05-23 16:45:06.751,1438246207,149751,2,0.83887,0.13477,-0.07471,3.588,-2.557,2.42
2026-05-23 16:45:06.951,1438246407,149951,1,0.98462,0.10547,0.25659,-0.687,-1.435,-0.534
2026-05-23 16:45:06.951,1438246407,149951,2,0.83667,0.12305,-0.04834,2.122,-6.137,2.679
2026-05-23 16:45:06.151,1438245607,150151,1,1.01221,0.09277,0.23389,-14.916,-8.641,-4.809
2026-05-23 16:45:06.151,1438245607,150151,2,0.83691,0.09546,-0.02466,7.809,-11.847,-2.214
2026-05-23 16:45:06.351,1438245807,150351,1,0.99658,0.05908,0.22095,6.481,4.374,7.145
2026-05-23 16:45:06.351,1438245807,150351,2,0.80029,0.10938,-0.08618,-1.305,4.504,-2.076
2026-05-23 16:45:07.551,1438247007,150551,1,0.98193,0.08936,0.23315,-2.893,3.252,3.832
2026-05-23 16:45:07.551,1438247007,150551,2,0.82129,0.14063,-0.11401,0.55,-1.809,-0.084
2026-05-23 16:45:07.751,1438247207,150751,1,0.96704,0.0481,0.23706,-1.351,-0.008,0.794
2026-05-23 16:45:07.751,1438247207,150751,2,0.80273,0.1333,-0.11597,-4.038,8.328,-0.031
2026-05-23 16:45:07.951,1438247407,150951,1,1.00073,0.05615,0.21899,2.176,5.763,-1.878
2026-05-23 16:45:07.951,1438247407,150951,2,0.81909,0.15308,-0.09033,3.244,-10.473,1.427
2026-05-23 16:45:07.151,1438246607,151151,1,1.00708,0.09424,0.20093,1.351,24.481,0.649
2026-05-23 16:45:07.151,1438246607,151151,2,0.89429,0.19922,-0.21167,10.145,3.023,2.405
2026-05-23 16:45:07.351,1438246807,151351,1,1.04492,0.08105,0.70068,28.672,119.603,14.45
2026-05-23 16:45:07.351,1438246807,151351,2,0.83472,0.02539,-0.30615,4.664,-165.382,42.817
2026-05-23 16:45:08.551,1438248007,151551,1,0.79053,0.00977,0.52271,-0.046,22.779,0.115
2026-05-23 16:45:08.551,1438248007,151551,2,0.3103,-0.03223,-0.28711,1.878,-64.947,10.29
2026-05-23 16:45:08.751,1438248207,151751,1,0.47046,0.04541,0.82886,2.466,40.443,-0.328
2026-05-23 16:45:08.751,1438248207,151751,2,0.31177,-0.09155,-0.43579,11.511,-3.168,9.053
2026-05-23 16:45:08.951,1438248407,151951,1,0.44897,0.03027,1.01221,-4.229,-15.664,-3.412
2026-05-23 16:45:08.951,1438248407,151951,2,0.47437,-0.08813,-0.49146,-7.885,106.435,-7.122
2026-05-23 16:45:08.151,1438247607,152151,1,0.24731,-0.08057,0.57642,-38.053,-104.634,7.649
2026-05-23 16:45:08.151,1438247607,152151,2,0.37134,0.02759,0.1189,-15.405,75.725,-21.992
2026-05-23 16:45:08.351,1438247807,152351,1,0.91479,-0.14233,-0.17578,42.55,-142.664,-42.282
2026-05-23 16:45:08.351,1438247807,152351,2,1.3689,0.21924,-0.18652,83.863,13.71,-72.122
2026-05-23 16:45:09.551,1438249007,152551,1,1.20752,0.14453,-0.13452,-2.198,9.733,-4.733
2026-05-23 16:45:09.551,1438249007,152551,2,1.03833,0.20166,-0.02856,16.962,-29.595,-6.458
2026-05-23 16:45:09.751,1438249207,152751,1,0.89355,0.09058,0.0271,-11.237,82.534,6.664
2026-05-23 16:45:09.751,1438249207,152751,2,0.83667,0.13623,0.1062,27.55,-101.344,18.298
2026-05-23 16:45:09.951,1438249407,152951,1,0.18555,-0.01514,0.50488,-36.092,86.901,0.901
2026-05-23 16:45:09.951,1438249407,152951,2,0.00195,-0.07495,0.15161,-4.176,-82.115,20.87
2026-05-23 16:45:09.151,1438248607,153151,1,0.72778,0.06226,0.6582,1.183,8.893,7.053
2026-05-23 16:45:09.151,1438248607,153151,2,1.00049,0.1543,-0.27222,-14.473,-59.916,31.008
2026-05-23 16:45:09.351,1438248807,153351,1,0.73071,0.02417,0.70044,-0.092,-9.267,12.542
2026-05-23 16:45:09.351,1438248807,153351,2,0.73096,0.04736,-0.31104,-6.137,-33.496,3.015
2026-05-23 16:45:10.551,1438250007,153551,1,0.79663,0.02539,0.62476,-0.786,-30.008,-11.603
2026-05-23 16:45:10.551,1438250007,153551,2,0.79419,0.19189,-0.25098,-26.412,24.641,4.191
2026-05-23 16:45:10.751,1438250207,153751,1,0.92456,0.05762,0.46045,-5.13,-55.557,-3.458
2026-05-23 16:45:10.751,1438250207,153751,2,0.90967,0.17627,-0.15161,-7.466,29.412,-11.87
2026-05-23 16:45:10.951,1438250407,153951,1,1.10986,-0.00854,0.375,-8.298,-31.458,-10.878
2026-05-23 16:45:10.951,1438250407,153951,2,1.10034,0.23633,-0.17041,7.763,59.321,-6.061
2026-05-23 16:45:10.151,1438249607,154151,1,0.91772,-0.00757,0.24707,35.817,-2.405,-5.008
2026-05-23 16:45:10.151,1438249607,154151,2,0.74512,0.17163,-0.16553,36.466,-45.939,-5.221
2026-05-23 16:45:10.351,1438249807,154351,1,0.99365,0.04102,0.33936,31.664,-0.206,-0.038
2026-05-23 16:45:10.351,1438249807,154351,2,0.85376,-0.00171,-0.12183,4.603,19.786,-10.153
2026-05-23 16:45:11.551,1438251007,154551,1,0.93726,0.06738,0.24536,11.244,-10.985,-1.901
2026-05-23 16:45:11.551,1438251007,154551,2,0.76538,0.18555,-0.16064,-5.412,31.985,14.84
2026-05-23 16:45:11.751,1438251207,154751,1,0.86987,0.11841,0.302,-39.282,-0.58,-9.832
2026-05-23 16:45:11.751,1438251207,154751,2,0.76196,0.15088,-0.0415,1.786,-69.061,-16.359
2026-05-23 16:45:11.951,1438251407,154951,1,1.00854,0.13696,0.36646,8.634,6.931,-10.534
2026-05-23 16:45:11.951,1438251407,154951,2,0.85083,0.08301,-0.24146,-13.931,87.748,27.916
2026-05-23 16:45:11.151,1438250607,155151,1,0.9082,0.14746,0.3042,-4.634,-5.298,8.687
2026-05-23 16:45:11.151,1438250607,155151,2,0.83081,0.07007,-0.19312,14.397,-83.779,-7.947
2026-05-23 16:45:11.351,1438250807,155351,1,0.94971,0.18896,0.3252,-7.321,0.573,5.206
2026-05-23 16:45:11.351,1438250807,155351,2,0.74097,0.11157,-0.16968,-11.527,32.443,5.321
2026-05-23 16:45:12.551,1438252007,155551,1,0.96387,-0.03979,0.26733,-41.374,-16.588,-0.29
2026-05-23 16:45:12.551,1438252007,155551,2,0.71948,0.17529,-0.21069,-8.679,-28.023,1.74
2026-05-23 16:45:12.751,1438252207,155751,1,0.97119,0.12524,0.33032,10.779,13.321,0.573
2026-05-23 16:45:12.751,1438252207,155751,2,0.82837,0.10132,-0.16504,8.74,3.298,0.733
2026-05-23 16:45:12.951,1438252407,155951,1,0.95215,0.08569,0.28271,5.664,2.267,0.779
2026-05-23 16:45:12.951,1438252407,155951,2,0.75464,0.11865,-0.15063,-4.939,19.878,5.023
2026-05-23 16:45:12.151,1438251607,156151,1,0.95996,0.09595,0.30322,-4.855,-0.733,-0.519
2026-05-23 16:45:12.151,1438251607,156151,2,0.77344,0.14819,-0.14624,-2.496,-4.191,-0.267
2026-05-23 16:45:12.351,1438251807,156351,1,0.95947,0.09521,0.30005,-1.42,0.237,0.145
2026-05-23 16:45:12.351,1438251807,156351,2,0.79102,0.14453,-0.13306,0.641,7.855,1.939
2026-05-23 16:45:13.551,1438253007,156551,1,0.97217,0.07666,0.26929,1.069,-1.74,-1.824
2026-05-23 16:45:13.551,1438253007,156551,2,0.78613,0.14111,-0.15356,0.183,-2.924,0.809
2026-05-23 16:45:13.751,1438253207,156751,1,0.98071,0.1062,0.27368,5.084,3.725,-4.611
2026-05-23 16:45:13.751,1438253207,156751,2,0.81592,0.13452,-0.14307,1.214,-1.802,2.382
2026-05-23 16:45:13.951,1438253407,156951,1,0.94043,0.1521,0.229,-6.328,28.756,-1.313
2026-05-23 16:45:13.951,1438253407,156951,2,0.7981,0.15112,-0.18823,8.29,-5.351,3.412
2026-05-23 16:45:13.151,1438252607,157151,1,1.07324,0.20142,0.58667,1.573,119.183,14.824
2026-05-23 16:45:13.151,1438252607,157151,2,1.19214,-0.04102,-0.42822,39.931,-124.885,40.145
2026-05-23 16:45:13.351,1438252807,157351,1,0.36328,0.07983,0.95728,-13.534,73.985,18.71
2026-05-23 16:45:13.351,1438252807,157351,2,0.04639,-0.17432,-0.49146,14.725,-64.962,11.771
2026-05-23 16:45:14.551,1438254007,157551,1,0.24756,0.00537,0.74902,-20.061,50.038,2.282
2026-05-23 16:45:14.551,1438254007,157551,2,0.17651,-0.07104,-0.49463,-3.656,-1.496,10.626
2026-05-23 16:45:14.751,1438254207,157751,1,0.46191,-0.09766,0.3562,14.214,-64.603,-15.473
