datetime,epoch_ms,ts_millis,mpu_id,ax,ay,az,gx,gy,gz
2026-05-23 17:25:13.014,1440652470,17014,1,-0.29785,-0.57349,-0.92725,-1.809,0.229,-0.107
2026-05-23 17:25:13.014,1440652470,17014,2,-0.43628,-0.10352,-0.4624,-1.046,0.863,1.389
2026-05-23 17:25:13.214,1440652670,17214,1,-0.302,-0.57666,-0.92456,-1.855,0.382,0.038
2026-05-23 17:25:13.214,1440652670,17214,2,-0.43311,-0.10742,-0.46606,-0.718,1.092,1.275
2026-05-23 17:25:14.414,1440653870,17414,1,-0.30322,-0.57397,-0.92529,-1.687,0.282,0.015
2026-05-23 17:25:14.414,1440653870,17414,2,-0.43164,-0.09766,-0.46924,-0.931,0.84,1.336
2026-05-23 17:25:16.244,1440655700,20243,1,-0.30518,-0.57202,-0.92285,-1.863,0.321,-0.031
2026-05-23 17:25:16.244,1440655700,20243,2,-0.43677,-0.10742,-0.45972,-1.153,1.023,1.42
2026-05-23 17:25:17.443,1440656899,20443,1,-0.2998,-0.573,-0.92944,-1.679,0.366,-0.282
2026-05-23 17:25:17.443,1440656899,20443,2,-0.42847,-0.09985,-0.46753,-0.687,1.267,1.16
2026-05-23 17:25:17.643,1440657099,20643,1,-0.30688,-0.5769,-0.92871,-1.985,0.244,0.061
2026-05-23 17:25:17.643,1440657099,20643,2,-0.43066,-0.10522,-0.4729,-0.947,0.924,1.214
2026-05-23 17:25:17.843,1440657299,20843,1,-0.29956,-0.5686,-0.92822,-1.031,0.527,-0.458
2026-05-23 17:25:17.843,1440657299,20843,2,-0.43799,-0.0957,-0.46582,-0.817,1.168,1.198
2026-05-23 17:25:20.806,1440660262,23806,1,-0.30151,-0.56689,-0.93994,-1.832,0.328,-0.191
2026-05-23 17:25:20.806,1440660262,23806,2,-0.4353,-0.09546,-0.46997,-1.038,1.122,1.122
2026-05-23 17:25:20.006,1440659462,24006,1,-0.30396,-0.56982,-0.93701,-1.672,0.275,-0.198
2026-05-23 17:25:20.006,1440659462,24006,2,-0.427,-0.10693,-0.47559,-1.038,0.969,1.275
2026-05-23 17:25:20.206,1440659662,24206,1,-0.30664,-0.5647,-0.92261,-1.794,0.237,-0.084
2026-05-23 17:25:20.206,1440659662,24206,2,-0.43311,-0.10425,-0.46948,-0.977,1.069,1.275
2026-05-23 17:25:21.406,1440660862,24406,1,-0.30371,-0.57568,-0.93115,-1.824,0.374,-0.099
2026-05-23 17:25:21.406,1440660862,24406,2,-0.43286,-0.09937,-0.46704,-1.084,1.153,1.183
2026-05-23 17:25:21.606,1440661062,24606,1,-0.3103,-0.56055,-0.92676,-1.672,0.244,-0.191
2026-05-23 17:25:21.606,1440661062,24606,2,-0.43384,-0.10181,-0.46997,-1.008,1.176,1.42
2026-05-23 17:25:21.806,1440661262,24806,1,-0.30737,-0.56836,-0.93481,-1.992,0.244,-0.008
2026-05-23 17:25:21.806,1440661262,24806,2,-0.42944,-0.09961,-0.46704,-1.137,1.015,1.229
2026-05-23 17:25:21.006,1440660462,25006,1,-0.30322,-0.56836,-0.92578,-1.687,0.168,-0.092
2026-05-23 17:25:21.006,1440660462,25006,2,-0.43335,-0.10352,-0.46899,-1.137,0.977,1.176
2026-05-23 17:25:21.238,1440660694,25238,1,-0.3103,-0.57153,-0.92749,-1.519,0.282,-0.168
2026-05-23 17:25:21.238,1440660694,25238,2,-0.42676,-0.09692,-0.47852,-0.908,1.038,1.336
2026-05-23 17:25:22.438,1440661894,25438,1,-0.30786,-0.56763,-0.93188,-1.511,0.26,-0.198
2026-05-23 17:25:22.438,1440661894,25438,2,-0.43555,-0.09961,-0.46558,-0.924,1.13,1.374
2026-05-23 17:25:22.638,1440662094,25638,1,-0.30981,-0.56543,-0.93555,-1.649,0.282,-0.137
2026-05-23 17:25:22.638,1440662094,25638,2,-0.4397,-0.09448,-0.46533,-0.885,1.099,1.191
2026-05-23 17:25:22.838,1440662294,25838,1,-0.3103,-0.57104,-0.9314,-1.908,0.206,0.092
2026-05-23 17:25:22.838,1440662294,25838,2,-0.43237,-0.10156,-0.47241,-1.328,0.908,1.321
2026-05-23 17:25:22.038,1440661494,26038,1,-0.31055,-0.5625,-0.92114,-1.42,0.191,-0.374
2026-05-23 17:25:22.038,1440661494,26038,2,-0.4314,-0.10278,-0.46069,-1.0,0.924,1.565
2026-05-23 17:25:22.238,1440661694,26238,1,-0.30322,-0.56714,-0.92896,-1.557,0.412,-0.191
2026-05-23 17:25:22.238,1440661694,26238,2,-0.43628,-0.09863,-0.46484,-1.092,0.878,1.206
2026-05-23 17:25:23.438,1440662894,26438,1,-0.29883,-0.56323,-0.92676,-1.878,0.26,-0.008
2026-05-23 17:25:23.438,1440662894,26438,2,-0.43652,-0.10327,-0.46484,-1.321,0.908,1.13
2026-05-23 17:25:23.706,1440663162,26706,1,-0.3125,-0.56299,-0.93188,-1.977,0.42,0.359
2026-05-23 17:25:23.706,1440663162,26706,2,-0.43286,-0.10303,-0.47437,-0.855,1.412,1.244
2026-05-23 17:25:23.906,1440663362,26906,1,-0.31128,-0.56616,-0.92041,-2.069,0.412,-0.16
2026-05-23 17:25:23.906,1440663362,26906,2,-0.43628,-0.09839,-0.46533,-1.557,0.71,1.504
2026-05-23 17:25:26.944,1440666400,29944,1,-0.30371,-0.57007,-0.92603,-1.351,0.282,-0.321
2026-05-23 17:25:26.944,1440666400,29944,2,-0.43188,-0.09961,-0.46143,-0.916,1.122,1.443
2026-05-23 17:25:26.145,1440665601,30145,1,-0.30884,-0.56567,-0.92529,-2.183,0.092,0.176
2026-05-23 17:25:26.145,1440665601,30145,2,-0.43237,-0.09839,-0.47266,-0.565,1.252,1.206
2026-05-23 17:25:27.345,1440666801,30345,1,-0.30273,-0.56543,-0.9248,-1.611,0.221,-0.084
2026-05-23 17:25:27.345,1440666801,30345,2,-0.43506,-0.09985,-0.46729,-1.076,1.053,1.267
2026-05-23 17:25:27.545,1440667001,30545,1,-0.31274,-0.57471,-0.93018,-1.321,0.359,-0.496
2026-05-23 17:25:27.545,1440667001,30545,2,-0.43652,-0.09497,-0.47217,-1.076,1.168,1.29
2026-05-23 17:25:27.745,1440667201,30745,1,-0.31128,-0.56982,-0.93188,-1.649,0.221,-0.176
2026-05-23 17:25:27.745,1440667201,30745,2,-0.4353,-0.10596,-0.46826,-0.931,1.031,1.29
2026-05-23 17:25:30.586,1440670042,33586,1,-0.30786,-0.57007,-0.92358,-2.122,0.137,0.206
2026-05-23 17:25:30.586,1440670042,33586,2,-0.43481,-0.09668,-0.46973,-1.061,0.969,1.176
2026-05-23 17:25:30.786,1440670242,33786,1,-0.31006,-0.56079,-0.93872,-1.664,0.267,-0.16
2026-05-23 17:25:30.786,1440670242,33786,2,-0.43579,-0.10474,-0.47046,-0.954,1.031,1.298
2026-05-23 17:25:35.890,1440675346,38890,1,-0.31152,-0.56519,-0.9292,-1.45,0.382,-0.427
2026-05-23 17:25:35.890,1440675346,38890,2,-0.43506,-0.10889,-0.46948,-1.031,1.053,1.366
2026-05-23 17:25:35.090,1440674546,39090,1,-0.31055,-0.55908,-0.92603,-1.832,0.397,-0.176
2026-05-23 17:25:35.090,1440674546,39090,2,-0.43262,-0.09644,-0.4707,-1.053,1.038,1.214
2026-05-23 17:25:38.952,1440678408,41952,1,-0.31104,-0.56567,-0.92944,-1.298,0.496,-0.557
2026-05-23 17:25:38.952,1440678408,41952,2,-0.43286,-0.10449,-0.46655,-0.901,1.183,1.267
2026-05-23 17:25:38.152,1440677608,42152,1,-0.30591,-0.56641,-0.92456,-1.74,0.267,-0.168
2026-05-23 17:25:38.152,1440677608,42152,2,-0.43335,-0.10278,-0.47412,-1.115,0.992,1.321
2026-05-23 17:25:39.352,1440678808,42352,1,-0.30908,-0.56592,-0.93066,-1.847,0.405,-0.069
2026-05-23 17:25:39.352,1440678808,42352,2,-0.43555,-0.10132,-0.47046,-1.107,0.84,1.435
2026-05-23 17:25:39.730,1440679186,42729,1,-0.31079,-0.56909,-0.9248,-1.664,0.298,0.015
2026-05-23 17:25:39.730,1440679186,42729,2,-0.42969,-0.10205,-0.4751,-1.137,0.947,1.466
2026-05-23 17:25:39.929,1440679385,42929,1,-0.30786,-0.55981,-0.92651,-1.481,0.321,-0.298
2026-05-23 17:25:39.929,1440679385,42929,2,-0.4375,-0.09619,-0.46582,-0.893,1.107,1.252
2026-05-23 17:25:39.129,1440678585,43129,1,-0.31104,-0.57007,-0.93359,-1.84,0.26,-0.053
2026-05-23 17:25:39.129,1440678585,43129,2,-0.43262,-0.10156,-0.47949,-1.031,1.0,1.481
2026-05-23 17:25:42.902,1440682358,45901,1,-0.30371,-0.5686,-0.91772,-2.031,0.237,0.221
2026-05-23 17:25:42.902,1440682358,45901,2,-0.43555,-0.09595,-0.47119,-0.802,1.229,1.069
2026-05-23 17:25:42.162,1440681618,46162,1,-0.30884,-0.56763,-0.92627,-1.893,0.282,0.038
2026-05-23 17:25:42.162,1440681618,46162,2,-0.43018,-0.09937,-0.46411,-0.908,1.183,1.183
2026-05-23 17:25:43.366,1440682822,46366,1,-0.30884,-0.55884,-0.93164,-2.763,0.115,0.786
2026-05-23 17:25:43.366,1440682822,46366,2,-0.43262,-0.10498,-0.47534,-0.977,1.145,1.298
2026-05-23 17:25:43.566,1440683022,46566,1,-0.30151,-0.56738,-0.92334,-1.84,0.229,-0.137
2026-05-23 17:25:43.566,1440683022,46566,2,-0.43408,-0.1084,-0.46802,-1.168,0.977,1.427
2026-05-23 17:25:43.766,1440683222,46766,1,-0.30518,-0.56396,-0.93359,-1.42,0.42,-0.359
2026-05-23 17:25:43.766,1440683222,46766,2,-0.43652,-0.10791,-0.46851,-1.168,0.931,1.153
2026-05-23 17:25:43.966,1440683422,46966,1,-0.30884,-0.56274,-0.93335,-1.863,0.328,0.046
2026-05-23 17:25:43.966,1440683422,46966,2,-0.42993,-0.10181,-0.46362,-1.053,1.183,1.443
2026-05-23 17:25:43.166,1440682622,47166,1,-0.31323,-0.56787,-0.93213,-2.145,0.115,0.122
2026-05-23 17:25:43.166,1440682622,47166,2,-0.43042,-0.10229,-0.4668,-1.076,1.099,1.221
2026-05-23 17:25:44.366,1440683822,47366,1,-0.31421,-0.56763,-0.92822,-1.87,0.389,-0.046
2026-05-23 17:25:44.366,1440683822,47366,2,-0.43555,-0.10083,-0.4707,-1.153,1.069,1.382
2026-05-23 17:25:44.566,1440684022,47566,1,-0.30811,-0.56616,-0.92847,-1.595,0.55,-0.252
2026-05-23 17:25:44.566,1440684022,47566,2,-0.43188,-0.10156,-0.46509,-0.893,1.183,1.183
2026-05-23 17:25:44.766,1440684222,47766,1,-0.30566,-0.56519,-0.93311,-2.298,0.221,0.031
2026-05-23 17:25:44.766,1440684222,47766,2,-0.43604,-0.10083,-0.46436,-1.099,1.015,1.42
2026-05-23 17:25:44.966,1440684422,47966,1,-0.3064,-0.5625,-0.92603,-2.069,0.328,0.237
2026-05-23 17:25:44.966,1440684422,47966,2,-0.43359,-0.09644,-0.46509,-0.916,0.977,1.221
2026-05-23 17:25:44.166,1440683622,48166,1,-0.30786,-0.56714,-0.92285,-1.275,0.42,-0.336
2026-05-23 17:25:44.166,1440683622,48166,2,-0.43311,-0.09473,-0.47803,-1.191,1.16,1.237
2026-05-23 17:25:45.366,1440684822,48366,1,-0.30908,-0.5686,-0.92993,-1.916,0.29,
2026-05-23 17:25:45.366,1440684822,48366,2,-0.43481,-0.09961,-0.47046,-1.107,1.115,1.282
2026-05-23 17:25:45.566,1440685022,48566,1,-0.31299,-0.56812,-0.93286,-0.924,0.466,-0.656
2026-05-23 17:25:45.566,1440685022,48566,2,-0.4292,-0.10181,-0.47046,-1.107,1.076,1.336
2026-05-23 17:25:45.766,1440685222,48766,1,-0.31079,-0.56348,-0.93408,-1.763,0.137,-0.008
2026-05-23 17:25:45.766,1440685222,48766,2,-0.4353,-0.10571,-0.46777,-1.229,1.229,1.351
2026-05-23 17:25:45.966,1440685422,48966,1,-0.30957,-0.56519,-0.93066,-1.908,0.115,0.069
2026-05-23 17:25:45.966,1440685422,48966,2,-0.43018,-0.10083,-0.47046,-1.198,0.962,1.435
2026-05-23 17:25:45.166,1440684622,49166,1,-0.3103,-0.56396,-0.92822,-2.275,0.145,0.336
2026-05-23 17:25:45.166,1440684622,49166,2,-0.43701,-0.09619,-0.46436,-1.122,1.115,1.328
2026-05-23 17:25:46.366,1440685822,49366,1,-0.30518,-0.56201,-0.92456,-1.817,0.359,-0.107
2026-05-23 17:25:46.366,1440685822,49366,2,-0.43311,-0.10083,-0.47046,-1.0,1.069,1.191
2026-05-23 17:25:46.566,1440686022,49566,1,-0.31104,-0.56616,-0.92944,-1.74,0.282,-0.145
2026-05-23 17:25:46.566,1440686022,49566,2,-0.43384,-0.10669,-0.47339,-0.824,1.176,1.092
2026-05-23 17:25:46.766,1440686222,49766,1,-0.31079,-0.5625,-0.92236,-1.779,0.282,-0.122
2026-05-23 17:25:46.766,1440686222,49766,2,-0.43604,-0.0979,-0.47705,-1.076,1.099,1.221
2026-05-23 17:25:46.966,1440686422,49966,1,-0.30908,-0.56567,-0.92798,-2.206,0.092,0.282
2026-05-23 17:25:46.966,1440686422,49966,2,-0.43335,-0.10498,-0.47437,-0.947,0.901,1.26
2026-05-23 17:25:46.166,1440685622,50166,1,-0.3103,-0.56177,-0.93628,-1.588,0.214,-0.328
2026-05-23 17:25:46.166,1440685622,50166,2,-0.43359,-0.09937,-0.46826,-0.885,1.122,1.427
2026-05-23 17:25:47.366,1440686822,50366,1,-0.31055,-0.56323,-0.93506,-2.061,0.008,0.26
2026-05-23 17:25:47.366,1440686822,50366,2,-0.4314,-0.10425,-0.47314,-1.183,1.16,1.313
2026-05-23 17:25:47.566,1440687022,50566,1,-0.31104,-0.57007,-0.92139,-1.679,0.221,-0.328
2026-05-23 17:25:47.566,1440687022,50566,2,-0.42896,-0.10474,-0.46362,-1.191,1.137,1.374
2026-05-23 17:25:47.766,1440687222,50766,1,-0.30615,-0.56396,-0.91797,-1.527,0.359,-0.229
2026-05-23 17:25:47.766,1440687222,50766,2,-0.43213,-0.09741,-0.4668,-1.191,1.206,1.267
2026-05-23 17:25:47.966,1440687422,50966,1,-0.30811,-0.5708,-0.93555,-0.672,0.718,-1.061
2026-05-23 17:25:47.966,1440687422,50966,2,-0.43384,-0.10767,-0.46777,-1.137,1.076,1.336
2026-05-23 17:25:47.166,1440686622,51166,1,-0.30542,-0.56909,-0.92603,-2.458,0.115,0.389
2026-05-23 17:25:47.166,1440686622,51166,2,-0.4375,-0.1001,-0.47046,-1.206,1.107,1.206
2026-05-23 17:25:48.366,1440687822,51366,1,-0.30713,-0.56494,-0.927,-1.443,0.359,-0.16
2026-05-23 17:25:48.366,1440687822,51366,2,-0.43628,-0.10132,-0.47192,-0.832,1.252,1.214
2026-05-23 17:25:48.566,1440688022,51566,1,-0.3103,-0.55835,-0.93066,-1.145,0.389,-0.573
2026-05-23 17:25:48.566,1440688022,51566,2,-0.43433,-0.10596,-0.47754,-1.183,0.969,1.412
2026-05-23 17:25:48.766,1440688222,51766,1,-0.30786,-0.56738,-0.93188,-2.031,0.153,0.076
2026-05-23 17:25:48.766,1440688222,51766,2,-0.43481,-0.10498,-0.47266,-1.015,1.069,1.168
2026-05-23 17:25:48.966,1440688422,51966,1,-0.31323,-0.56372,-0.92847,-1.588,-0.031,-0.374
2026-05-23 17:25:48.966,1440688422,51966,2,-0.44238,-0.10303,-0.47681,-1.008,1.145,1.282
2026-05-23 17:25:48.166,1440687622,52166,1,-0.30591,-0.55786,-0.93408,-1.13,0.443,-0.702
2026-05-23 17:25:48.166,1440687622,52166,2,-0.43726,-0.09741,-0.47388,-0.809,1.023,1.26
2026-05-23 17:25:49.366,1440688822,52366,1,-0.30371,-0.57251,-0.92212,-2.679,0.107,0.573
2026-05-23 17:25:49.366,1440688822,52366,2,-0.43604,-0.10376,-0.47437,-0.916,1.16,1.237
2026-05-23 17:25:49.566,1440689022,52566,1,-0.30615,-0.55957,-0.93262,-1.412,0.481,-0.389
2026-05-23 17:25:49.566,1440689022,52566,2,-0.42969,-0.09839,-0.47314,-1.221,1.031,1.305
2026-05-23 17:25:49.766,1440689222,52766,1,-0.31104,-0.56519,-0.93457,-1.466,0.344,-0.252
2026-05-23 17:25:49.766,1440689222,52766,2,-0.43921,-0.10059,-0.46411,-1.481,0.977,1.092
2026-05-23 17:25:49.966,1440689422,52966,1,-0.31226,-0.56592,-0.92822,-2.412,-0.015,0.26
2026-05-23 17:25:49.966,1440689422,52966,2,-0.42944,-0.10522,-0.46729,-1.221,1.076,1.305
2026-05-23 17:25:49.166,1440688622,53166,1,-0.31348,-0.56494,-0.92725,-2.26,0.137,0.29
2026-05-23 17:25:49.166,1440688622,53166,2,-0.43359,-0.09937,-0.48315,-0.992,0.962,1.374
2026-05-23 17:25:50.366,1440689822,53366,1,-0.3125,-0.56177,-0.92334,-1.489,0.183,-0.359
2026-05-23 17:25:50.366,1440689822,53366,2,-0.43335,-0.0979,-0.47217,-0.939,1.229,1.198
2026-05-23 17:25:50.566,1440690022,53566,1,-0.31445,-0.5647,-0.92847,-1.855,0.237,0.084
2026-05-23 17:25:50.566,1440690022,53566,2,-0.4292,-0.10059,-0.4729,-1.092,1.008,1.206
2026-05-23 17:25:50.766,1440690222,53766,1,-0.30981,-0.55981,-0.93188,-2.221,0.237,0.115
2026-05-23 17:25:50.766,1440690222,53766,2,-0.43213,-0.09912,-0.46191,-1.099,1.206,1.145
2026-05-23 17:25:50.966,1440690422,53966,1,-0.31323,-0.55835,-0.92139,-1.687,0.153,-0.031
2026-05-23 17:25:50.966,1440690422,53966,2,-0.43335,-0.10132,-0.47461,-1.176,1.092,1.26
2026-05-23 17:25:50.166,1440689622,54166,1,-0.3125,-0.56982,-0.93652,-1.863,0.313,0.061
2026-05-23 17:25:50.166,1440689622,54166,2,-0.43286,-0.10352,-0.46655,-1.099,1.076,1.351
2026-05-23 17:25:51.366,1440690822,54366,1,-0.31055,-0.56445,-0.9353,-1.824,0.145,-0.061
2026-05-23 17:25:51.366,1440690822,54366,2,-0.43164,-0.10425,-0.47046,-1.084,1.107,1.16
2026-05-23 17:25:51.566,1440691022,54566,1,-0.30786,-0.56494,-0.91919,-1.588,0.191,-0.206
2026-05-23 17:25:51.566,1440691022,54566,2,-0.43921,-0.10083,-0.46411,-1.046,1.069,1.092
2026-05-23 17:25:51.766,1440691222,54766,1,-0.31421,-0.56592,-0.92578,-1.84,0.305,-0.115
2026-05-23 17:25:51.766,1440691222,54766,2,-0.4353,-0.09619,-0.46631,-0.893,1.206,1.435
2026-05-23 17:25:51.966,1440691422,54966,1,-0.30786,-0.55469,-0.9314,0.305,0.702,-1.885
2026-05-23 17:25:51.966,1440691422,54966,2,-0.43726,-0.10181,-0.4834,-2.382,0.313,1.603
2026-05-23 17:25:51.166,1440690622,55166,1,-0.30908,-0.56445,-0.93457,-2.023,0.206,0.275
2026-05-23 17:25:51.166,1440690622,55166,2,-0.4292,-0.10107,-0.47192,-1.13,0.901,1.412
2026-05-23 17:25:52.366,1440691822,55366,1,-0.3103,-0.55859,-0.9314,-1.679,0.244,0.076
2026-05-23 17:25:52.366,1440691822,55366,2,-0.43091,-0.10303,-0.47314,-0.771,1.023,1.344
2026-05-23 17:25:52.566,1440692022,55566,1,-0.30835,-0.5542,-0.93286,-1.733,0.351,0.008
2026-05-23 17:25:52.566,1440692022,55566,2,-0.43555,-0.09473,-0.46802,-1.206,1.023,1.336
2026-05-23 17:25:52.766,1440692222,55766,1,-0.31494,-0.56006,-0.92676,-1.504,0.443,0.023
2026-05-23 17:25:52.766,1440692222,55766,2,-0.43384,-0.09863,-0.4668,-1.0,1.053,1.389
2026-05-23 17:25:52.966,1440692422,55966,1,-0.31567,-0.56543,-0.93408,-1.74,0.359,-0.092
2026-05-23 17:25:52.966,1440692422,55966,2,-0.43384,-0.10669,-0.47827,-1.214,0.985,1.427
2026-05-23 17:25:52.166,1440691622,56166,1,-0.31396,-0.55835,-0.93311,-1.931,0.237,-0.084
2026-05-23 17:25:52.166,1440691622,56166,2,-0.42944,-0.10571,-0.46826,-1.008,1.061,1.092
2026-05-23 17:25:53.366,1440692822,56366,1,-0.30908,-0.56152,-0.93604,-1.802,0.321,-0.107
2026-05-23 17:25:53.366,1440692822,56366,2,-0.43335,-0.09985,-0.4668,-1.122,0.901,1.252
2026-05-23 17:25:53.566,1440693022,56566,1,-0.31372,-0.5625,-0.92456,-2.0,0.252,-0.015
2026-05-23 17:25:53.566,1440693022,56566,2,-0.43555,-0.1001,-0.46631,-1.115,1.237,1.122
2026-05-23 17:25:53.766,1440693222,56766,1,-0.31226,-0.55273,-0.93481,-1.878,0.275,-0.099
2026-05-23 17:25:53.766,1440693222,56766,2,-0.43896,-0.10132,-0.47485,-1.275,1.046,1.366
2026-05-23 17:25:53.966,1440693422,56966,1,-0.30273,-0.56738,-0.92969,-1.588,0.389,-0.145
2026-05-23 17:25:53.966,1440693422,56966,2,-0.42993,-0.10547,-0.47607,-1.061,1.038,1.221
2026-05-23 17:25:53.166,1440692622,57166,1,-0.31348,-0.552,-0.93359,-1.679,0.427,0.031
2026-05-23 17:25:53.166,1440692622,57166,2,-0.43506,-0.10156,-0.46802,-1.107,1.015,1.191
2026-05-23 17:25:54.366,1440693822,57366,1,-0.3147,-0.55493,-0.92944,-1.84,0.328,-0.107
2026-05-23 17:25:54.366,1440693822,57366,2,-0.42896,-0.09766,-0.47729,-1.092,1.053,1.229
2026-05-23 17:25:54.566,1440694022,57566,1,-0.31665,-0.56055,-0.92725,-1.573,0.221,-0.023
2026-05-23 17:25:54.566,1440694022,57566,2,-0.43359,-0.10059,-0.46826,-1.153,1.107,1.397
2026-05-23 17:25:54.766,1440694222,57766,1,-0.31274,-0.55981,-0.93311,-1.649,0.282,-0.092
2026-05-23 17:25:54.766,1440694222,57766,2,-0.43555,-0.10303,-0.46753,-0.931,1.191,1.176
2026-05-23 17:25:54.966,1440694422,57966,1,-0.31323,-0.55444,-0.92651,-1.824,0.427,-0.023
2026-05-23 17:25:54.966,1440694422,57966,2,-0.44043,-0.10327,-0.47119,-1.16,1.084,1.321
2026-05-23 17:25:54.166,1440693622,58166,1,-0.31299,-0.56445,-0.92676,-1.679,0.092,-0.031
2026-05-23 17:25:54.166,1440693622,58166,2,-0.43335,-0.09814,-0.46826,-0.962,1.031,1.26
2026-05-23 17:25:55.366,1440694822,58366,1,-0.31421,-0.55566,-0.93286,-1.718,0.099,-0.176
2026-05-23 17:25:55.366,1440694822,58366,2,-0.43115,-0.09985,-0.47437,-1.038,0.992,1.389
2026-05-23 17:25:55.566,1440695022,58566,1,-0.3147,-0.55859,-0.9397,-1.649,0.313,0.008
2026-05-23 17:25:55.566,1440695022,58566,2,-0.43604,-0.10083,-0.46973,-1.16,1.038,1.275
2026-05-23 17:25:55.766,1440695222,58766,1,-0.30737,-0.55713,-0.927,-1.824,0.29,-0.122
2026-05-23 17:25:55.766,1440695222,58766,2,-0.43799,-0.10181,-0.47388,-1.137,1.221,1.267
2026-05-23 17:25:55.966,1440695422,58966,1,-0.31543,-0.55811,-0.92847,-1.794,0.206,-0.046
2026-05-23 17:25:55.966,1440695422,58966,2,-0.43433,-0.10156,-0.47192,-1.16,0.977,1.191
2026-05-23 17:25:55.166,1440694622,59166,1,-0.31445,-0.56396,-0.92578,-1.71,0.244,-0.16
2026-05-23 17:25:55.166,1440694622,59166,2,-0.43433,-0.09863,-0.46875,-0.992,1.076,1.382
2026-05-23 17:25:56.366,1440695822,59366,1,-0.31519,-0.55591,-0.93335,-1.939,0.313,-0.046
2026-05-23 17:25:56.366,1440695822,59366,2,-0.43433,-0.09985,-0.46509,-0.924,1.008,1.427
2026-05-23 17:25:56.566,1440696022,59566,1,-0.31494,-0.56494,-0.92651,-1.672,0.267,-0.069
2026-05-23 17:25:56.566,1440696022,59566,2,-0.43701,-0.10352,-0.46851,-1.183,1.137,1.328
2026-05-23 17:25:56.766,1440696222,59766,1,-0.31592,-0.56494,-0.93115,-1.901,0.382,0.015
2026-05-23 17:25:56.766,1440696222,59766,2,-0.43799,-0.09692,-0.46313,-1.099,1.038,1.42
2026-05-23 17:25:56.966,1440696422,59966,1,-0.30786,-0.55591,-0.92871,-1.977,0.069,-0.122
2026-05-23 17:25:56.966,1440696422,59966,2,-0.42896,-0.10034,-0.46851,-1.015,0.992,1.45
2026-05-23 17:25:56.166,1440695622,60166,1,-0.30762,-0.56616,-0.92627,-1.748,0.351,0.115
2026-05-23 17:25:56.166,1440695622,60166,2,-0.43628,-0.10181,-0.46655,-1.0,1.137,1.344
2026-05-23 17:25:57.366,1440696822,60366,1,-0.30835,-0.55542,-0.94067,-1.603,0.221,-0.122
2026-05-23 17:25:57.366,1440696822,60366,2,-0.43262,-0.10327,-0.47119,-1.046,0.924,1.122
2026-05-23 17:25:57.566,1440697022,60566,1,-0.30566,-0.55444,-0.93115,-1.733,0.397,0.153
2026-05-23 17:25:57.566,1440697022,60566,2,-0.43188,-0.10059,-0.47412,-1.221,0.947,1.466
2026-05-23 17:25:57.766,1440697222,60766,1,-0.31763,-0.56226,-0.92603,-2.008,0.176,-0.015
2026-05-23 17:25:57.766,1440697222,60766,2,-0.4353,-0.09961,-0.4646,-1.008,1.015,1.313
2026-05-23 17:25:57.966,1440697422,60966,1,-0.31519,-0.55566,-0.93408,-1.824,0.359,-0.13
2026-05-23 17:25:57.966,1440697422,60966,2,-0.42773,-0.10352,-0.47461,-0.947,1.0,1.366
2026-05-23 17:25:57.166,1440696622,61166,1,-0.31152,-0.56201,-0.9314,-1.71,0.328,-0.145
2026-05-23 17:25:57.166,1440696622,61166,2,-0.43506,-0.10132,-0.46558,-0.962,0.977,1.115
2026-05-23 17:25:58.366,1440697822,61366,1,-0.30859,-0.55566,-0.94165,-1.771,0.336,-0.084
2026-05-23 17:25:58.366,1440697822,61366,2,-0.43604,-0.104,-0.46899,-0.916,1.237,1.221
2026-05-23 17:25:58.566,1440698022,61566,1,-0.30908,-0.56079,-0.9397,-1.954,0.321,-0.13
2026-05-23 17:25:58.566,1440698022,61566,2,-0.43726,-0.10181,-0.4707,-0.992,1.16,1.214
2026-05-23 17:26:01.644,1440701100,64644,1,-0.31641,-0.55957,-0.92896,-1.588,0.26,-0.061
2026-05-23 17:26:01.644,1440701100,64644,2,-0.42822,-0.0979,-0.46704,-1.099,1.221,1.336
2026-05-23 17:26:01.844,1440701300,64844,1,-0.30933,-0.55664,-0.92944,-1.771,0.275,-0.053
2026-05-23 17:26:01.844,1440701300,64844,2,-0.43091,-0.10669,-0.46216,-0.931,1.313,1.427
2026-05-23 17:26:01.044,1440700500,65044,1,-0.31421,-0.55273,-0.93091,-1.87,0.206,-0.008
2026-05-23 17:26:01.044,1440700500,65044,2,-0.43335,-0.09741,-0.46582,-0.786,1.084,1.412
2026-05-23 17:26:01.244,1440700700,65244,1,-0.31616,-0.55664,-0.93066,-1.779,0.336,-0.13
2026-05-23 17:26:01.244,1440700700,65244,2,-0.4375,-0.10327,-0.46924,-1.008,1.061,1.275
2026-05-23 17:26:04.259,1440703715,68259,1,-0.3147,-0.55884,-0.93359,-1.664,0.237,-0.046
2026-05-23 17:26:04.259,1440703715,68259,2,-0.43188,-0.10132,-0.46484,-1.046,1.053,1.45
2026-05-23 17:26:05.459,1440704915,68459,1,-0.30859,-0.55664,-0.92578,-1.87,0.252,-0.053
2026-05-23 17:26:05.459,1440704915,68459,2,-0.43457,-0.10083,-0.46924,-1.015,0.969,1.389
2026-05-23 17:26:05.659,1440705115,68659,1,-0.31787,-0.55811,-0.93066,-1.733,0.237,-0.008
2026-05-23 17:26:05.659,1440705115,68659,2,-0.43628,-0.10547,-0.47119,-1.023,0.893,1.313
2026-05-23 17:26:05.859,1440705315,68859,1,-0.31543,-0.56274,-0.93579,-1.695,0.427,-0.031
2026-05-23 17:26:05.859,1440705315,68859,2,-0.42944,-0.10181,-0.4624,-1.344,1.023,1.252
2026-05-23 17:26:05.059,1440704515,69059,1,-0.31323,-0.55859,-0.92847,-1.679,0.511,0.038
2026-05-23 17:26:05.059,1440704515,69059,2,-0.43872,-0.09888,-0.47607,-0.962,1.099,1.405
2026-05-23 17:26:08.854,1440708310,71854,1,-0.31665,-0.55664,-0.93262,-1.863,0.252,-0.115
2026-05-23 17:26:08.854,1440708310,71854,2,-0.4314,-0.09717,-0.45972,-1.107,1.122,1.344
2026-05-23 17:26:08.054,1440707510,72054,1,-0.31543,-0.56152,-0.93506,-1.863,0.321,0.015
2026-05-23 17:26:08.054,1440707510,72054,2,-0.42896,-0.0979,-0.46924,-0.786,1.328,1.45
2026-05-23 17:26:08.254,1440707710,72254,1,-0.31226,-0.55786,-0.93262,-1.832,0.458,-0.137
2026-05-23 17:26:08.254,1440707710,72254,2,-0.42944,-0.0979,-0.46143,-1.153,1.0,1.328
2026-05-23 17:26:09.454,1440708910,72454,1,-0.31274,-0.55469,-0.92627,-1.756,0.267,-0.061
2026-05-23 17:26:09.454,1440708910,72454,2,-0.44019,-0.10181,-0.46948,-0.534,1.336,1.061
2026-05-23 17:26:09.654,1440709110,72654,1,-0.31299,-0.55469,-0.92822,-1.855,0.275,
2026-05-23 17:26:09.654,1440709110,72654,2,-0.4375,-0.10547,-0.46265,-1.0,1.046,1.466
2026-05-23 17:26:09.854,1440709310,72854,1,-0.31177,-0.56055,-0.94067,-1.718,0.061,-0.176
2026-05-23 17:26:09.854,1440709310,72854,2,-0.43726,-0.09399,-0.46338,-0.847,1.053,1.42
2026-05-23 17:26:09.054,1440708510,73054,1,-0.31787,-0.55933,-0.93457,-1.687,0.351,
2026-05-23 17:26:09.054,1440708510,73054,2,-0.43042,-0.10303,-0.45947,-0.908,1.076,1.366
2026-05-23 17:26:09.254,1440708710,73254,1,-0.31372,-0.56567,-0.9436,-1.939,0.298,-0.023
2026-05-23 17:26:09.254,1440708710,73254,2,-0.43555,-0.1001,-0.45532,-1.42,0.809,1.427
2026-05-23 17:26:10.454,1440709910,73454,1,-0.30908,-0.56128,-0.93774,-2.0,0.191,-0.214
2026-05-23 17:26:10.454,1440709910,73454,2,-0.42993,-0.10059,-0.46704,-1.336,1.137,1.305
2026-05-23 17:26:10.654,1440710110,73654,1,-0.31152,-0.55347,-0.93799,-1.656,0.26,-0.092
2026-05-23 17:26:10.654,1440710110,73654,2,-0.43555,-0.10132,-0.46655,-1.176,0.924,1.351
2026-05-23 17:26:10.854,1440710310,73854,1,-0.31104,-0.55957,-0.92627,-1.763,0.221,-0.221
2026-05-23 17:26:10.854,1440710310,73854,2,-0.43164,-0.09863,-0.47314,-1.252,1.115,1.336
2026-05-23 17:26:10.054,1440709510,74054,1,-0.31372,-0.55786,-0.93604,-1.794,0.336,-0.244
2026-05-23 17:26:10.054,1440709510,74054,2,-0.43604,-0.10132,-0.46924,-0.916,1.084,1.244
2026-05-23 17:26:10.254,1440709710,74254,1,-0.31665,-0.55371,-0.92603,-1.855,0.214,-0.206
2026-05-23 17:26:10.254,1440709710,74254,2,-0.43091,-0.09521,-0.47095,-1.344,0.809,1.328
2026-05-23 17:26:11.454,1440710910,74454,1,-0.31372,-0.55396,-0.9397,-1.679,0.336,-0.053
2026-05-23 17:26:11.454,1440710910,74454,2,-0.43726,-0.10254,-0.46704,-1.176,0.847,1.435
2026-05-23 17:26:11.654,1440711110,74654,1,-0.31348,-0.55762,-0.93213,-1.718,0.282,-0.008
2026-05-23 17:26:11.654,1440711110,74654,2,-0.43384,-0.09668,-0.46997,-1.137,1.015,1.252
2026-05-23 17:26:11.854,1440711310,74854,1,-0.30835,-0.54883,-0.93213,-1.687,0.374,-0.122
2026-05-23 17:26:11.854,1440711310,74854,2,-0.43652,-0.09888,-0.4668,-1.031,1.229,1.229
2026-05-23 17:26:11.054,1440710510,75054,1,-0.31226,-0.55298,-0.93652,-1.954,0.191,-0.084
2026-05-23 17:26:11.054,1440710510,75054,2,-0.43896,-0.10669,-0.46143,-1.099,1.008,1.344
2026-05-23 17:26:11.254,1440710710,75254,1,-0.31421,-0.55249,-0.94189,-1.863,0.237,-0.191
2026-05-23 17:26:11.254,1440710710,75254,2,-0.43311,-0.10205,-0.46606,-1.298,0.992,1.374
2026-05-23 17:26:12.454,1440711910,75454,1,-0.31494,-0.55469,-0.93481,-1.756,0.496,-0.191
2026-05-23 17:26:12.454,1440711910,75454,2,-0.43555,-0.09717,-0.47412,-0.74,1.244,1.397
2026-05-23 17:26:12.654,1440712110,75654,1,-0.31641,-0.55371,-0.94092,-1.924,0.313,-0.046
2026-05-23 17:26:12.654,1440712110,75654,2,-0.4353,-0.10767,-0.46338,-1.321,0.992,1.511
2026-05-23 17:26:12.854,1440712310,75854,1,-0.31616,-0.55566,-0.93457,-1.809,0.496,-0.198
2026-05-23 17:26:12.854,1440712310,75854,2,-0.43384,-0.10229,-0.4729,-1.122,0.901,1.237
2026-05-23 17:26:12.054,1440711510,76054,1,-0.32251,-0.5564,-0.92383,-1.779,0.145,-0.076
2026-05-23 17:26:12.054,1440711510,76054,2,-0.43848,-0.09839,-0.47266,-1.061,1.137,1.168
2026-05-23 17:26:12.254,1440711710,76254,1,-0.31323,-0.55566,-0.93091,-1.74,0.374,-0.153
2026-05-23 17:26:12.254,1440711710,76254,2,-0.44116,-0.10083,-0.46655,-0.992,0.992,1.313
2026-05-23 17:26:13.454,1440712910,76454,1,-0.31274,-0.56006,-0.93872,-1.702,0.29,-0.221
2026-05-23 17:26:13.454,1440712910,76454,2,-0.43384,-0.10107,-0.47144,-0.893,1.069,1.275
2026-05-23 17:26:13.654,1440713110,76654,1,-0.31006,-0.55225,-0.93213,-1.893,0.351,-0.214
2026-05-23 17:26:13.654,1440713110,76654,2,-0.43726,-0.09912,-0.479,-1.015,1.053,1.321
2026-05-23 17:26:13.854,1440713310,76854,1,-0.31763,-0.55542,-0.93115,-1.893,0.427,0.092
2026-05-23 17:26:13.854,1440713310,76854,2,-0.43042,-0.10474,-0.46997,-1.008,1.168,1.275
2026-05-23 17:26:13.054,1440712510,77054,1,-0.31299,-0.55933,-0.93848,-1.756,0.427,0.015
2026-05-23 17:26:13.054,1440712510,77054,2,-0.43457,-0.10278,-0.46436,-1.16,1.137,1.435
2026-05-23 17:26:13.254,1440712710,77254,1,-0.31763,-0.55664,-0.93848,-1.786,0.351,0.008
2026-05-23 17:26:13.254,1440712710,77254,2,-0.43555,-0.09863,-0.4729,-0.924,1.084,1.412
2026-05-23 17:26:14.454,1440713910,77454,1,-0.30908,-0.55566,-0.93481,-1.771,0.176,-0.221
2026-05-23 17:26:14.454,1440713910,77454,2,-0.43042,-0.10303,-0.47095,-1.069,1.176,1.351
2026-05-23 17:26:14.654,1440714110,77654,1,-0.30933,-0.55542,-0.92993,-1.672,0.137,-0.053
2026-05-23 17:26:14.654,1440714110,77654,2,-0.43579,-0.10034,-0.46875,-1.122,1.107,1.336
2026-05-23 17:26:14.854,1440714310,77854,1,-0.31543,-0.55273,-0.92871,-1.794,0.252,-0.069
2026-05-23 17:26:14.854,1440714310,77854,2,-0.43384,-0.104,-0.47046,-0.901,1.092,1.374
2026-05-23 17:26:14.054,1440713510,78054,1,-0.31494,-0.54956,-0.92554,-1.908,0.153,-0.061
2026-05-23 17:26:14.054,1440713510,78054,2,-0.43066,-0.10107,-0.46851,-1.053,0.969,1.344
2026-05-23 17:26:14.254,1440713710,78254,1,-0.31323,-0.55688,-0.93018,-1.733,0.366,-0.321
2026-05-23 17:26:14.254,1440713710,78254,2,-0.42993,-0.1001,-0.46948,-1.206,0.985,1.214
2026-05-23 17:26:15.454,1440714910,78454,1,-0.3186,-0.55737,-0.93115,-1.885,0.351,-0.015
2026-05-23 17:26:15.454,1440714910,78454,2,-0.43604,-0.10034,-0.46484,-1.015,1.046,1.351
2026-05-23 17:26:15.654,1440715110,78654,1,-0.3125,-0.55371,-0.93823,-1.664,0.26,-0.031
2026-05-23 17:26:15.654,1440715110,78654,2,-0.42969,-0.10156,-0.4624,-1.107,0.962,1.321
2026-05-23 17:26:15.854,1440715310,78854,1,-0.31494,-0.55542,-0.92944,-1.87,0.397,-0.221
2026-05-23 17:26:15.854,1440715310,78854,2,-0.43359,-0.09692,-0.47266,-1.031,1.183,1.321
2026-05-23 17:26:15.054,1440714510,79054,1,-0.31372,-0.56128,-0.9353,-1.71,0.313,0.13
2026-05-23 17:26:15.054,1440714510,79054,2,-0.43286,-0.10083,-0.4624,-0.954,1.008,1.107
2026-05-23 17:26:15.254,1440714710,79254,1,-0.31128,-0.55762,-0.9314,-1.855,0.237,-0.275
2026-05-23 17:26:15.254,1440714710,79254,2,-0.43018,-0.10059,-0.46704,-1.153,1.198,1.389
2026-05-23 17:26:16.454,1440715910,79454,1,-0.31738,-0.55957,-0.94238,-1.786,0.206,0.015
2026-05-23 17:26:16.454,1440715910,79454,2,-0.42944,-0.10938,-0.46216,-1.237,1.191,1.374
2026-05-23 17:26:16.654,1440716110,79654,1,-0.31299,-0.54858,-0.93262,-1.74,0.267,-0.084
2026-05-23 17:26:16.654,1440716110,79654,2,-0.43701,-0.10352,-0.47461,-0.947,1.069,1.435
2026-05-23 17:26:16.854,1440716310,79854,1,-0.31128,-0.55957,-0.93481,-1.863,0.061,-0.198
2026-05-23 17:26:16.854,1440716310,79854,2,-0.43872,-0.10498,-0.46655,-1.206,1.031,1.122
2026-05-23 17:26:16.054,1440715510,80054,1,-0.31641,-0.56128,-0.91821,-1.771,0.374,-0.031
2026-05-23 17:26:16.054,1440715510,80054,2,-0.43408,-0.1001,-0.46753,-1.16,0.817,1.282
2026-05-23 17:26:16.254,1440715710,80254,1,-0.31543,-0.55298,-0.93091,-1.763,0.321,-0.046
2026-05-23 17:26:16.254,1440715710,80254,2,-0.43433,-0.09863,-0.46753,-1.16,1.176,1.183
2026-05-23 17:26:17.454,1440716910,80454,1,-0.31299,-0.55469,-0.93335,-2.008,0.443,-0.237
2026-05-23 17:26:17.454,1440716910,80454,2,-0.43091,-0.09961,-0.46631,-1.145,0.992,1.573
2026-05-23 17:26:17.654,1440717110,80654,1,-0.31445,-0.55444,-0.92285,-1.634,0.344,-0.176
2026-05-23 17:26:17.654,1440717110,80654,2,-0.43579,-0.10522,-0.46924,-0.672,1.328,1.137
2026-05-23 17:26:17.854,1440717310,80854,1,-0.31201,-0.55249,-0.92529,-1.748,0.366,-0.16
2026-05-23 17:26:17.854,1440717310,80854,2,-0.43091,-0.10059,-0.46924,-0.901,0.931,1.237
2026-05-23 17:26:17.054,1440716510,81054,1,-0.31958,-0.55811,-0.93945,-1.893,0.397,-0.145
2026-05-23 17:26:17.054,1440716510,81054,2,-0.43799,-0.10791,-0.4707,-0.947,1.206,1.229
2026-05-23 17:26:17.254,1440716710,81254,1,-0.31201,-0.55591,-0.93091,-1.786,0.397,-0.046
2026-05-23 17:26:17.254,1440716710,81254,2,-0.43384,-0.104,-0.46655,-1.153,1.038,1.321
2026-05-23 17:26:18.454,1440717910,81454,1,-0.31396,-0.56055,-0.9314,-1.733,0.336,-0.16
2026-05-23 17:26:18.454,1440717910,81454,2,-0.43921,-0.09961,-0.46997,-1.328,0.885,1.298
2026-05-23 17:26:18.654,1440718110,81654,1,-0.31763,-0.55444,-0.9292,-1.656,0.45,0.107
2026-05-23 17:26:18.654,1440718110,81654,2,-0.43481,-0.10669,-0.46655,-1.389,0.695,1.42
2026-05-23 17:26:18.854,1440718310,81854,1,-0.323,-0.5542,-0.93359,-1.649,0.389,-0.046
2026-05-23 17:26:18.854,1440718310,81854,2,-0.43384,-0.10254,-0.46875,-1.198,0.908,1.115
2026-05-23 17:26:18.054,1440717510,82054,1,-0.3125,-0.55591,-0.93506,-1.595,0.29,0.153
2026-05-23 17:26:18.054,1440717510,82054,2,-0.42627,-0.10254,-0.46777,-1.198,1.092,1.183
2026-05-23 17:26:18.254,1440717710,82254,1,-0.31299,-0.55664,-0.92773,-1.649,0.45,-0.198
2026-05-23 17:26:18.254,1440717710,82254,2,-0.43481,-0.09741,-0.46606,-1.122,1.053,1.198
2026-05-23 17:26:19.454,1440718910,82454,1,-0.30737,-0.56104,-0.92041,-1.771,0.092,-0.031
2026-05-23 17:26:19.454,1440718910,82454,2,-0.43555,-0.10522,-0.46484,-1.099,1.298,1.137
2026-05-23 17:26:19.654,1440719110,82654,1,-0.3186,-0.55737,-0.92749,-1.71,0.351,-0.153
2026-05-23 17:26:19.654,1440719110,82654,2,-0.43164,-0.09766,-0.47534,-1.061,0.985,1.351
2026-05-23 17:26:19.854,1440719310,82854,1,-0.3147,-0.55957,-0.93286,-1.794,0.336,0.076
2026-05-23 17:26:19.854,1440719310,82854,2,-0.43604,-0.1001,-0.47046,-1.137,0.908,1.221
2026-05-23 17:26:19.054,1440718510,83054,1,-0.31592,-0.55859,-0.9292,-1.542,0.359,-0.046
2026-05-23 17:26:19.054,1440718510,83054,2,-0.43774,-0.10425,-0.47217,-0.817,1.183,1.206
2026-05-23 17:26:19.254,1440718710,83254,1,-0.3147,-0.55615,-0.93384,-1.763,0.191,-0.099
2026-05-23 17:26:19.254,1440718710,83254,2,-0.43555,-0.10376,-0.46777,-1.13,1.046,1.214
2026-05-23 17:26:20.454,1440719910,83454,1,-0.31348,-0.55957,-0.92871,-1.802,0.237,-0.092
2026-05-23 17:26:20.454,1440719910,83454,2,-0.43335,-0.09888,-0.46655,-1.275,0.916,1.458
2026-05-23 17:26:20.654,1440720110,83654,1,-0.30981,-0.55371,-0.92798,-1.687,0.344,-0.221
2026-05-23 17:26:20.654,1440720110,83654,2,-0.43457,-0.09888,-0.47119,-1.183,1.16,1.29
2026-05-23 17:26:20.854,1440720310,83854,1,-0.31616,-0.55664,-0.93237,-1.954,0.366,0.023
2026-05-23 17:26:20.854,1440720310,83854,2,-0.42798,-0.10132,-0.46802,-0.817,1.244,1.397
2026-05-23 17:26:20.054,1440719510,84054,1,-0.3147,-0.55469,-0.93335,-1.588,0.214,-0.275
2026-05-23 17:26:20.054,1440719510,84054,2,-0.4292,-0.10156,-0.46802,-0.779,1.168,1.328
2026-05-23 17:26:20.254,1440719710,84254,1,-0.32471,-0.55518,-0.93262,-1.695,0.221,-0.115
2026-05-23 17:26:20.254,1440719710,84254,2,-0.43042,-0.09668,-0.47144,-1.107,1.061,1.397
2026-05-23 17:26:21.454,1440720910,84454,1,-0.32007,-0.55713,-0.92773,-1.832,0.298,-0.015
2026-05-23 17:26:21.454,1440720910,84454,2,-0.43433,-0.10352,-0.46411,-1.008,1.076,1.115
2026-05-23 17:26:21.654,1440721110,84654,1,-0.31836,-0.55396,-0.92529,-1.74,0.29,-0.206
2026-05-23 17:26:21.654,1440721110,84654,2,-0.43286,-0.10254,-0.46558,-0.763,1.099,1.137
2026-05-23 17:26:21.854,1440721310,84854,1,-0.31201,-0.56104,-0.93481,-1.817,0.366,-0.107
2026-05-23 17:26:21.854,1440721310,84854,2,-0.42896,-0.104,-0.47461,-1.107,1.206,1.305
2026-05-23 17:26:21.054,1440720510,85054,1,-0.31323,-0.5603,-0.9353,-1.817,0.351,-0.183
2026-05-23 17:26:21.054,1440720510,85054,2,-0.43262,-0.10938,-0.47632,-0.87,1.13,1.328
2026-05-23 17:26:21.254,1440720710,85254,1,-0.31567,-0.55298,-0.93481,-1.885,0.389,-0.122
2026-05-23 17:26:21.254,1440720710,85254,2,-0.43115,-0.10034,-0.46484,-1.473,0.893,1.267
2026-05-23 17:26:22.454,1440721910,85454,1,-0.30957,-0.55835,-0.93726,-1.916,0.336,-0.122
2026-05-23 17:26:22.454,1440721910,85454,2,-0.43872,-0.10693,-0.46948,-1.145,1.0,1.382
2026-05-23 17:26:22.654,1440722110,85654,1,-0.31396,-0.55518,-0.93823,-1.924,0.351,-0.13
2026-05-23 17:26:22.654,1440722110,85654,2,-0.43848,-0.10791,-0.47485,-1.115,0.847,1.45
2026-05-23 17:26:22.854,1440722310,85854,1,-0.31128,-0.55347,-0.92725,-1.664,0.458,-0.198
2026-05-23 17:26:22.854,1440722310,85854,2,-0.43018,-0.10742,-0.46899,-0.992,0.931,1.443
2026-05-23 17:26:22.054,1440721510,86054,1,-0.31567,-0.55396,-0.93555,-1.893,0.305,0.008
2026-05-23 17:26:22.054,1440721510,86054,2,-0.42896,-0.09985,-0.46338,-1.214,0.954,1.427
2026-05-23 17:26:22.254,1440721710,86254,1,-0.31543,-0.5564,-0.93701,-1.733,0.366,-0.023
2026-05-23 17:26:22.254,1440721710,86254,2,-0.42969,-0.09863,-0.46265,-1.145,1.023,1.237
2026-05-23 17:26:23.454,1440722910,86454,1,-0.3147,-0.55566,-0.92554,-1.733,0.237,-0.069
2026-05-23 17:26:23.454,1440722910,86454,2,-0.43164,-0.09351,-0.46265,-1.0,1.282,1.198
2026-05-23 17:26:23.654,1440723110,86654,1,-0.31274,-0.5564,-0.94092,-1.817,0.267,-0.229
2026-05-23 17:26:23.654,1440723110,86654,2,-0.43799,-0.10059,-0.47192,-1.031,0.939,1.191
2026-05-23 17:26:23.854,1440723310,86854,1,-0.30981,-0.55615,-0.93164,-1.733,0.374,-0.031
2026-05-23 17:26:23.854,1440723310,86854,2,-0.43481,-0.10474,-0.46631,-1.122,0.977,1.473
2026-05-23 17:26:23.054,1440722510,87054,1,-0.30811,-0.55127,-0.92773,-1.863,0.336,-0.023
2026-05-23 17:26:23.054,1440722510,87054,2,-0.42871,-0.09985,-0.46802,-1.275,0.901,1.206
2026-05-23 17:26:23.254,1440722710,87254,1,-0.31738,-0.55908,-0.93335,-1.649,0.237,-0.038
2026-05-23 17:26:23.254,1440722710,87254,2,-0.43408,-0.10205,-0.46655,-1.244,0.977,1.473
2026-05-23 17:26:24.454,1440723910,87454,1,-0.31299,-0.5603,-0.93652,-1.947,0.267,-0.069
2026-05-23 17:26:24.454,1440723910,87454,2,-0.43286,-0.10571,-0.46289,-1.244,1.038,1.473
2026-05-23 17:26:24.654,1440724110,87654,1,-0.31665,-0.55518,-0.9292,-1.794,0.336,-0.13
2026-05-23 17:26:24.654,1440724110,87654,2,-0.43652,-0.10352,-0.46436,-1.084,0.962,1.321
2026-05-23 17:26:24.854,1440724310,87854,1,-0.3147,-0.55396,-0.93604,-1.87,0.252,-0.053
2026-05-23 17:26:24.854,1440724310,87854,2,-0.43628,-0.10229,-0.47461,-1.069,1.183,1.252
2026-05-23 17:26:24.054,1440723510,88054,1,-0.31592,-0.55957,-0.9397,-1.924,0.229,0.061
2026-05-23 17:26:24.054,1440723510,88054,2,-0.43262,-0.10547,-0.46313,-0.863,1.061,1.321
2026-05-23 17:26:24.254,1440723710,88254,1,-0.31787,-0.55298,-0.92407,-1.733,0.237,-0.145
2026-05-23 17:26:24.254,1440723710,88254,2,-0.43481,-0.10254,-0.46606,-0.84,1.015,1.229
2026-05-23 17:26:25.454,1440724910,88454,1,-0.30957,-0.56299,-0.93115,-2.0,0.336,-0.008
2026-05-23 17:26:25.454,1440724910,88454,2,-0.43262,-0.10156,-0.47046,-0.832,1.176,1.321
2026-05-23 17:26:25.654,1440725110,88654,1,-0.31372,-0.55078,-0.93774,-1.664,0.176,-0.084
2026-05-23 17:26:25.654,1440725110,88654,2,-0.43237,-0.09961,-0.47461,-1.412,0.969,1.29
2026-05-23 17:26:25.854,1440725310,88854,1,-0.31445,-0.55615,-0.93262,-1.847,0.244,-0.069
2026-05-23 17:26:25.854,1440725310,88854,2,-0.43311,-0.10547,-0.47144,-1.351,0.863,1.496
2026-05-23 17:26:25.054,1440724510,89054,1,-0.31885,-0.55981,-0.9209,-1.992,0.458,-0.069
2026-05-23 17:26:25.054,1440724510,89054,2,-0.43237,-0.10425,-0.45996,-0.74,0.947,1.405
2026-05-23 17:26:25.254,1440724710,89254,1,-0.31714,-0.55347,-0.93115,-1.947,0.282,-0.305
2026-05-23 17:26:25.254,1440724710,89254,2,-0.43066,-0.10303,-0.46924,-1.191,1.008,1.458
2026-05-23 17:26:26.454,1440725910,89454,1,-0.31519,-0.55249,-0.93628,-2.015,0.267,-0.053
2026-05-23 17:26:26.454,1440725910,89454,2,-0.43701,-0.10229,-0.46777,-0.992,1.206,1.389
2026-05-23 17:26:26.654,1440726110,89654,1,-0.31079,-0.55469,-0.9292,-1.519,0.458,-0.359
2026-05-23 17:26:26.654,1440726110,89654,2,-0.43726,-0.10376,-0.46167,-0.962,1.084,1.16
2026-05-23 17:26:26.854,1440726310,89854,1,-0.31274,-0.55664,-0.93213,-0.786,0.611,-0.687
2026-05-23 17:26:26.854,1440726310,89854,2,-0.44189,-0.09766,-0.46875,-0.885,1.137,1.275
2026-05-23 17:26:26.054,1440725510,90054,1,-0.31982,-0.55469,-0.94287,-0.962,0.595,-0.504
2026-05-23 17:26:26.054,1440725510,90054,2,-0.43384,-0.09937,-0.46704,-1.076,1.168,1.336
2026-05-23 17:26:26.254,1440725710,90254,1,-0.31665,-0.55664,-0.93994,-1.969,0.168,0.16
2026-05-23 17:26:26.254,1440725710,90254,2,-0.43701,-0.10327,-0.46924,-0.962,1.107,1.351
2026-05-23 17:26:27.454,1440726910,90454,1,-0.31201,-0.55347,-0.93848,-1.977,0.153,0.115
2026-05-23 17:26:27.454,1440726910,90454,2,-0.43262,-0.10474,-0.46558,-0.939,1.16,1.359
2026-05-23 17:26:27.654,1440727110,90654,1,-0.31982,-0.55396,-0.93677,-1.87,0.16,-0.107
2026-05-23 17:26:27.654,1440727110,90654,2,-0.43579,-0.1001,-0.4624,-1.191,0.985,1.336
2026-05-23 17:26:27.854,1440727310,90854,1,-0.31982,-0.55615,-0.9353,-1.71,0.336,-0.115
2026-05-23 17:26:27.854,1440727310,90854,2,-0.43848,-0.10156,-0.46094,-0.863,0.962,1.359
2026-05-23 17:26:27.054,1440726510,91054,1,-0.31348,-0.55347,-0.93433,-1.885,0.16,-0.008
2026-05-23 17:26:27.054,1440726510,91054,2,-0.43726,-0.11133,-0.46045,-1.061,1.229,1.344
2026-05-23 17:26:27.254,1440726710,91254,1,-0.31104,-0.55884,-0.93774,-1.603,0.389,-0.137
2026-05-23 17:26:27.254,1440726710,91254,2,-0.43164,-0.10181,-0.4624,-1.0,1.176,1.29
2026-05-23 17:26:28.454,1440727910,91454,1,-0.30664,-0.55737,-0.94092,-2.16,0.298,0.198
2026-05-23 17:26:28.454,1440727910,91454,2,-0.43018,-0.10229,-0.46802,-1.13,1.069,1.26
2026-05-23 17:26:28.654,1440728110,91654,1,-0.31616,-0.55273,-0.93652,-1.565,0.397,-0.313
2026-05-23 17:26:28.654,1440728110,91654,2,-0.43726,-0.09644,-0.47339,-0.992,0.969,1.252
2026-05-23 17:26:28.854,1440728310,91854,1,-0.31641,-0.54932,-0.93384,-1.824,0.153,0.061
2026-05-23 17:26:28.854,1440728310,91854,2,-0.43604,-0.09888,-0.47607,-1.115,1.359,1.496
2026-05-23 17:26:28.054,1440727510,92054,1,-0.31787,-0.55591,-0.94043,-1.809,0.359,-0.023
2026-05-23 17:26:28.054,1440727510,92054,2,-0.42822,-0.10254,-0.47363,-1.092,0.901,1.16
2026-05-23 17:26:28.254,1440727710,92254,1,-0.31152,-0.55078,-0.92896,-1.626,0.282,-0.198
2026-05-23 17:26:28.254,1440727710,92254,2,-0.43994,-0.1001,-0.47412,-0.992,1.084,1.42
2026-05-23 17:26:29.454,1440728910,92454,1,-0.31592,-0.55322,-0.92651,-1.656,0.26,-0.153
2026-05-23 17:26:29.454,1440728910,92454,2,-0.43286,-0.10229,-0.46826,-1.038,1.031,1.466
2026-05-23 17:26:29.654,1440729110,92654,1,-0.31763,-0.55518,-0.93237,-1.725,0.237,0.076
2026-05-23 17:26:29.654,1440729110,92654,2,-0.42847,-0.10254,-0.47217,-1.145,1.092,1.221
2026-05-23 17:26:29.854,1440729310,92854,1,-0.31616,-0.55225,-0.93481,-1.733,0.328,0.092
2026-05-23 17:26:29.854,1440729310,92854,2,-0.43481,-0.0957,-0.46924,-0.939,1.16,1.282
2026-05-23 17:26:29.054,1440728510,93054,1,-0.3147,-0.55078,-0.93262,-1.725,0.191,-0.145
2026-05-23 17:26:29.054,1440728510,93054,2,-0.43018,-0.10156,-0.47192,-1.031,1.206,1.374
2026-05-23 17:26:29.254,1440728710,93254,1,-0.31738,-0.56177,-0.94067,-1.74,0.237,0.038
2026-05-23 17:26:29.254,1440728710,93254,2,-0.43311,-0.10205,-0.46802,-0.947,0.969,1.481
2026-05-23 17:26:30.454,1440729910,93454,1,-0.31665,-0.55566,-0.93188,-1.649,0.328,-0.153
2026-05-23 17:26:30.454,1440729910,93454,2,-0.43726,-0.10229,-0.47534,-1.206,0.954,1.046
2026-05-23 17:26:30.654,1440730110,93654,1,-0.31274,-0.55811,-0.94019,-1.87,0.26,-0.031
2026-05-23 17:26:30.654,1440730110,93654,2,-0.43579,-0.10205,-0.46875,-0.954,0.962,1.229
2026-05-23 17:26:30.854,1440730310,93854,1,-0.31714,-0.54443,-0.93164,-1.832,0.214,-0.084
2026-05-23 17:26:30.854,1440730310,93854,2,-0.43628,-0.10449,-0.46289,-0.924,0.992,1.176
2026-05-23 17:26:30.054,1440729510,94054,1,-0.31152,-0.55493,-0.93457,-1.641,0.351,-0.115
2026-05-23 17:26:30.054,1440729510,94054,2,-0.43286,-0.10132,-0.46411,-1.092,0.969,1.328
2026-05-23 17:26:30.254,1440729710,94254,1,-0.32104,-0.55371,-0.92993,-1.695,0.145,-0.214
2026-05-23 17:26:30.254,1440729710,94254,2,-0.43335,-0.1001,-0.46948,-1.046,0.969,1.466
2026-05-23 17:26:31.454,1440730910,94454,1,-0.31616,-0.55371,-0.94507,-2.015,0.305,-0.038
2026-05-23 17:26:31.454,1440730910,94454,2,-0.43555,-0.10034,-0.46289,-0.794,1.023,1.298
2026-05-23 17:26:31.654,1440731110,94654,1,-0.31567,-0.55176,-0.93481,-1.656,0.351,-0.115
2026-05-23 17:26:31.654,1440731110,94654,2,-0.43164,-0.10547,-0.47705,-1.374,0.954,1.336
2026-05-23 17:26:31.854,1440731310,94854,1,-0.31299,-0.55225,-0.93042,-1.634,0.275,-0.137
2026-05-23 17:26:31.854,1440731310,94854,2,-0.43091,-0.09766,-0.46899,-1.214,1.115,1.389
2026-05-23 17:26:31.054,1440730510,95054,1,-0.31567,-0.55249,-0.93652,-1.794,0.298,-0.092
2026-05-23 17:26:31.054,1440730510,95054,2,-0.43652,-0.10596,-0.47021,-1.099,0.954,1.16
2026-05-23 17:26:31.254,1440730710,95254,1,-0.31714,-0.55371,-0.94141,-1.618,0.382,-0.008
2026-05-23 17:26:31.254,1440730710,95254,2,-0.43677,-0.1062,-0.47803,-1.153,0.817,1.282
2026-05-23 17:26:32.454,1440731910,95454,1,-0.31689,-0.55762,-0.93652,-1.847,0.435,0.046
2026-05-23 17:26:32.454,1440731910,95454,2,-0.43652,-0.10376,-0.46899,-0.969,0.931,1.473
2026-05-23 17:26:32.654,1440732110,95654,1,-0.31958,-0.55029,-0.93213,-1.786,0.313,-0.038
2026-05-23 17:26:32.654,1440732110,95654,2,-0.43433,-0.09814,-0.46216,-0.985,0.893,1.29
2026-05-23 17:26:32.854,1440732310,95854,1,-0.31714,-0.5542,-0.94043,-1.84,0.168,-0.145
2026-05-23 17:26:32.854,1440732310,95854,2,-0.4353,-0.09717,-0.46411,-1.031,1.122,1.321
2026-05-23 17:26:32.054,1440731510,96054,1,-0.31543,-0.54858,-0.93237,-1.916,0.198,-0.099
2026-05-23 17:26:32.054,1440731510,96054,2,-0.43384,-0.10132,-0.47241,-0.969,1.053,1.275
2026-05-23 17:26:32.254,1440731710,96254,1,-0.32227,-0.54663,-0.93921,-1.794,0.321,-0.153
2026-05-23 17:26:32.254,1440731710,96254,2,-0.42969,-0.09546,-0.47021,-0.985,0.954,1.252
2026-05-23 17:26:33.454,1440732910,96454,1,-0.31372,-0.55444,-0.93164,-1.824,0.374,-0.13
2026-05-23 17:26:33.454,1440732910,96454,2,-0.43164,-0.10156,-0.479,-1.16,1.206,1.183
2026-05-23 17:26:33.654,1440733110,96654,1,-0.3125,-0.54932,-0.92261,-1.855,0.313,-0.099
2026-05-23 17:26:33.654,1440733110,96654,2,-0.42993,-0.09595,-0.46924,-0.992,0.901,1.26
2026-05-23 17:26:33.854,1440733310,96854,1,-0.31226,-0.55591,-0.93921,-1.74,0.198,-0.038
2026-05-23 17:26:33.854,1440733310,96854,2,-0.43701,-0.09741,-0.46606,-0.924,1.0,1.061
2026-05-23 17:26:33.054,1440732510,97054,1,-0.31543,-0.55298,-0.93359,-1.786,0.313,-0.099
2026-05-23 17:26:33.054,1440732510,97054,2,-0.43579,-0.1062,-0.46802,-1.038,1.168,1.443
2026-05-23 17:26:33.254,1440732710,97254,1,-0.31323,-0.55322,-0.93481,-1.893,0.504,-0.137
2026-05-23 17:26:33.254,1440732710,97254,2,-0.43335,-0.10083,-0.46338,-1.191,1.153,1.328
2026-05-23 17:26:34.454,1440733910,97454,1,-0.31592,-0.54663,-0.94385,-1.992,0.267,-0.107
2026-05-23 17:26:34.454,1440733910,97454,2,-0.43774,-0.10547,-0.47314,-1.267,1.145,1.198
2026-05-23 17:26:34.654,1440734110,97654,1,-0.31909,-0.55322,-0.9353,-1.71,0.374,0.145
2026-05-23 17:26:34.654,1440734110,97654,2,-0.43628,-0.10254,-0.46948,-1.13,0.84,1.42
2026-05-23 17:26:34.854,1440734310,97854,1,-0.31494,-0.55005,-0.94116,-1.87,0.359,-0.183
2026-05-23 17:26:34.854,1440734310,97854,2,-0.43262,-0.10034,-0.47485,-0.969,1.183,1.237
2026-05-23 17:26:34.054,1440733510,98054,1,-0.31738,-0.5481,-0.93652,-1.679,0.099,-0.153
2026-05-23 17:26:34.054,1440733510,98054,2,-0.43555,-0.10718,-0.46606,-1.115,0.931,1.282
2026-05-23 17:26:34.254,1440733710,98254,1,-0.32007,-0.55005,-0.93701,-1.786,0.145,0.015
2026-05-23 17:26:34.254,1440733710,98254,2,-0.4375,-0.10547,-0.47363,-0.771,1.16,1.16
2026-05-23 17:26:35.454,1440734910,98454,1,-0.31274,-0.55444,-0.92798,-1.901,0.328,0.076
2026-05-23 17:26:35.454,1440734910,98454,2,-0.43481,-0.09985,-0.47241,-1.13,1.0,1.176
2026-05-23 17:26:35.654,1440735110,98654,1,-0.30884,-0.5481,-0.93848,-1.763,0.252,-0.244
2026-05-23 17:26:35.654,1440735110,98654,2,-0.43481,-0.09668,-0.46558,-0.832,1.076,1.267
2026-05-23 17:26:35.854,1440735310,98854,1,-0.31885,-0.55884,-0.94067,-1.908,0.321,-0.221
2026-05-23 17:26:35.854,1440735310,98854,2,-0.43091,-0.10352,-0.47437,-1.298,0.908,1.321
2026-05-23 17:26:35.054,1440734510,99054,1,-0.3147,-0.54785,-0.93457,-1.779,0.389,-0.069
2026-05-23 17:26:35.054,1440734510,99054,2,-0.43262,-0.09595,-0.46875,-0.817,1.115,1.344
2026-05-23 17:26:35.254,1440734710,99254,1,-0.31396,-0.55273,-0.93311,-1.802,0.29,0.031
2026-05-23 17:26:35.254,1440734710,99254,2,-0.43506,-0.10034,-0.46606,-1.115,0.954,1.191
2026-05-23 17:26:36.454,1440735910,99454,1,-0.31177,-0.55713,-0.9314,-2.008,0.443,-0.069
2026-05-23 17:26:36.454,1440735910,99454,2,-0.43311,-0.10449,-0.46582,-0.931,1.015,1.374
2026-05-23 17:26:36.654,1440736110,99654,1,-0.32056,-0.55273,-0.93628,-1.771,0.244,-0.015
2026-05-23 17:26:36.654,1440736110,99654,2,-0.43506,-0.09741,-0.46558,-1.099,1.198,1.29
2026-05-23 17:26:36.854,1440736310,99854,1,-0.31445,-0.55444,-0.93652,-1.832,0.366,-0.107
2026-05-23 17:26:36.854,1440736310,99854,2,-0.43408,-0.09912,-0.47144,-0.84,1.252,1.244
2026-05-23 17:26:36.054,1440735510,100054,1,-0.31421,-0.5481,-0.93872,-1.908,0.267,-0.16
2026-05-23 17:26:36.054,1440735510,100054,2,-0.43311,-0.104,-0.45874,-1.176,1.244,1.412
2026-05-23 17:26:36.254,1440735710,100254,1,-0.31885,-0.5481,-0.9353,-1.748,0.29,0.069
2026-05-23 17:26:36.254,1440735710,100254,2,-0.43286,-0.10425,-0.46875,-0.733,1.214,1.382
2026-05-23 17:26:37.454,1440736910,100454,1,-0.31714,-0.54956,-0.92773,-1.679,0.237,-0.099
2026-05-23 17:26:37.454,1440736910,100454,2,-0.43384,-0.10132,-0.46094,-1.305,1.092,1.198
2026-05-23 17:26:37.654,1440737110,100654,1,-0.323,-0.55322,-0.93799,-1.748,0.366,-0.023
2026-05-23 17:26:37.654,1440737110,100654,2,-0.43921,-0.10815,-0.46558,-0.87,1.0,1.321
2026-05-23 17:26:37.854,1440737310,100854,1,-0.31885,-0.5564,-0.93262,-1.718,0.321,0.046
2026-05-23 17:26:37.854,1440737310,100854,2,-0.43726,-0.09546,-0.47314,-1.061,1.053,1.405
2026-05-23 17:26:37.054,1440736510,101054,1,-0.31323,-0.54663,-0.93628,-1.809,0.29,-0.031
2026-05-23 17:26:37.054,1440736510,101054,2,-0.43384,-0.10425,-0.46753,-0.954,1.0,1.382
2026-05-23 17:26:37.254,1440736710,101254,1,-0.31079,-0.55249,-0.93872,-1.832,0.366,-0.015
2026-05-23 17:26:37.254,1440736710,101254,2,-0.43433,-0.10156,-0.46777,-1.053,1.099,1.298
2026-05-23 17:26:38.454,1440737910,101454,1,-0.31665,-0.55225,-0.9397,-1.733,0.359,-0.16
2026-05-23 17:26:38.454,1440737910,101454,2,-0.43652,-0.10254,-0.46411,-1.053,1.229,1.267
2026-05-23 17:26:38.654,1440738110,101654,1,-0.31567,-0.55493,-0.94165,-1.71,0.191,-0.053
2026-05-23 17:26:38.654,1440738110,101654,2,-0.43335,-0.1062,-0.4646,-0.985,0.962,1.275
2026-05-23 17:26:38.854,1440738310,101854,1,-0.31323,-0.54883,-0.9375,-1.84,0.107,-0.046
2026-05-23 17:26:38.854,1440738310,101854,2,-0.43506,-0.10352,-0.4646,-1.137,0.916,1.275
2026-05-23 17:26:38.054,1440737510,102054,1,-0.31543,-0.55322,-0.93604,-1.679,0.29,-0.031
2026-05-23 17:26:38.054,1440737510,102054,2,-0.43066,-0.10278,-0.4751,-1.061,0.977,1.275
2026-05-23 17:26:38.254,1440737710,102254,1,-0.31738,-0.55127,-0.93066,-1.794,0.359,-0.122
2026-05-23 17:26:38.254,1440737710,102254,2,-0.43335,-0.10107,-0.46582,-1.16,0.992,1.443
2026-05-23 17:26:39.454,1440738910,102454,1,-0.31812,-0.5459,-0.93384,-1.977,0.221,0.038
2026-05-23 17:26:39.454,1440738910,102454,2,-0.42847,-0.10205,-0.46851,-1.084,1.038,1.244
2026-05-23 17:26:39.654,1440739110,102654,1,-0.31616,-0.55615,-0.93286,-1.618,0.328,-0.16
2026-05-23 17:26:39.654,1440739110,102654,2,-0.43652,-0.10229,-0.46753,-1.206,1.107,1.328
2026-05-23 17:26:39.854,1440739310,102854,1,-0.31738,-0.55078,-0.93457,-1.786,0.481,-0.061
2026-05-23 17:26:39.854,1440739310,102854,2,-0.43555,-0.10303,-0.46533,-1.237,1.015,1.412
2026-05-23 17:26:39.054,1440738510,103054,1,-0.31567,-0.55371,-0.93701,-1.611,0.29,-0.092
2026-05-23 17:26:39.054,1440738510,103054,2,-0.43604,-0.10107,-0.46753,-0.924,1.145,1.443
2026-05-23 17:26:39.254,1440738710,103254,1,-0.31812,-0.55176,-0.94165,-1.748,0.244,-0.099
2026-05-23 17:26:39.254,1440738710,103254,2,-0.43066,-0.10181,-0.47412,-1.0,0.962,1.229
2026-05-23 17:26:40.454,1440739910,103454,1,-0.31201,-0.55176,-0.93164,-1.58,0.313,0.038
2026-05-23 17:26:40.454,1440739910,103454,2,-0.43164,-0.09863,-0.46655,-0.992,0.947,1.466
2026-05-23 17:26:40.654,1440740110,103654,1,-0.31396,-0.5542,-0.93384,-1.718,0.26,-0.115
2026-05-23 17:26:40.654,1440740110,103654,2,-0.43799,-0.09766,-0.47461,-1.076,0.954,1.206
2026-05-23 17:26:40.854,1440740310,103854,1,-0.31396,-0.55103,-0.92554,-1.969,0.298,0.084
2026-05-23 17:26:40.854,1440740310,103854,2,-0.43262,-0.104,-0.4646,-1.0,1.229,1.145
2026-05-23 17:26:40.054,1440739510,104054,1,-0.31152,-0.55127,-0.93628,-1.641,0.382,-0.214
2026-05-23 17:26:40.054,1440739510,104054,2,-0.43311,-0.104,-0.46777,-0.901,0.962,1.565
2026-05-23 17:26:40.254,1440739710,104254,1,-0.31616,-0.55298,-0.94214,-1.718,0.397,-0.076
2026-05-23 17:26:40.254,1440739710,104254,2,-0.4397,-0.10498,-0.47437,-1.061,0.885,1.191
2026-05-23 17:26:41.454,1440740910,104454,1,-0.31738,-0.55176,-0.9353,-1.763,0.313,-0.031
2026-05-23 17:26:41.454,1440740910,104454,2,-0.43066,-0.09863,-0.47314,-1.176,1.015,1.214
2026-05-23 17:26:41.654,1440741110,104654,1,-0.31396,-0.55469,-0.93188,-1.908,0.458,0.015
2026-05-23 17:26:41.654,1440741110,104654,2,-0.43359,-0.10132,-0.4624,-1.153,1.145,1.366
2026-05-23 17:26:41.854,1440741310,104854,1,-0.31616,-0.54761,-0.9397,-1.763,0.183,-0.069
2026-05-23 17:26:41.854,1440741310,104854,2,-0.4397,-0.10034,-0.46826,-1.115,1.145,1.282
2026-05-23 17:26:41.054,1440740510,105054,1,-0.31421,-0.54785,-0.93091,-1.74,0.298,-0.008
2026-05-23 17:26:41.054,1440740510,105054,2,-0.43604,-0.09204,-0.47046,-1.595,0.931,1.542
2026-05-23 17:26:41.254,1440740710,105254,1,-0.31543,-0.55713,-0.93115,-1.74,0.313,-0.183
2026-05-23 17:26:41.254,1440740710,105254,2,-0.43384,-0.10278,-0.46924,-1.092,0.908,1.145
2026-05-23 17:26:42.454,1440741910,105454,1,-0.31128,-0.54907,-0.93457,-1.786,0.214,-0.092
2026-05-23 17:26:42.454,1440741910,105454,2,-0.43457,-0.0979,-0.47534,-1.122,1.092,1.267
2026-05-23 17:26:42.654,1440742110,105654,1,-0.31836,-0.55786,-0.93311,-1.687,0.282,-0.252
2026-05-23 17:26:42.654,1440742110,105654,2,-0.4353,-0.0957,-0.46411,-1.115,1.069,1.26
2026-05-23 17:26:42.854,1440742310,105854,1,-0.31714,-0.55005,-0.92896,-1.687,0.252,-0.053
2026-05-23 17:26:42.854,1440742310,105854,2,-0.42993,-0.10425,-0.46777,-1.191,0.985,1.427
2026-05-23 17:26:42.054,1440741510,106054,1,-0.32129,-0.55713,-0.94189,-1.969,0.305,-0.061
2026-05-23 17:26:42.054,1440741510,106054,2,-0.43799,-0.1001,-0.46289,-1.237,1.092,1.252
2026-05-23 17:26:42.254,1440741710,106254,1,-0.31567,-0.55078,-0.92847,-1.832,0.305,0.008
2026-05-23 17:26:42.254,1440741710,106254,2,-0.43994,-0.10571,-0.47852,-1.145,1.046,1.221
2026-05-23 17:26:43.454,1440742910,106454,1,-0.31543,-0.5459,-0.93408,-1.695,0.397,-0.153
2026-05-23 17:26:43.454,1440742910,106454,2,-0.43042,-0.09814,-0.46826,-1.13,1.145,1.481
2026-05-23 17:26:43.654,1440743110,106654,1,-0.31519,-0.55688,-0.93408,-1.702,0.244,-0.122
2026-05-23 17:26:43.654,1440743110,106654,2,-0.4397,-0.104,-0.46729,-1.137,0.931,1.344
2026-05-23 17:26:43.854,1440743310,106854,1,-0.3147,-0.55249,-0.92993,-1.855,0.244,-0.168
2026-05-23 17:26:43.854,1440743310,106854,2,-0.43359,-0.10205,-0.46924,-0.679,1.191,1.229
2026-05-23 17:26:43.054,1440742510,107054,1,-0.31494,-0.55444,-0.93164,-1.817,0.252,-0.122
2026-05-23 17:26:43.054,1440742510,107054,2,-0.43018,-0.10645,-0.46655,-0.977,1.031,1.588
2026-05-23 17:26:43.254,1440742710,107254,1,-0.32324,-0.55005,-0.93799,-1.748,0.412,-0.206
2026-05-23 17:26:43.254,1440742710,107254,2,-0.42993,-0.10303,-0.4751,-0.992,1.183,1.206
2026-05-23 17:26:44.454,1440743910,107454,1,-0.31982,-0.54932,-0.92798,-1.71,0.55,-0.229
2026-05-23 17:26:44.454,1440743910,107454,2,-0.43555,-0.10229,-0.4668,-1.084,1.023,1.206
2026-05-23 17:26:44.654,1440744110,107654,1,-0.31421,-0.55029,-0.9436,-1.74,0.29,-0.267
2026-05-23 17:26:44.654,1440744110,107654,2,-0.42554,-0.10522,-0.4668,-1.061,1.237,1.313
2026-05-23 17:26:44.854,1440744310,107854,1,-0.31323,-0.55225,-0.92432,-1.893,0.344,-0.015
2026-05-23 17:26:44.854,1440744310,107854,2,-0.43701,-0.10571,-0.47095,-1.336,1.046,1.374
2026-05-23 17:26:44.054,1440743510,108054,1,-0.31934,-0.55249,-0.93579,-1.763,0.26,-0.336
2026-05-23 17:26:44.054,1440743510,108054,2,-0.43311,-0.10278,-0.46362,-0.947,1.359,1.42
2026-05-23 17:26:44.254,1440743710,108254,1,-0.31738,-0.54761,-0.93799,-1.565,0.244,
2026-05-23 17:26:44.254,1440743710,108254,2,-0.44067,-0.10547,-0.46802,-1.046,0.992,1.344
2026-05-23 17:26:45.454,1440744910,108454,1,-0.31787,-0.55127,-0.94238,-1.84,0.252,0.008
2026-05-23 17:26:45.454,1440744910,108454,2,-0.42871,-0.09448,-0.46924,-1.076,0.977,1.29
2026-05-23 17:26:45.654,1440745110,108654,1,-0.31592,-0.54761,-0.93457,-1.748,0.252,-0.099
2026-05-23 17:26:45.654,1440745110,108654,2,-0.43848,-0.10132,-0.45801,-0.84,1.122,1.45
2026-05-23 17:26:45.854,1440745310,108854,1,-0.31909,-0.55981,-0.93066,-1.817,0.26,-0.16
2026-05-23 17:26:45.854,1440745310,108854,2,-0.43506,-0.09619,-0.47461,-1.084,0.87,1.214
2026-05-23 17:26:45.054,1440744510,109054,1,-0.31445,-0.54956,-0.93774,-1.664,0.305,-0.16
2026-05-23 17:26:45.054,1440744510,109054,2,-0.43481,-0.10596,-0.47144,-1.221,1.008,1.328
2026-05-23 17:26:45.254,1440744710,109254,1,-0.31567,-0.5542,-0.927,-1.71,0.313,-0.16
2026-05-23 17:26:45.254,1440744710,109254,2,-0.43262,-0.10107,-0.46582,-0.962,0.802,1.366
2026-05-23 17:26:46.454,1440745910,109454,1,-0.3186,-0.55127,-0.93799,-1.855,0.206,-0.061
2026-05-23 17:26:46.454,1440745910,109454,2,-0.42773,-0.09863,-0.47461,-1.183,0.962,1.344
2026-05-23 17:26:46.654,1440746110,109654,1,-0.31323,-0.55176,-0.9375,-1.809,0.313,-0.008
2026-05-23 17:26:46.654,1440746110,109654,2,-0.4353,-0.10449,-0.46704,-1.221,0.962,1.405
2026-05-23 17:26:46.854,1440746310,109854,1,-0.32007,-0.5498,-0.93652,-1.649,0.198,-0.298
2026-05-23 17:26:46.854,1440746310,109854,2,-0.4397,-0.10474,-0.46729,-1.214,1.115,1.252
2026-05-23 17:26:46.054,1440745510,110054,1,-0.31567,-0.55322,-0.93555,-1.893,0.427,-0.13
2026-05-23 17:26:46.054,1440745510,110054,2,-0.43579,-0.09985,-0.47534,-1.008,1.099,1.366
2026-05-23 17:26:46.254,1440745710,110254,1,-0.31763,-0.55273,-0.93994,-1.901,0.366,-0.023
2026-05-23 17:26:46.254,1440745710,110254,2,-0.43774,-0.10034,-0.47119,-0.954,1.008,1.198
2026-05-23 17:26:47.454,1440746910,110454,1,-0.31323,-0.54907,-0.93555,-1.992,0.481,0.046
2026-05-23 17:26:47.454,1440746910,110454,2,-0.43262,-0.10205,-0.46655,-1.336,1.191,1.351
2026-05-23 17:26:47.654,1440747110,110654,1,-0.32202,-0.5542,-0.93091,-1.908,0.252,0.084
2026-05-23 17:26:47.654,1440747110,110654,2,-0.43481,-0.10107,-0.46851,-1.053,1.206,1.221
2026-05-23 17:26:47.854,1440747310,110854,1,-0.31494,-0.55151,-0.94019,-1.802,0.183,-0.137
2026-05-23 17:26:47.854,1440747310,110854,2,-0.43066,-0.1062,-0.46338,-1.023,1.076,1.214
2026-05-23 17:26:47.054,1440746510,111054,1,-0.31567,-0.54956,-0.93237,-2.496,0.092,0.221
2026-05-23 17:26:47.054,1440746510,111054,2,-0.42871,-0.10181,-0.46045,-1.153,1.084,1.282
2026-05-23 17:26:47.254,1440746710,111254,1,-0.31982,-0.55151,-0.93164,-1.634,0.481,-0.198
2026-05-23 17:26:47.254,1440746710,111254,2,-0.43286,-0.10083,-0.46729,-1.122,1.023,1.26
2026-05-23 17:26:49.421,1440748877,112420,1,-0.31421,-0.55566,-0.93018,-1.779,0.237,0.061
2026-05-23 17:26:49.421,1440748877,112420,2,-0.43823,-0.10474,-0.4751,-1.29,1.053,1.145
2026-05-23 17:26:49.620,1440749076,112620,1,-0.31543,-0.54785,-0.93164,-1.718,0.412,-0.26
2026-05-23 17:26:49.620,1440749076,112620,2,-0.44067,-0.10645,-0.47266,-0.939,1.16,1.305
2026-05-23 17:26:49.820,1440749276,112820,1,-0.31445,-0.54712,-0.92603,-1.756,0.344,-0.237
2026-05-23 17:26:49.820,1440749276,112820,2,-0.43115,-0.10107,-0.4624,-1.099,0.939,1.405
2026-05-23 17:26:49.020,1440748476,113020,1,-0.31396,-0.54883,-0.92993,-1.908,0.382,-0.053
2026-05-23 17:26:49.020,1440748476,113020,2,-0.4375,-0.10474,-0.47046,-1.107,0.962,1.313
2026-05-23 17:26:49.220,1440748676,113220,1,-0.31982,-0.54614,-0.92993,-1.672,0.206,-0.092
2026-05-23 17:26:49.220,1440748676,113220,2,-0.43311,-0.10474,-0.4707,-1.107,1.038,1.328
2026-05-23 17:26:50.420,1440749876,113420,1,-0.31396,-0.54565,-0.93213,-1.817,0.198,0.046
2026-05-23 17:26:50.420,1440749876,113420,2,-0.43188,-0.10034,-0.46973,-1.023,0.992,1.298
2026-05-23 17:26:50.620,1440750076,113620,1,-0.31323,-0.55322,-0.93335,-1.977,0.221,
2026-05-23 17:26:50.620,1440750076,113620,2,-0.43384,-0.0957,-0.46558,-1.031,0.893,1.366
2026-05-23 17:26:50.820,1440750276,113820,1,-0.32007,-0.54907,-0.92944,-1.649,0.359,-0.107
2026-05-23 17:26:50.820,1440750276,113820,2,-0.4248,-0.10132,-0.46875,-1.008,1.023,1.344
2026-05-23 17:26:50.020,1440749476,114020,1,-0.32104,-0.54932,-0.93604,-1.756,0.26,0.092
2026-05-23 17:26:50.020,1440749476,114020,2,-0.43262,-0.10254,-0.47192,-1.038,1.206,1.359
2026-05-23 17:26:50.220,1440749676,114220,1,-0.31567,-0.55127,-0.93286,-1.84,0.366,
2026-05-23 17:26:50.220,1440749676,114220,2,-0.42749,-0.10352,-0.4668,-1.046,1.015,1.321
2026-05-23 17:26:51.420,1440750876,114420,1,-0.31543,-0.55347,-0.92969,-1.74,0.351,-0.153
2026-05-23 17:26:51.420,1440750876,114420,2,-0.43823,-0.10254,-0.4707,-1.115,1.0,1.458
2026-05-23 17:26:51.620,1440751076,114620,1,-0.3208,-0.55542,-0.93408,-1.855,0.344,0.038
2026-05-23 17:26:51.620,1440751076,114620,2,-0.43677,-0.10205,-0.47656,-0.962,0.985,1.351
2026-05-23 17:26:51.820,1440751276,114820,1,-0.31616,-0.55591,-0.93726,-1.58,0.412,-0.107
2026-05-23 17:26:51.820,1440751276,114820,2,-0.4353,-0.09766,-0.48779,-1.16,1.099,1.42
2026-05-23 17:26:51.020,1440750476,115020,1,-0.32031,-0.55396,-0.93408,-1.519,0.168,-0.008
2026-05-23 17:26:51.020,1440750476,115020,2,-0.4314,-0.10596,-0.47046,-1.0,0.947,1.45
2026-05-23 17:26:51.220,1440750676,115220,1,-0.31641,-0.55225,-0.93555,-1.557,0.214,-0.053
2026-05-23 17:26:51.220,1440750676,115220,2,-0.4375,-0.10083,-0.45386,-1.443,0.87,1.252
2026-05-23 17:26:52.420,1440751876,115420,1,-0.31909,-0.55396,-0.93921,-1.786,0.427,0.031
2026-05-23 17:26:52.420,1440751876,115420,2,-0.43335,-0.09985,-0.47095,-1.137,1.0,1.282
2026-05-23 17:26:52.620,1440752076,115620,1,-0.32104,-0.5498,-0.93677,-1.824,0.282,-0.023
2026-05-23 17:26:52.620,1440752076,115620,2,-0.43213,-0.09619,-0.46753,-0.809,0.885,1.42
2026-05-23 17:26:52.820,1440752276,115820,1,-0.32129,-0.54956,-0.92969,-1.641,0.321,-0.191
2026-05-23 17:26:52.820,1440752276,115820,2,-0.43262,-0.09741,-0.46973,-0.878,1.092,1.328
2026-05-23 17:26:52.020,1440751476,116020,1,-0.31738,-0.552,-0.94141,-1.87,0.16,-0.015
2026-05-23 17:26:52.020,1440751476,116020,2,-0.43066,-0.09863,-0.46826,-0.71,1.267,1.527
2026-05-23 17:26:52.220,1440751676,116220,1,-0.31738,-0.55054,-0.94458,-1.672,0.351,-0.237
2026-05-23 17:26:52.220,1440751676,116220,2,-0.43237,-0.09497,-0.46777,-1.107,1.107,1.267
2026-05-23 17:26:53.420,1440752876,116420,1,-0.31885,-0.54785,-0.93359,-1.656,0.344,0.092
2026-05-23 17:26:53.420,1440752876,116420,2,-0.43115,-0.09888,-0.46362,-0.969,0.985,1.443
2026-05-23 17:26:53.620,1440753076,116620,1,-0.31909,-0.5498,-0.94116,-1.786,0.389,0.092
2026-05-23 17:26:53.620,1440753076,116620,2,-0.42871,-0.10205,-0.46851,-1.115,1.137,1.321
2026-05-23 17:26:53.820,1440753276,116820,1,-0.31641,-0.54468,-0.93237,-1.679,0.252,-0.328
2026-05-23 17:26:53.820,1440753276,116820,2,-0.43701,-0.09766,-0.47314,-1.366,0.954,1.229
2026-05-23 17:26:53.020,1440752476,117020,1,-0.31763,-0.5498,-0.93555,-1.885,0.313,-0.008
2026-05-23 17:26:53.020,1440752476,117020,2,-0.43457,-0.10474,-0.47168,-1.023,0.916,1.351
2026-05-23 17:26:53.220,1440752676,117220,1,-0.32104,-0.55176,-0.94385,-1.527,0.55,-0.115
2026-05-23 17:26:53.220,1440752676,117220,2,-0.43311,-0.09644,-0.47144,-1.183,0.779,1.267
2026-05-23 17:26:54.420,1440753876,117420,1,-0.31177,-0.5498,-0.93359,-1.817,0.191,0.038
2026-05-23 17:26:54.420,1440753876,117420,2,-0.43286,-0.09766,-0.46826,-0.931,1.221,1.481
2026-05-23 17:26:54.620,1440754076,117620,1,-0.32544,-0.5498,-0.9397,-1.534,0.382,-0.229
2026-05-23 17:26:54.620,1440754076,117620,2,-0.43506,-0.10547,-0.45947,-1.061,0.947,1.16
2026-05-23 17:26:54.820,1440754276,117820,1,-0.31885,-0.55078,-0.9314,-1.824,0.229,0.069
2026-05-23 17:26:54.820,1440754276,117820,2,-0.43604,-0.09619,-0.46924,-0.878,0.809,1.237
2026-05-23 17:26:54.020,1440753476,118020,1,-0.31152,-0.54736,-0.94165,-1.695,0.397,-0.176
2026-05-23 17:26:54.020,1440753476,118020,2,-0.43408,-0.10132,-0.47021,-1.168,1.0,1.321
2026-05-23 17:26:54.220,1440753676,118220,1,-0.31738,-0.55591,-0.93457,-1.511,0.405,-0.191
2026-05-23 17:26:54.220,1440753676,118220,2,-0.44287,-0.10474,-0.46533,-1.061,0.916,1.282
2026-05-23 17:26:55.420,1440754876,118420,1,-0.31885,-0.54712,-0.92773,-1.87,0.305,-0.137
2026-05-23 17:26:55.420,1440754876,118420,2,-0.43408,-0.10205,-0.47266,-1.16,1.16,1.382
2026-05-23 17:26:55.620,1440755076,118620,1,-0.31836,-0.55444,-0.94214,-1.71,0.405,-0.076
2026-05-23 17:26:55.620,1440755076,118620,2,-0.43506,-0.09741,-0.4707,-1.099,1.084,1.374
2026-05-23 17:26:55.820,1440755276,118820,1,-0.31665,-0.54517,-0.94189,-1.786,0.504,-0.313
2026-05-23 17:26:55.820,1440755276,118820,2,-0.43286,-0.10254,-0.47119,-1.107,1.305,1.298
2026-05-23 17:26:55.020,1440754476,119020,1,-0.31519,-0.55029,-0.94043,-2.282,0.237,0.145
2026-05-23 17:26:55.020,1440754476,119020,2,-0.4397,-0.10376,-0.46704,-1.008,1.031,1.328
2026-05-23 17:26:55.220,1440754676,119220,1,-0.32275,-0.55054,-0.93481,-1.824,0.313,-0.191
2026-05-23 17:26:55.220,1440754676,119220,2,-0.43457,-0.09961,-0.46411,-1.176,0.992,1.382
2026-05-23 17:26:56.420,1440755876,119420,1,-0.31763,-0.55347,-0.9314,-1.58,0.321,-0.176
2026-05-23 17:26:56.420,1440755876,119420,2,-0.43677,-0.1062,-0.46948,-1.015,1.221,1.267
2026-05-23 17:26:56.620,1440756076,119620,1,-0.31714,-0.54614,-0.94067,-1.58,0.298,-0.053
2026-05-23 17:26:56.620,1440756076,119620,2,-0.43262,-0.09399,-0.47461,-0.824,0.939,1.42
2026-05-23 17:26:56.820,1440756276,119820,1,-0.31836,-0.54761,-0.93018,-2.076,0.275,0.168
2026-05-23 17:26:56.820,1440756276,119820,2,-0.43164,-0.10425,-0.47632,-1.13,0.878,1.397
2026-05-23 17:26:56.020,1440755476,120020,1,-0.31812,-0.5481,-0.93701,-1.595,0.29,0.069
2026-05-23 17:26:56.020,1440755476,120020,2,-0.4292,-0.10083,-0.47534,-1.313,1.092,1.435
2026-05-23 17:26:56.220,1440755676,120220,1,-0.31519,-0.54541,-0.93433,-1.656,0.496,-0.13
2026-05-23 17:26:56.220,1440755676,120220,2,-0.43433,-0.10083,-0.46411,-1.046,1.0,1.328
2026-05-23 17:26:57.420,1440756876,120420,1,-0.32056,-0.54834,-0.93188,-1.695,0.145,
2026-05-23 17:26:57.420,1440756876,120420,2,-0.43555,-0.10156,-0.46606,-1.092,1.229,1.267
2026-05-23 17:26:57.620,1440757076,120620,1,-0.31372,-0.55347,-0.9375,-1.885,0.382,0.069
2026-05-23 17:26:57.620,1440757076,120620,2,-0.43433,-0.10498,-0.46265,-1.031,1.031,1.229
2026-05-23 17:26:57.820,1440757276,120820,1,-0.31982,-0.55151,-0.93335,-1.977,0.359,0.107
2026-05-23 17:26:57.820,1440757276,120820,2,-0.43042,-0.09766,-0.47192,-1.008,0.901,1.55
2026-05-23 17:26:57.020,1440756476,121020,1,-0.31689,-0.54712,-0.927,-1.58,0.351,-0.252
2026-05-23 17:26:57.020,1440756476,121020,2,-0.43579,-0.0979,-0.47534,-0.931,1.122,1.137
2026-05-23 17:26:57.220,1440756676,121220,1,-0.31592,-0.55591,-0.9353,-1.702,0.366,-0.13
2026-05-23 17:26:57.220,1440756676,121220,2,-0.43506,-0.09839,-0.47168,-0.977,0.847,1.321
2026-05-23 17:26:58.420,1440757876,121420,1,-0.31543,-0.55347,-0.93604,-1.794,0.382,-0.198
2026-05-23 17:26:58.420,1440757876,121420,2,-0.43457,-0.10156,-0.47412,-0.847,1.221,1.092
2026-05-23 17:26:58.620,1440758076,121620,1,-0.3147,-0.54834,-0.94482,-1.84,0.351,-0.092
2026-05-23 17:26:58.620,1440758076,121620,2,-0.43408,-0.10327,-0.46899,-0.824,1.206,1.206
2026-05-23 17:26:58.820,1440758276,121820,1,-0.31714,-0.55005,-0.93066,-1.603,0.374,-0.076
2026-05-23 17:26:58.820,1440758276,121820,2,-0.43872,-0.10083,-0.46777,-1.122,1.061,1.313
2026-05-23 17:26:58.020,1440757476,122020,1,-0.31616,-0.54907,-0.93579,-1.702,0.344,-0.038
2026-05-23 17:26:58.020,1440757476,122020,2,-0.43262,-0.09619,-0.47095,-1.237,0.817,1.443
2026-05-23 17:26:58.220,1440757676,122220,1,-0.32324,-0.54614,-0.93579,-1.87,0.282,-0.084
2026-05-23 17:26:58.220,1440757676,122220,2,-0.43433,-0.09863,-0.46167,-0.977,1.069,1.336
2026-05-23 17:26:59.420,1440758876,122420,1,-0.31958,-0.54932,-0.94141,-1.656,0.229,-0.038
2026-05-23 17:26:59.420,1440758876,122420,2,-0.4375,-0.09912,-0.46826,-1.0,0.962,1.29
2026-05-23 17:26:59.620,1440759076,122620,1,-0.32129,-0.55054,-0.9353,-1.618,0.313,-0.076
2026-05-23 17:26:59.620,1440759076,122620,2,-0.43164,-0.10156,-0.46948,-1.122,1.137,1.153
2026-05-23 17:26:59.820,1440759276,122820,1,-0.31812,-0.55469,-0.93848,-1.687,0.305,-0.099
2026-05-23 17:26:59.820,1440759276,122820,2,-0.43213,-0.10327,-0.46729,-1.16,0.863,1.198
2026-05-23 17:26:59.020,1440758476,123020,1,-0.31836,-0.54614,-0.94458,-1.863,0.29,-0.168
2026-05-23 17:26:59.020,1440758476,123020,2,-0.43481,-0.10205,-0.45874,-0.916,0.962,1.45
2026-05-23 17:26:59.220,1440758676,123220,1,-0.32202,-0.54883,-0.93921,-1.74,0.351,-0.229
2026-05-23 17:26:59.220,1440758676,123220,2,-0.43213,-0.09839,-0.45972,-1.0,1.053,1.435
2026-05-23 17:27:00.420,1440759876,123420,1,-0.31836,-0.54639,-0.93335,-1.802,0.313,-0.069
2026-05-23 17:27:00.420,1440759876,123420,2,-0.43677,-0.10156,-0.46704,-1.237,0.977,1.229
2026-05-23 17:27:00.620,1440760076,123620,1,-0.31616,-0.55396,-0.93506,-1.702,0.206,-0.122
2026-05-23 17:27:00.620,1440760076,123620,2,-0.43896,-0.10352,-0.47119,-1.229,1.092,1.336
2026-05-23 17:27:00.820,1440760276,123820,1,-0.32104,-0.552,-0.93701,-1.771,0.374,-0.237
2026-05-23 17:27:00.820,1440760276,123820,2,-0.43604,-0.09619,-0.46777,-1.061,0.878,1.206
2026-05-23 17:27:00.020,1440759476,124020,1,-0.31616,-0.54883,-0.93774,-1.695,0.137,-0.137
2026-05-23 17:27:00.020,1440759476,124020,2,-0.43945,-0.09497,-0.46167,-0.885,1.015,1.443
2026-05-23 17:27:01.316,1440760772,124316,1,-0.31787,-0.55005,-0.93262,-1.74,0.229,-0.168
2026-05-23 17:27:01.316,1440760772,124316,2,-0.43872,-0.10474,-0.45801,-1.267,1.092,1.145
2026-05-23 17:27:01.516,1440760972,124516,1,-0.31787,-0.54858,-0.93823,-1.794,0.427,-0.084
2026-05-23 17:27:01.516,1440760972,124516,2,-0.43555,-0.09937,-0.47046,-1.046,1.031,1.336
2026-05-23 17:27:01.716,1440761172,124716,1,-0.31616,-0.55029,-0.9375,-1.84,0.244,-0.137
2026-05-23 17:27:01.716,1440761172,124716,2,-0.43823,-0.10718,-0.47144,-1.221,1.053,1.42
2026-05-23 17:27:01.916,1440761372,124916,1,-0.31372,-0.54761,-0.93994,-1.878,0.252,-0.176
2026-05-23 17:27:01.916,1440761372,124916,2,-0.43701,-0.10254,-0.47437,-0.908,1.168,1.336
2026-05-23 17:27:01.116,1440760572,125116,1,-0.31812,-0.55029,-0.93262,-1.802,0.252,-0.046
2026-05-23 17:27:01.116,1440760572,125116,2,-0.43286,-0.09839,-0.46387,-1.076,1.0,1.298
2026-05-23 17:27:02.316,1440761772,125316,1,-0.31641,-0.54346,-0.93848,-1.832,0.328,-0.023
2026-05-23 17:27:02.316,1440761772,125316,2,-0.43848,-0.09937,-0.47241,-1.183,1.122,1.168
2026-05-23 17:27:02.516,1440761972,125516,1,-0.32446,-0.55103,-0.9353,-1.794,0.389,-0.153
2026-05-23 17:27:02.516,1440761972,125516,2,-0.43945,-0.10181,-0.46167,-1.298,0.916,1.305
2026-05-23 17:27:02.716,1440762172,125716,1,-0.31445,-0.55273,-0.9314,-1.908,0.321,-0.053
2026-05-23 17:27:02.716,1440762172,125716,2,-0.42969,-0.10327,-0.47778,-0.985,1.023,1.298
2026-05-23 17:27:02.916,1440762372,125916,1,-0.31836,-0.54956,-0.93262,-1.832,0.427,-0.122
2026-05-23 17:27:02.916,1440762372,125916,2,-0.43359,-0.10303,-0.46899,-1.221,0.962,1.359
2026-05-23 17:27:02.116,1440761572,126116,1,-0.31763,-0.54736,-0.93628,-1.603,0.412,-0.115
2026-05-23 17:27:02.116,1440761572,126116,2,-0.43481,-0.09424,-0.45972,-0.924,1.038,1.412
2026-05-23 17:27:03.316,1440762772,126316,1,-0.31982,-0.55078,-0.93848,-1.786,0.267,-0.183
2026-05-23 17:27:03.316,1440762772,126316,2,-0.43018,-0.10034,-0.46753,-1.031,1.252,1.183
2026-05-23 17:27:03.516,1440762972,126516,1,-0.30981,-0.54663,-0.93677,-1.618,0.305,-0.206
2026-05-23 17:27:03.516,1440762972,126516,2,-0.43091,-0.09839,-0.46777,-1.145,1.107,1.137
2026-05-23 17:27:03.716,1440763172,126716,1,-0.31494,-0.55029,-0.93677,-1.794,0.359,-0.137
2026-05-23 17:27:03.716,1440763172,126716,2,-0.43848,-0.10278,-0.46826,-0.901,1.053,1.351
2026-05-23 17:27:03.916,1440763372,126916,1,-0.32104,-0.5498,-0.93262,-1.634,0.298,-0.008
2026-05-23 17:27:03.916,1440763372,126916,2,-0.43872,-0.10474,-0.46777,-1.26,1.168,1.267
2026-05-23 17:27:03.116,1440762572,127116,1,-0.31836,-0.5498,-0.93384,-1.908,0.099,0.015
2026-05-23 17:27:03.116,1440762572,127116,2,-0.42358,-0.10205,-0.46338,-1.053,0.947,1.328
2026-05-23 17:27:04.316,1440763772,127316,1,-0.31836,-0.54736,-0.94189,-1.748,0.305,-0.221
2026-05-23 17:27:04.316,1440763772,127316,2,-0.4314,-0.10205,-0.46411,-0.954,1.099,1.427
2026-05-23 17:27:04.516,1440763972,127516,1,-0.31738,-0.55298,-0.93384,-1.802,0.336,-0.099
2026-05-23 17:27:04.516,1440763972,127516,2,-0.43018,-0.10107,-0.46948,-1.038,1.176,1.366
2026-05-23 17:27:04.716,1440764172,127716,1,-0.31836,-0.55176,-0.93921,-1.779,0.244,0.023
2026-05-23 17:27:04.716,1440764172,127716,2,-0.43359,-0.09644,-0.47412,-1.099,1.053,1.16
2026-05-23 17:27:04.916,1440764372,127916,1,-0.32178,-0.54053,-0.93433,-1.901,0.305,-0.023
2026-05-23 17:27:04.916,1440764372,127916,2,-0.43213,-0.10229,-0.46191,-0.924,1.053,1.321
2026-05-23 17:27:04.116,1440763572,128116,1,-0.32178,-0.55005,-0.927,-2.015,0.366,0.092
2026-05-23 17:27:04.116,1440763572,128116,2,-0.43286,-0.09937,-0.47217,-0.779,1.13,1.382
2026-05-23 17:27:05.316,1440764772,128316,1,-0.30835,-0.54761,-0.9397,-1.687,0.351,-0.237
2026-05-23 17:27:05.316,1440764772,128316,2,-0.43359,-0.09912,-0.46289,-1.252,0.992,1.405
2026-05-23 17:27:05.516,1440764972,128516,1,-0.3208,-0.54443,-0.93359,-1.901,0.26,-0.099
2026-05-23 17:27:05.516,1440764972,128516,2,-0.43726,-0.10229,-0.46753,-1.0,1.107,1.389
2026-05-23 17:27:05.716,1440765172,128716,1,-0.31641,-0.55322,-0.94116,-1.863,0.26,-0.183
2026-05-23 17:27:05.716,1440765172,128716,2,-0.43164,-0.10352,-0.47021,-1.061,0.992,1.145
2026-05-23 17:27:05.916,1440765372,128916,1,-0.31396,-0.54736,-0.93896,-1.969,0.229,0.244
2026-05-23 17:27:05.916,1440765372,128916,2,-0.42969,-0.09668,-0.47217,-1.069,1.183,1.321
2026-05-23 17:27:05.116,1440764572,129116,1,-0.32129,-0.54492,-0.94482,-1.634,0.244,0.031
2026-05-23 17:27:05.116,1440764572,129116,2,-0.43555,-0.09619,-0.46509,-1.176,0.977,1.244
2026-05-23 17:27:08.243,1440767699,132242,1,-0.32129,-0.54517,-0.93115,-1.947,0.29,0.031
2026-05-23 17:27:08.243,1440767699,132242,2,-0.43652,-0.10059,-0.47192,-0.725,1.092,1.122
2026-05-23 17:27:09.442,1440768898,132442,1,-0.32373,-0.54565,-0.94409,-1.779,0.282,-0.153
2026-05-23 17:27:09.442,1440768898,132442,2,-0.43335,-0.10083,-0.46533,-1.145,0.87,1.458
2026-05-23 17:27:09.642,1440769098,132642,1,-0.32129,-0.54053,-0.94238,-1.626,0.13,0.015
2026-05-23 17:27:09.642,1440769098,132642,2,-0.43774,-0.09961,-0.46436,-1.061,1.008,1.313
2026-05-23 17:27:09.842,1440769298,132842,1,-0.31812,-0.53955,-0.94702,-1.344,0.252,-0.229
2026-05-23 17:27:09.842,1440769298,132842,2,-0.43335,-0.10352,-0.47119,-1.336,0.908,1.313
2026-05-23 17:27:09.042,1440768498,133042,1,-0.33301,-0.55542,-0.93188,-2.412,0.107,-0.153
2026-05-23 17:27:09.042,1440768498,133042,2,-0.43066,-0.09961,-0.46899,-0.962,1.168,1.031
2026-05-23 17:27:09.242,1440768698,133242,1,-0.41626,-0.34155,-0.9353,-79.656,-24.16,51.031
2026-05-23 17:27:09.242,1440768698,133242,2,-0.43994,-0.11426,-0.47217,-0.748,0.931,1.344
2026-05-23 17:27:10.442,1440769898,133442,1,-0.46387,-0.29688,-1.06226,120.664,34.137,-82.0
2026-05-23 17:27:10.442,1440769898,133442,2,-0.43896,-0.09863,-0.46582,6.153,7.031,-1.992
2026-05-23 17:27:10.642,1440770098,133642,1,-0.35327,-0.49756,-0.96069,35.557,10.733,-26.0
2026-05-23 17:27:10.642,1440770098,133642,2,-0.44531,-0.06909,-0.46826,-1.16,0.74,1.229
2026-05-23 17:27:10.842,1440770298,133842,1,-0.34204,-0.51929,-0.95923,-16.481,-4.13,10.359
2026-05-23 17:27:10.842,1440770298,133842,2,-0.43604,-0.09351,-0.48047,-1.573,0.74,1.244
2026-05-23 17:27:10.042,1440769498,134042,1,-0.33618,-0.51196,-0.94653,0.481,1.244,-1.748
2026-05-23 17:27:10.042,1440769498,134042,2,-0.4353,-0.09448,-0.46533,-1.183,1.176,1.214
2026-05-23 17:27:10.242,1440769698,134242,1,-0.34082,-0.50879,-0.95337,-1.191,0.664,-0.542
2026-05-23 17:27:10.242,1440769698,134242,2,-0.44238,-0.09961,-0.46973,-1.053,1.092,1.359
2026-05-23 17:27:11.442,1440770898,134442,1,-0.33643,-0.51343,-0.9436,-1.87,0.183,0.061
2026-05-23 17:27:11.442,1440770898,134442,2,-0.4375,-0.09961,-0.47046,-1.0,1.061,1.405
2026-05-23 17:27:11.642,1440771098,134642,1,-0.33496,-0.5105,-0.95337,-1.695,0.244,-0.183
2026-05-23 17:27:11.642,1440771098,134642,2,-0.43433,-0.09375,-0.47803,-1.046,0.863,1.328
2026-05-23 17:27:11.842,1440771298,134842,1,-0.33667,-0.51221,-0.94775,-1.588,0.344,-0.122
2026-05-23 17:27:11.842,1440771298,134842,2,-0.43848,-0.0918,-0.46558,-1.107,1.366,1.137
2026-05-23 17:27:11.042,1440770498,135042,1,-0.34229,-0.51318,-0.9436,-1.893,0.351,-0.221
2026-05-23 17:27:11.042,1440770498,135042,2,-0.43579,-0.09668,-0.46704,-0.832,1.145,1.282
2026-05-23 17:27:11.242,1440770698,135242,1,-0.33545,-0.51733,-0.94971,-1.878,0.214,-0.061
2026-05-23 17:27:11.242,1440770698,135242,2,-0.44312,-0.09326,-0.46533,-1.0,1.015,1.252
2026-05-23 17:27:12.442,1440771898,135442,1,-0.33545,-0.50952,-0.95239,-1.763,0.244,
2026-05-23 17:27:12.442,1440771898,135442,2,-0.43579,-0.10229,-0.47681,-0.985,1.183,1.244
2026-05-23 17:27:12.642,1440772098,135642,1,-0.33447,-0.50977,-0.94702,-1.779,0.45,-0.092
2026-05-23 17:27:12.642,1440772098,135642,2,-0.43481,-0.09814,-0.46924,-1.076,0.878,1.29
2026-05-23 17:27:12.842,1440772298,135842,1,-0.34229,-0.50879,-0.95337,-1.702,0.45,-0.053
2026-05-23 17:27:12.842,1440772298,135842,2,-0.43335,-0.0979,-0.46973,-1.107,1.107,1.153
2026-05-23 17:27:12.042,1440771498,136042,1,-0.33569,-0.51807,-0.95313,-1.779,0.374,-0.267
2026-05-23 17:27:12.042,1440771498,136042,2,-0.43555,-0.09839,-0.46167,-1.084,0.809,1.214
2026-05-23 17:27:12.242,1440771698,136242,1,-0.33862,-0.51147,-0.95215,-1.733,0.359,-0.092
2026-05-23 17:27:12.242,1440771698,136242,2,-0.43335,-0.09595,-0.46802,-1.16,1.015,1.397
2026-05-23 17:27:13.442,1440772898,136442,1,-0.33691,-0.51245,-0.94873,-1.84,0.344,-0.038
2026-05-23 17:27:13.442,1440772898,136442,2,-0.43896,-0.09839,-0.46606,-1.359,1.0,1.26
2026-05-23 17:27:13.642,1440773098,136642,1,-0.33862,-0.51294,-0.94922,-1.779,0.198,0.031
2026-05-23 17:27:13.642,1440773098,136642,2,-0.43921,-0.0979,-0.4646,-0.916,1.198,1.275
2026-05-23 17:27:13.842,1440773298,136842,1,-0.33618,-0.5061,-0.95483,-1.634,0.344,-0.145
2026-05-23 17:27:13.842,1440773298,136842,2,-0.43335,-0.09399,-0.4729,-1.115,1.191,1.305
2026-05-23 17:27:13.042,1440772498,137042,1,-0.3418,-0.51538,-0.94604,-1.916,0.344,-0.099
2026-05-23 17:27:13.042,1440772498,137042,2,-0.44116,-0.09131,-0.47021,-1.061,1.053,1.366
2026-05-23 17:27:13.242,1440772698,137242,1,-0.33667,-0.51147,-0.94775,-1.939,0.16,0.031
2026-05-23 17:27:13.242,1440772698,137242,2,-0.43823,-0.09839,-0.46826,-1.092,1.015,1.153
2026-05-23 17:27:14.442,1440773898,137442,1,-0.34302,-0.51318,-0.95264,-1.817,0.466,-0.221
2026-05-23 17:27:14.442,1440773898,137442,2,-0.43433,-0.0957,-0.46289,-0.901,0.947,1.389
2026-05-23 17:27:14.642,1440774098,137642,1,-0.33789,-0.51636,-0.95483,-1.618,0.351,-0.16
2026-05-23 17:27:14.642,1440774098,137642,2,-0.43359,-0.09741,-0.46387,-0.908,1.153,1.458
2026-05-23 17:27:14.842,1440774298,137842,1,-0.34009,-0.5144,-0.95776,-1.939,0.374,-0.046
2026-05-23 17:27:14.842,1440774298,137842,2,-0.43579,-0.09814,-0.46753,-1.176,0.885,1.237
2026-05-23 17:27:14.042,1440773498,138042,1,-0.33789,-0.50928,-0.94458,-1.855,0.168,-0.214
2026-05-23 17:27:14.042,1440773498,138042,2,-0.43579,-0.09912,-0.47363,-0.962,1.099,1.298
2026-05-23 17:27:14.242,1440773698,138242,1,-0.33398,-0.51807,-0.95776,-1.557,0.191,-0.13
2026-05-23 17:27:14.242,1440773698,138242,2,-0.43457,-0.09424,-0.46533,-1.069,1.008,1.313
2026-05-23 17:27:15.442,1440774898,138442,1,-0.3396,-0.50513,-0.948,-1.847,0.328,-0.061
2026-05-23 17:27:15.442,1440774898,138442,2,-0.43701,-0.09863,-0.4707,-1.42,0.954,1.412
2026-05-23 17:27:15.642,1440775098,138642,1,-0.33789,-0.51245,-0.94897,-1.863,0.221,-0.053
2026-05-23 17:27:15.642,1440775098,138642,2,-0.43311,-0.09619,-0.46387,-1.427,1.008,1.58
2026-05-23 17:27:15.842,1440775298,138842,1,-0.34668,-0.51172,-0.95386,-1.985,0.214,-0.031
2026-05-23 17:27:15.842,1440775298,138842,2,-0.44312,-0.08813,-0.46509,-0.809,1.107,1.244
2026-05-23 17:27:15.042,1440774498,139042,1,-0.33398,-0.521,-0.94922,-2.16,0.084,-0.008
2026-05-23 17:27:15.042,1440774498,139042,2,-0.43677,-0.09814,-0.46826,-1.458,0.664,1.336
2026-05-23 17:27:15.242,1440774698,139242,1,-0.34375,-0.51367,-0.95288,-1.977,0.229,0.076
2026-05-23 17:27:15.242,1440774698,139242,2,-0.4375,-0.09375,-0.46606,-1.092,0.924,1.137
2026-05-23 17:27:16.442,1440775898,139442,1,-0.3418,-0.5127,-0.95605,-1.832,0.298,-0.13
2026-05-23 17:27:16.442,1440775898,139442,2,-0.43872,-0.10254,-0.47241,-0.992,1.183,1.374
2026-05-23 17:27:16.642,1440776098,139642,1,-0.34204,-0.50903,-0.95288,-1.519,0.29,-0.267
2026-05-23 17:27:16.642,1440776098,139642,2,-0.43188,-0.1001,-0.46899,-1.076,0.878,1.183
2026-05-23 17:27:16.842,1440776298,139842,1,-0.34229,-0.51147,-0.95288,-1.84,0.122,-0.115
2026-05-23 17:27:16.842,1440776298,139842,2,-0.43652,-0.1001,-0.47852,-0.908,0.985,1.26
2026-05-23 17:27:16.042,1440775498,140042,1,-0.33984,-0.51318,-0.94531,-1.649,0.336,-0.237
2026-05-23 17:27:16.042,1440775498,140042,2,-0.43848,-0.10107,-0.4646,-1.046,0.885,1.336
2026-05-23 17:27:16.242,1440775698,140242,1,-0.33691,-0.50928,-0.9541,-1.733,0.344,-0.099
2026-05-23 17:27:16.242,1440775698,140242,2,-0.43726,-0.09937,-0.46997,-0.878,1.176,1.504
2026-05-23 17:27:17.442,1440776898,140442,1,-0.34399,-0.51172,-0.95264,-1.595,0.618,-0.176
2026-05-23 17:27:17.442,1440776898,140442,2,-0.43872,-0.09497,-0.46631,-1.084,1.031,1.336
2026-05-23 17:27:17.642,1440777098,140642,1,-0.3374,-0.5105,-0.948,-1.748,0.305,-0.122
2026-05-23 17:27:17.642,1440777098,140642,2,-0.43555,-0.0957,-0.46582,-1.092,0.939,1.305
2026-05-23 17:27:17.842,1440777298,140842,1,-0.34399,-0.50977,-0.94629,-1.885,0.336,-0.145
2026-05-23 17:27:17.842,1440777298,140842,2,-0.43677,-0.09595,-0.46631,-1.092,1.046,1.282
2026-05-23 17:27:17.042,1440776498,141042,1,-0.34131,-0.5127,-0.95898,-1.763,0.244,-0.153
2026-05-23 17:27:17.042,1440776498,141042,2,-0.43457,-0.09595,-0.47119,-1.0,1.122,1.366
2026-05-23 17:27:17.242,1440776698,141242,1,-0.33618,-0.51318,-0.9502,-1.771,0.321,-0.191
2026-05-23 17:27:17.242,1440776698,141242,2,-0.43433,-0.09424,-0.46753,-0.939,1.214,1.328
2026-05-23 17:27:18.442,1440777898,141442,1,-0.34302,-0.51514,-0.95044,-1.786,0.275,-0.16
2026-05-23 17:27:18.442,1440777898,141442,2,-0.44067,-0.10229,-0.47046,-1.13,1.015,1.29
2026-05-23 17:27:18.642,1440778098,141642,1,-0.33887,-0.50977,-0.95215,-1.733,0.412,-0.107
2026-05-23 17:27:18.642,1440778098,141642,2,-0.43286,-0.09668,-0.46118,-1.176,1.076,1.16
2026-05-23 17:27:18.842,1440778298,141842,1,-0.34375,-0.51099,-0.94556,-1.824,0.145,-0.038
2026-05-23 17:27:18.842,1440778298,141842,2,-0.43555,-0.09766,-0.47046,-1.206,1.176,1.282
2026-05-23 17:27:18.042,1440777498,142042,1,-0.33862,-0.51416,-0.94507,-1.733,0.198,-0.008
2026-05-23 17:27:18.042,1440777498,142042,2,-0.44482,-0.09741,-0.46167,-1.137,1.015,1.542
2026-05-23 17:27:18.242,1440777698,142242,1,-0.33618,-0.50903,-0.94751,-2.443,0.092,-0.13
2026-05-23 17:27:18.242,1440777698,142242,2,-0.4353,-0.09888,-0.45679,-1.16,1.16,1.221
2026-05-23 17:27:19.442,1440778898,142442,1,-0.33521,-0.51489,-0.94824,-1.847,0.458,-0.122
2026-05-23 17:27:19.442,1440778898,142442,2,-0.43335,-0.09863,-0.45605,-1.031,1.038,1.427
2026-05-23 17:27:19.642,1440779098,142642,1,-0.33496,-0.50317,-0.94385,-1.672,0.427,-0.282
2026-05-23 17:27:19.642,1440779098,142642,2,-0.43774,-0.09399,-0.47217,-1.29,0.855,1.336
2026-05-23 17:27:19.842,1440779298,142842,1,-0.34033,-0.50757,-0.9519,-1.817,0.466,-0.16
2026-05-23 17:27:19.842,1440779298,142842,2,-0.43799,-0.09595,-0.47754,-1.092,0.855,1.42
2026-05-23 17:27:19.042,1440778498,143042,1,-0.34229,-0.5105,-0.95215,-1.939,0.252,-0.092
2026-05-23 17:27:19.042,1440778498,143042,2,-0.43213,-0.09326,-0.4624,-1.374,0.962,1.313
2026-05-23 17:27:19.242,1440778698,143242,1,-0.33545,-0.51294,-0.95093,-1.809,0.229,-0.16
2026-05-23 17:27:19.242,1440778698,143242,2,-0.44043,-0.0979,-0.4624,-1.053,1.0,1.313
2026-05-23 17:27:20.442,1440779898,143442,1,-0.34058,-0.5144,-0.94067,-1.832,0.176,0.092
2026-05-23 17:27:20.442,1440779898,143442,2,-0.43359,-0.09619,-0.46143,-0.649,1.427,1.42
2026-05-23 17:27:20.642,1440780098,143642,1,-0.33838,-0.51318,-0.9502,-1.779,0.435,-0.191
2026-05-23 17:27:20.642,1440780098,143642,2,-0.43726,-0.104,-0.47754,-1.282,0.939,1.214
2026-05-23 17:27:20.842,1440780298,143842,1,-0.34106,-0.51489,-0.94946,-1.756,0.267,-0.084
2026-05-23 17:27:20.842,1440780298,143842,2,-0.43579,-0.10376,-0.46533,-1.038,0.878,1.344
2026-05-23 17:27:20.042,1440779498,144042,1,-0.34229,-0.51123,-0.9458,-1.321,0.382,-0.328
2026-05-23 17:27:20.042,1440779498,144042,2,-0.43701,-0.09106,-0.46655,-1.107,1.122,1.45
2026-05-23 17:27:23.548,1440783004,146548,1,-0.33423,-0.51221,-0.94873,-1.771,0.29,-0.115
2026-05-23 17:27:23.548,1440783004,146548,2,-0.43506,-0.09692,-0.46924,-1.26,1.053,1.42
2026-05-23 17:27:23.748,1440783204,146748,1,-0.33691,-0.51733,-0.9502,-1.611,0.26,-0.115
2026-05-23 17:27:23.748,1440783204,146748,2,-0.4375,-0.09497,-0.46948,-0.992,0.954,1.16
2026-05-23 17:27:23.948,1440783404,146948,1,-0.33716,-0.50977,-0.9541,-1.656,0.359,-0.092
2026-05-23 17:27:23.948,1440783404,146948,2,-0.43579,-0.09644,-0.47729,-1.183,0.969,1.244
2026-05-23 17:27:23.148,1440782604,147148,1,-0.33887,-0.51099,-0.94482,-1.779,0.374,0.053
2026-05-23 17:27:23.148,1440782604,147148,2,-0.43262,-0.09644,-0.47119,-1.183,1.092,1.244
2026-05-23 17:27:24.348,1440783804,147348,1,-0.33936,-0.5144,-0.95605,-1.626,0.366,-0.031
2026-05-23 17:27:24.348,1440783804,147348,2,-0.44189,-0.09399,-0.46411,-0.573,1.321,1.237
2026-05-23 17:27:24.548,1440784004,147548,1,-0.3374,-0.51392,-0.94824,-1.725,0.397,0.023
2026-05-23 17:27:24.548,1440784004,147548,2,-0.44312,-0.09644,-0.46558,-0.733,1.282,1.382
2026-05-23 17:27:24.748,1440784204,147748,1,-0.3374,-0.50977,-0.94946,-1.908,0.405,-0.084
2026-05-23 17:27:24.748,1440784204,147748,2,-0.44165,-0.09961,-0.47119,-1.504,0.885,1.229
2026-05-23 17:27:24.948,1440784404,147948,1,-0.3418,-0.51172,-0.94214,-1.702,0.168,-0.176
2026-05-23 17:27:24.948,1440784404,147948,2,-0.43408,-0.09937,-0.45996,-0.969,1.176,1.214
2026-05-23 17:27:24.148,1440783604,148148,1,-0.33984,-0.51489,-0.95264,-1.695,0.321,-0.092
2026-05-23 17:27:24.148,1440783604,148148,2,-0.43408,-0.09399,-0.47144,-1.069,0.824,1.458
2026-05-23 17:27:25.348,1440784804,148348,1,-0.34351,-0.5105,-0.94604,-1.847,0.183,-0.038
2026-05-23 17:27:25.348,1440784804,148348,2,-0.43628,-0.10034,-0.45996,-1.374,0.824,1.328
2026-05-23 17:27:25.548,1440785004,148548,1,-0.3335,-0.51123,-0.9502,-1.779,0.435,-0.16
2026-05-23 17:27:25.548,1440785004,148548,2,-0.43433,-0.10083,-0.46826,-1.191,0.824,1.313
2026-05-23 17:27:25.748,1440785204,148748,1,-0.34448,-0.5144,-0.95557,-1.954,0.282,-0.168
2026-05-23 17:27:25.748,1440785204,148748,2,-0.43921,-0.0957,-0.46484,-0.809,0.977,1.267
2026-05-23 17:27:25.948,1440785404,148948,1,-0.33398,-0.50879,-0.94434,-1.863,0.305,-0.206
2026-05-23 17:27:25.948,1440785404,148948,2,-0.43945,-0.09424,-0.46924,-1.16,1.008,1.183
2026-05-23 17:27:25.148,1440784604,149148,1,-0.34033,-0.50977,-0.95239,-1.588,0.397,-0.16
2026-05-23 17:27:25.148,1440784604,149148,2,-0.43701,-0.09448,-0.47363,-1.015,0.939,1.458
2026-05-23 17:27:26.348,1440785804,149348,1,-0.34058,-0.51514,-0.9519,-1.756,0.229,-0.053
2026-05-23 17:27:26.348,1440785804,149348,2,-0.4375,-0.09814,-0.47534,-1.008,1.145,1.29
2026-05-23 17:27:26.548,1440786004,149548,1,-0.33789,-0.51294,-0.96021,-1.878,0.321,-0.206
2026-05-23 17:27:26.548,1440786004,149548,2,-0.43994,-0.09619,-0.46118,-1.305,0.931,1.267
2026-05-23 17:27:26.748,1440786204,149748,1,-0.34229,-0.51318,-0.95776,-1.74,0.038,0.076
2026-05-23 17:27:26.748,1440786204,149748,2,-0.43311,-0.0957,-0.46289,-1.038,1.313,1.382
2026-05-23 17:27:26.948,1440786404,149948,1,-0.33301,-0.50708,-0.9519,-1.763,0.26,-0.023
2026-05-23 17:27:26.948,1440786404,149948,2,-0.43262,-0.10425,-0.46875,-1.26,1.046,1.313
2026-05-23 17:27:26.148,1440785604,150148,1,-0.33691,-0.50586,-0.95239,-1.756,0.382,0.023
2026-05-23 17:27:26.148,1440785604,150148,2,-0.44141,-0.09106,-0.47119,-0.954,1.244,1.214
2026-05-23 17:27:27.348,1440786804,150348,1,-0.34009,-0.51514,-0.94189,-1.702,0.458,-0.015
2026-05-23 17:27:27.348,1440786804,150348,2,-0.44312,-0.09888,-0.47266,-0.969,1.176,1.427
2026-05-23 17:27:27.548,1440787004,150548,1,-0.3374,-0.50952,-0.95239,-1.885,0.267,-0.061
2026-05-23 17:27:27.548,1440787004,150548,2,-0.43726,-0.09424,-0.46606,-1.168,1.137,1.221
2026-05-23 17:27:27.748,1440787204,150748,1,-0.3418,-0.51172,-0.93872,-1.656,0.237,-0.046
2026-05-23 17:27:27.748,1440787204,150748,2,-0.43701,-0.09497,-0.46069,-1.252,0.924,1.351
2026-05-23 17:27:27.948,1440787404,150948,1,-0.33838,-0.5166,-0.95117,-1.756,0.305,-0.145
2026-05-23 17:27:27.948,1440787404,150948,2,-0.4397,-0.10156,-0.46582,-0.855,1.13,1.313
2026-05-23 17:27:27.148,1440786604,151148,1,-0.34253,-0.51123,-0.95435,-1.718,0.458,-0.183
2026-05-23 17:27:27.148,1440786604,151148,2,-0.43286,-0.09961,-0.46899,-1.115,1.038,1.313
2026-05-23 17:27:28.348,1440787804,151348,1,-0.34033,-0.51514,-0.9502,-1.863,0.321,0.015
2026-05-23 17:27:28.348,1440787804,151348,2,-0.43604,-0.09546,-0.46924,-0.916,1.137,1.405
2026-05-23 17:27:28.548,1440788004,151548,1,-0.34326,-0.5188,-0.9563,-1.885,0.122,0.053
2026-05-23 17:27:28.548,1440788004,151548,2,-0.43335,-0.09961,-0.46509,-0.916,1.092,1.382
2026-05-23 17:27:28.748,1440788204,151748,1,-0.34326,-0.51025,-0.9541,-1.664,0.366,0.13
2026-05-23 17:27:28.748,1440788204,151748,2,-0.43726,-0.09692,-0.46973,-0.672,1.382,1.313
2026-05-23 17:27:28.948,1440788404,151948,1,-0.34277,-0.50903,-0.9502,-1.84,0.29,-0.183
2026-05-23 17:27:28.948,1440788404,151948,2,-0.44141,-0.09961,-0.47485,-1.122,1.008,1.29
2026-05-23 17:27:28.148,1440787604,152148,1,-0.33911,-0.51611,-0.94751,-1.817,0.405,0.015
2026-05-23 17:27:28.148,1440787604,152148,2,-0.43481,-0.09229,-0.46924,-0.954,1.0,1.275
2026-05-23 17:27:29.348,1440788804,152348,1,-0.34521,-0.51099,-0.95435,-1.725,0.191,-0.206
2026-05-23 17:27:29.348,1440788804,152348,2,-0.43677,-0.09912,-0.47144,-0.832,1.015,1.191
2026-05-23 17:27:29.548,1440789004,152548,1,-0.33618,-0.50879,-0.94751,-2.115,0.29,0.191
2026-05-23 17:27:29.548,1440789004,152548,2,-0.43506,-0.09424,-0.47437,-0.908,1.153,1.328
2026-05-23 17:27:29.748,1440789204,152748,1,-0.33643,-0.5144,-0.94189,-1.733,0.282,-0.13
2026-05-23 17:27:29.748,1440789204,152748,2,-0.43262,-0.09497,-0.47168,-1.061,0.87,1.351
2026-05-23 17:27:29.948,1440789404,152948,1,-0.33521,-0.50952,-0.95142,-1.779,0.374,-0.183
2026-05-23 17:27:29.948,1440789404,152948,2,-0.43384,-0.09277,-0.47412,-0.985,0.954,1.42
2026-05-23 17:27:29.148,1440788604,153148,1,-0.34155,-0.5105,-0.95093,-1.71,0.321,-0.229
2026-05-23 17:27:29.148,1440788604,153148,2,-0.43848,-0.10083,-0.46899,-0.939,1.008,1.122
2026-05-23 17:27:30.348,1440789804,153348,1,-0.33838,-0.51489,-0.94873,-1.847,0.183,-0.145
2026-05-23 17:27:30.348,1440789804,153348,2,-0.42993,-0.09937,-0.47119,-0.763,1.092,1.321
2026-05-23 17:27:30.548,1440790004,153548,1,-0.3396,-0.51514,-0.95337,-1.71,0.466,0.053
2026-05-23 17:27:30.548,1440790004,153548,2,-0.44263,-0.09277,-0.48193,-1.244,1.031,1.405
2026-05-23 17:27:30.748,1440790204,153748,1,-0.33838,-0.51001,-0.9502,-1.802,0.397,-0.137
2026-05-23 17:27:30.748,1440790204,153748,2,-0.43726,-0.09717,-0.46411,-1.076,1.145,1.328
2026-05-23 17:27:30.948,1440790404,153948,1,-0.33936,-0.50952,-0.94775,-1.954,0.275,-0.061
2026-05-23 17:27:30.948,1440790404,153948,2,-0.44238,-0.09619,-0.4707,-0.931,1.206,1.336
2026-05-23 17:27:30.148,1440789604,154148,1,-0.3418,-0.50977,-0.94507,-1.916,0.305,-0.031
2026-05-23 17:27:30.148,1440789604,154148,2,-0.4397,-0.09644,-0.47412,-0.977,1.069,1.282
2026-05-23 17:27:31.348,1440790804,154348,1,-0.34033,-0.51099,-0.94849,-1.763,0.198,0.046
2026-05-23 17:27:31.348,1440790804,154348,2,-0.43848,-0.09692,-0.46631,-0.641,1.046,1.198
2026-05-23 17:27:31.548,1440791004,154548,1,-0.33691,-0.51685,-0.94263,-1.748,0.45,
2026-05-23 17:27:31.548,1440791004,154548,2,-0.4375,-0.09985,-0.46899,-1.26,1.046,1.45
2026-05-23 17:27:31.748,1440791204,154748,1,-0.33936,-0.51538,-0.95508,-1.779,0.252,-0.092
2026-05-23 17:27:31.748,1440791204,154748,2,-0.44092,-0.09863,-0.47168,-0.992,1.0,1.336
2026-05-23 17:27:31.948,1440791404,154948,1,-0.34253,-0.51245,-0.94409,-1.733,0.466,-0.137
2026-05-23 17:27:31.948,1440791404,154948,2,-0.43628,-0.09497,-0.47388,-1.176,0.985,1.427
2026-05-23 17:27:31.148,1440790604,155148,1,-0.3418,-0.51074,-0.95825,-1.634,0.191,0.053
2026-05-23 17:27:31.148,1440790604,155148,2,-0.43408,-0.09961,-0.47144,-1.031,1.023,1.527
2026-05-23 17:27:32.348,1440791804,155348,1,-0.33643,-0.50879,-0.95483,-1.542,0.305,-0.031
2026-05-23 17:27:32.348,1440791804,155348,2,-0.43506,-0.09326,-0.46973,-1.206,1.13,1.244
2026-05-23 17:27:32.548,1440792004,155548,1,-0.33765,-0.5127,-0.94873,-1.84,0.191,-0.023
2026-05-23 17:27:32.548,1440792004,155548,2,-0.43164,-0.09277,-0.46924,-1.115,0.954,1.305
2026-05-23 17:27:32.748,1440792204,155748,1,-0.34277,-0.51099,-0.95313,-1.656,0.191,0.031
2026-05-23 17:27:32.748,1440792204,155748,2,-0.43555,-0.09985,-0.46606,-0.947,1.122,1.191
2026-05-23 17:27:32.948,1440792404,155948,1,-0.33984,-0.51343,-0.94897,-1.786,0.229,0.008
2026-05-23 17:27:32.948,1440792404,155948,2,-0.43921,-0.09595,-0.4646,-1.092,0.817,1.084
2026-05-23 17:27:32.148,1440791604,156148,1,-0.33154,-0.50977,-0.94922,-1.687,0.153,0.015
2026-05-23 17:27:32.148,1440791604,156148,2,-0.43823,-0.09741,-0.46558,-0.977,1.115,1.221
2026-05-23 17:27:33.348,1440792804,156348,1,-0.33447,-0.50854,-0.95825,-1.626,0.206,0.099
2026-05-23 17:27:33.348,1440792804,156348,2,-0.43237,-0.09375,-0.4729,-0.992,1.16,1.244
2026-05-23 17:27:33.548,1440793004,156548,1,-0.33691,-0.50928,-0.9502,-1.725,0.374,-0.16
2026-05-23 17:27:33.548,1440793004,156548,2,-0.42896,-0.09546,-0.47095,-1.107,1.046,1.244
2026-05-23 17:27:33.748,1440793204,156748,1,-0.33472,-0.5127,-0.94751,-1.687,0.321,-0.153
2026-05-23 17:27:33.748,1440793204,156748,2,-0.44214,-0.09619,-0.46826,-1.076,1.015,1.313
2026-05-23 17:27:33.948,1440793404,156948,1,-0.34253,-0.51025,-0.95459,-1.855,0.321,-0.069
2026-05-23 17:27:33.948,1440793404,156948,2,-0.4353,-0.09546,-0.47314,-0.969,1.168,1.374
2026-05-23 17:27:33.148,1440792604,157148,1,-0.34448,-0.51172,-0.9541,-1.634,0.183,-0.069
2026-05-23 17:27:33.148,1440792604,157148,2,-0.43433,-0.09839,-0.46997,-0.908,1.137,1.519
2026-05-23 17:27:34.348,1440793804,157348,1,-0.33716,-0.50537,-0.95068,-1.84,0.435,-0.099
2026-05-23 17:27:34.348,1440793804,157348,2,-0.43286,-0.09473,-0.48145,-1.061,1.084,1.206
2026-05-23 17:27:34.548,1440794004,157548,1,-0.34229,-0.50928,-0.948,-1.87,0.344,0.069
2026-05-23 17:27:34.548,1440794004,157548,2,-0.43848,-0.09766,-0.46582,-1.008,1.107,1.389
2026-05-23 17:27:34.748,1440794204,157748,1,-0.34082,-0.51025,-0.95313,-1.763,0.359,-0.023
2026-05-23 17:27:34.748,1440794204,157748,2,-0.43848,-0.09497,-0.47144,-0.832,1.031,1.466
2026-05-23 17:27:34.948,1440794404,157948,1,-0.34448,-0.51294,-0.94336,-2.099,0.275,0.183
2026-05-23 17:27:34.948,1440794404,157948,2,-0.43555,-0.09937,-0.46948,-0.969,0.962,1.313
2026-05-23 17:27:34.148,1440793604,158148,1,-0.33618,-0.50928,-0.94922,-1.763,0.374,0.008
2026-05-23 17:27:34.148,1440793604,158148,2,-0.43433,-0.09961,-0.47168,-1.015,1.0,1.252
2026-05-23 17:27:35.348,1440794804,158348,1,-0.33936,-0.50806,-0.95386,-1.74,0.214,-0.069
2026-05-23 17:27:35.348,1440794804,158348,2,-0.43677,-0.10254,-0.46851,-0.924,1.176,1.496
2026-05-23 17:27:35.548,1440795004,158548,1,-0.33594,-0.50488,-0.94604,-1.695,0.191,-0.008
2026-05-23 17:27:35.548,1440795004,158548,2,-0.43481,-0.09985,-0.46313,-0.985,1.137,1.405
2026-05-23 17:27:35.748,1440795204,158748,1,-0.33716,-0.51196,-0.95776,-1.863,0.183,0.198
2026-05-23 17:27:35.748,1440795204,158748,2,-0.43677,-0.09863,-0.46509,-0.947,1.26,1.267
2026-05-23 17:27:35.948,1440795404,158948,1,-0.33936,-0.51001,-0.9458,-1.763,0.336,-0.145
2026-05-23 17:27:35.948,1440795404,158948,2,-0.4314,-0.09229,-0.47485,-1.221,0.947,1.359
2026-05-23 17:27:35.148,1440794604,159148,1,-0.34082,-0.50977,-0.94116,-1.901,0.443,-0.13
2026-05-23 17:27:35.148,1440794604,159148,2,-0.43945,-0.09497,-0.4707,-0.412,1.061,1.336
2026-05-23 17:27:36.362,1440795818,159362,1,-0.34302,-0.51392,-0.94727,-1.664,0.252,-0.237
2026-05-23 17:27:36.362,1440795818,159362,2,-0.43213,-0.10034,-0.46753,-1.092,0.977,1.344
2026-05-23 17:27:36.562,1440796018,159562,1,-0.33496,-0.50439,-0.94556,-1.771,0.374,-0.198
2026-05-23 17:27:36.562,1440796018,159562,2,-0.43726,-0.10181,-0.46826,-1.092,0.901,1.359
2026-05-23 17:27:36.762,1440796218,159762,1,-0.33838,-0.50342,-0.95117,-1.756,0.267,-0.053
2026-05-23 17:27:36.762,1440796218,159762,2,-0.43286,-0.10034,-0.46338,-1.359,1.107,1.496
2026-05-23 17:27:36.962,1440796418,159962,1,-0.33423,-0.51318,-0.94775,-1.885,0.221,0.168
2026-05-23 17:27:36.962,1440796418,159962,2,-0.43652,-0.0957,-0.46411,-1.489,0.847,1.656
2026-05-23 17:27:36.162,1440795618,160162,1,-0.3396,-0.51099,-0.94507,-1.962,0.29,-0.206
2026-05-23 17:27:36.162,1440795618,160162,2,-0.43848,-0.0957,-0.47314,-0.664,1.405,1.0
2026-05-23 17:27:37.362,1440796818,160362,1,-0.34277,-0.5127,-0.95215,-1.733,0.458,-0.069
2026-05-23 17:27:37.362,1440796818,160362,2,-0.43579,-0.08887,-0.47461,-0.908,1.237,0.878
2026-05-23 17:27:37.562,1440797018,160562,1,-0.34106,-0.51392,-0.95947,-1.863,0.252,-0.061
2026-05-23 17:27:37.562,1440797018,160562,2,-0.43164,-0.09375,-0.47192,-0.802,1.038,1.458
2026-05-23 17:27:37.762,1440797218,160762,1,-0.3396,-0.50684,-0.94556,-1.695,0.313,-0.13
2026-05-23 17:27:37.762,1440797218,160762,2,-0.43872,-0.09497,-0.4624,-0.84,1.206,1.153
2026-05-23 17:27:37.962,1440797418,160962,1,-0.34326,-0.50659,-0.95361,-1.786,0.145,-0.038
2026-05-23 17:27:37.962,1440797418,160962,2,-0.43213,-0.09814,-0.46509,-1.13,1.0,1.626
2026-05-23 17:27:37.162,1440796618,161162,1,-0.34155,-0.51099,-0.95483,-1.962,0.137,0.168
2026-05-23 17:27:37.162,1440796618,161162,2,-0.43945,-0.09839,-0.46606,-0.931,1.382,1.359
2026-05-23 17:27:38.362,1440797818,161362,1,-0.34497,-0.51221,-0.94971,-1.748,0.198,-0.031
2026-05-23 17:27:38.362,1440797818,161362,2,-0.4375,-0.09985,-0.46704,-1.198,1.069,1.481
2026-05-23 17:27:38.562,1440798018,161562,1,-0.34766,-0.51489,-0.94336,-1.916,0.29,-0.008
2026-05-23 17:27:38.562,1440798018,161562,2,-0.43384,-0.09888,-0.46899,-1.656,0.718,1.573
2026-05-23 17:27:38.762,1440798218,161762,1,-0.33838,-0.51123,-0.94751,-1.649,0.405,
2026-05-23 17:27:38.762,1440798218,161762,2,-0.43237,-0.10059,-0.46851,-1.435,0.802,1.366
2026-05-23 17:27:38.962,1440798418,161962,1,-0.33862,-0.51001,-0.95605,-1.779,0.29,-0.069
2026-05-23 17:27:38.962,1440798418,161962,2,-0.44116,-0.09619,-0.46753,-1.168,0.954,1.282
2026-05-23 17:27:38.162,1440797618,162162,1,-0.34326,-0.51196,-0.948,-1.763,0.328,-0.031
2026-05-23 17:27:38.162,1440797618,162162,2,-0.44043,-0.09497,-0.47241,-1.023,0.954,1.275
2026-05-23 17:27:39.362,1440798818,162362,1,-0.33691,-0.51196,-0.9458,-1.733,0.397,-0.168
2026-05-23 17:27:39.362,1440798818,162362,2,-0.43359,-0.09644,-0.47144,-0.832,1.183,1.145
2026-05-23 17:27:39.562,1440799018,162562,1,-0.34082,-0.51245,-0.94702,-1.908,0.328,0.107
2026-05-23 17:27:39.562,1440799018,162562,2,-0.43652,-0.09033,-0.46362,-1.282,0.87,1.206
2026-05-23 17:27:39.762,1440799218,162762,1,-0.33667,-0.51294,-0.94775,-1.733,0.282,-0.267
2026-05-23 17:27:39.762,1440799218,162762,2,-0.43555,-0.09741,-0.46973,-1.038,1.031,1.412
2026-05-23 17:27:39.962,1440799418,162962,1,-0.33667,-0.51489,-0.95679,-1.855,0.252,-0.115
2026-05-23 17:27:39.962,1440799418,162962,2,-0.44019,-0.09839,-0.47217,-0.939,1.115,1.206
2026-05-23 17:27:39.162,1440798618,163162,1,-0.33667,-0.51294,-0.95239,-1.771,0.504,-0.321
2026-05-23 17:27:39.162,1440798618,163162,2,-0.43921,-0.09204,-0.46338,-1.26,0.954,1.313
2026-05-23 17:27:40.362,1440799818,163362,1,-0.34595,-0.51367,-0.95386,-1.557,0.282,-0.198
2026-05-23 17:27:40.362,1440799818,163362,2,-0.43335,-0.09644,-0.46924,-1.069,1.038,1.336
2026-05-23 17:27:40.562,1440800018,163562,1,-0.34131,-0.51172,-0.95166,-1.557,0.198,-0.321
2026-05-23 17:27:40.562,1440800018,163562,2,-0.4353,-0.09155,-0.47314,-0.947,1.015,1.145
2026-05-23 17:27:40.762,1440800218,163762,1,-0.34082,-0.51636,-0.96094,-2.557,-0.038,0.496
2026-05-23 17:27:40.762,1440800218,163762,2,-0.42847,-0.09546,-0.46924,-1.038,0.893,1.481
2026-05-23 17:27:40.962,1440800418,163962,1,-0.34326,-0.50928,-0.95044,-1.87,0.069,-0.084
2026-05-23 17:27:40.962,1440800418,163962,2,-0.43164,-0.10034,-0.46924,-1.298,0.878,1.298
2026-05-23 17:27:40.162,1440799618,164162,1,-0.33838,-0.51099,-0.95825,-1.702,0.473,-0.015
2026-05-23 17:27:40.162,1440799618,164162,2,-0.43311,-0.09741,-0.4585,-1.168,1.015,1.397
2026-05-23 17:27:41.362,1440800818,164362,1,-0.33521,-0.51001,-0.948,-1.84,0.305,-0.069
2026-05-23 17:27:41.362,1440800818,164362,2,-0.43286,-0.09473,-0.47363,-1.191,0.947,1.137
2026-05-23 17:27:41.562,1440801018,164562,1,-0.33936,-0.51147,-0.95337,-1.183,0.496,-0.29
2026-05-23 17:27:41.562,1440801018,164562,2,-0.43188,-0.10352,-0.46191,-0.58,1.084,1.122
2026-05-23 17:27:41.762,1440801218,164762,1,-0.34473,-0.50952,-0.95483,-1.733,0.328,-0.16
2026-05-23 17:27:41.762,1440801218,164762,2,-0.43188,-0.09619,-0.46655,-1.053,1.015,1.282
2026-05-23 17:27:41.962,1440801418,164962,1,-0.33887,-0.5127,-0.94751,-1.725,0.542,-0.137
2026-05-23 17:27:41.962,1440801418,164962,2,-0.43359,-0.10156,-0.47241,-1.031,1.252,1.275
2026-05-23 17:27:41.162,1440800618,165162,1,-0.33276,-0.50757,-0.94971,-2.0,0.229,-0.031
2026-05-23 17:27:41.162,1440800618,165162,2,-0.43726,-0.09937,-0.4729,-1.061,1.214,1.183
2026-05-23 17:27:42.362,1440801818,165362,1,-0.33545,-0.50562,-0.95654,-1.786,0.244,0.023
2026-05-23 17:27:42.362,1440801818,165362,2,-0.43848,-0.09692,-0.4707,-0.908,1.13,1.29
2026-05-23 17:27:42.562,1440802018,165562,1,-0.34351,-0.51367,-0.95093,-1.893,0.305,0.046
2026-05-23 17:27:42.562,1440802018,165562,2,-0.43335,-0.09155,-0.46851,-1.229,1.16,1.26
2026-05-23 17:27:42.762,1440802218,165762,1,-0.33936,-0.51074,-0.95313,-1.504,0.435,-0.16
2026-05-23 17:27:42.762,1440802218,165762,2,-0.43994,-0.09668,-0.47974,-1.031,1.099,1.405
2026-05-23 17:27:42.962,1440802418,165962,1,-0.34058,-0.51099,-0.95313,-1.985,0.198,-0.076
2026-05-23 17:27:42.962,1440802418,165962,2,-0.43872,-0.09375,-0.46118,-0.969,1.008,1.382
2026-05-23 17:27:42.162,1440801618,166162,1,-0.34058,-0.5105,-0.95361,-1.992,0.275,0.183
2026-05-23 17:27:42.162,1440801618,166162,2,-0.43384,-0.09546,-0.4668,-1.084,1.084,1.282
2026-05-23 17:27:43.362,1440802818,166362,1,-0.34082,-0.50806,-0.94409,-1.672,0.466,0.084
2026-05-23 17:27:43.362,1440802818,166362,2,-0.43384,-0.10181,-0.46729,-1.176,0.931,1.405
2026-05-23 17:27:43.562,1440803018,166562,1,-0.34131,-0.51318,-0.95117,-1.977,0.473,0.031
2026-05-23 17:27:43.562,1440803018,166562,2,-0.43384,-0.09497,-0.46997,-1.115,1.107,1.359
2026-05-23 17:27:43.762,1440803218,166762,1,-0.34058,-0.51001,-0.94385,-1.626,0.405,-0.16
2026-05-23 17:27:43.762,1440803218,166762,2,-0.43579,-0.10059,-0.46777,-1.13,1.16,1.198
2026-05-23 17:27:43.962,1440803418,166962,1,-0.33862,-0.50879,-0.9541,-1.84,0.328,-0.13
2026-05-23 17:27:43.962,1440803418,166962,2,-0.4397,-0.09814,-0.47119,-1.153,1.191,1.527
2026-05-23 17:27:43.162,1440802618,167162,1,-0.34326,-0.5105,-0.94458,-1.74,0.397,-0.183
2026-05-23 17:27:43.162,1440802618,167162,2,-0.43994,-0.09912,-0.46899,-1.168,1.053,1.206
2026-05-23 17:27:44.362,1440803818,167362,1,-0.33984,-0.50537,-0.95337,-1.733,0.389,-0.13
2026-05-23 17:27:44.362,1440803818,167362,2,-0.43945,-0.09619,-0.46753,-0.977,0.901,1.573
2026-05-23 17:27:44.562,1440804018,167562,1,-0.34351,-0.51318,-0.94971,-1.779,0.29,-0.137
2026-05-23 17:27:44.562,1440804018,167562,2,-0.43188,-0.09717,-0.46655,-1.076,1.183,1.282
2026-05-23 17:27:44.762,1440804218,167762,1,-0.33228,-0.51563,-0.95337,-1.84,0.191,-0.069
2026-05-23 17:27:44.762,1440804218,167762,2,-0.4375,-0.09741,-0.4668,-0.847,1.252,1.198
2026-05-23 17:27:44.962,1440804418,167962,1,-0.34155,-0.50977,-0.95483,-1.756,0.443,-0.038
2026-05-23 17:27:44.962,1440804418,167962,2,-0.44067,-0.10132,-0.46851,-1.069,1.099,1.053
2026-05-23 17:27:44.162,1440803618,168162,1,-0.34058,-0.51416,-0.95044,-1.611,0.427,-0.321
2026-05-23 17:27:44.162,1440803618,168162,2,-0.43726,-0.10303,-0.46655,-1.031,1.031,1.267
2026-05-23 17:27:45.362,1440804818,168362,1,-0.33667,-0.51196,-0.95093,-1.557,0.313,0.061
2026-05-23 17:27:45.362,1440804818,168362,2,-0.43896,-0.09961,-0.46924,-1.046,0.901,1.458
2026-05-23 17:27:45.562,1440805018,168562,1,-0.34082,-0.50464,-0.94946,-1.832,0.26,0.099
2026-05-23 17:27:45.562,1440805018,168562,2,-0.43311,-0.09912,-0.46509,-0.74,1.168,1.229
2026-05-23 17:27:45.762,1440805218,168762,1,-0.33643,-0.51367,-0.94653,-1.718,0.389,-0.168
2026-05-23 17:27:45.762,1440805218,168762,2,-0.43701,-0.0979,-0.4729,-1.183,1.084,1.351
2026-05-23 17:27:45.962,1440805418,168962,1,-0.34717,-0.50977,-0.94971,-1.916,0.313,0.031
2026-05-23 17:27:45.962,1440805418,168962,2,-0.44385,-0.09619,-0.46484,-1.084,1.084,1.351
2026-05-23 17:27:45.162,1440804618,169162,1,-0.34375,-0.5061,-0.95581,-1.878,0.26,0.023
2026-05-23 17:27:45.162,1440804618,169162,2,-0.43604,-0.0957,-0.47388,-0.908,1.038,1.466
2026-05-23 17:27:46.362,1440805818,169362,1,-0.33813,-0.51172,-0.95239,-1.74,0.328,-0.351
2026-05-23 17:27:46.362,1440805818,169362,2,-0.43408,-0.09497,-0.46875,-1.473,0.947,1.435
2026-05-23 17:27:46.562,1440806018,169562,1,-0.33862,-0.50879,-0.94629,-1.84,0.511,0.015
2026-05-23 17:27:46.562,1440806018,169562,2,-0.43994,-0.09302,-0.46387,-1.176,0.969,1.435
2026-05-23 17:27:46.762,1440806218,169762,1,-0.3374,-0.51099,-0.95825,-1.794,0.511,0.061
2026-05-23 17:27:46.762,1440806218,169762,2,-0.43848,-0.09863,-0.46973,-0.992,1.069,1.29
2026-05-23 17:27:46.962,1440806418,169962,1,-0.33447,-0.5105,-0.94409,-1.977,0.206,
2026-05-23 17:27:46.962,1440806418,169962,2,-0.43408,-0.09473,-0.46094,-1.015,1.099,1.389
2026-05-23 17:27:46.162,1440805618,170162,1,-0.34204,-0.51587,-0.9624,-1.718,0.405,-0.153
2026-05-23 17:27:46.162,1440805618,170162,2,-0.44141,-0.10327,-0.46997,-1.084,1.031,1.427
2026-05-23 17:27:47.362,1440806818,170362,1,-0.34131,-0.50879,-0.94849,-1.695,0.336,-0.099
2026-05-23 17:27:47.362,1440806818,170362,2,-0.43335,-0.09985,-0.46484,-0.969,1.076,1.359
2026-05-23 17:27:47.562,1440807018,170562,1,-0.34082,-0.50659,-0.9519,-1.802,0.252,-0.298
2026-05-23 17:27:47.562,1440807018,170562,2,-0.4314,-0.09155,-0.47852,-0.969,0.985,1.405
2026-05-23 17:27:47.762,1440807218,170762,1,-0.33838,-0.50586,-0.94873,-1.885,0.427,-0.137
2026-05-23 17:27:47.762,1440807218,170762,2,-0.43848,-0.09717,-0.47559,-1.176,1.008,1.221
2026-05-23 17:27:47.962,1440807418,170962,1,-0.33325,-0.51294,-0.94922,-1.756,0.275,
2026-05-23 17:27:47.962,1440807418,170962,2,-0.43506,-0.09766,-0.46387,-1.053,1.183,1.252
2026-05-23 17:27:47.162,1440806618,171162,1,-0.34155,-0.51147,-0.95459,-2.031,0.267,0.122
2026-05-23 17:27:47.162,1440806618,171162,2,-0.43481,-0.09229,-0.45874,-0.855,1.092,1.382
2026-05-23 17:27:48.362,1440807818,171362,1,-0.34375,-0.50952,-0.94946,-1.947,0.298,0.031
2026-05-23 17:27:48.362,1440807818,171362,2,-0.44189,-0.09912,-0.45728,-1.183,1.008,1.244
2026-05-23 17:27:48.562,1440808018,171562,1,-0.34302,-0.51318,-0.96729,-2.443,0.16,0.282
2026-05-23 17:27:48.562,1440808018,171562,2,-0.44043,-0.10425,-0.46143,-0.885,1.115,1.282
2026-05-23 17:27:48.762,1440808218,171762,1,-0.34375,-0.51147,-0.95386,-1.634,0.389,-0.191
2026-05-23 17:27:48.762,1440808218,171762,2,-0.44092,-0.10132,-0.47095,-1.366,1.008,1.557
2026-05-23 17:27:48.962,1440808418,171962,1,-0.34155,-0.50806,-0.94751,-1.527,0.405,-0.137
2026-05-23 17:27:48.962,1440808418,171962,2,-0.43286,-0.09399,-0.46875,-1.191,1.099,1.382
2026-05-23 17:27:48.162,1440807618,172162,1,-0.34106,-0.51367,-0.94556,-1.71,0.351,-0.107
2026-05-23 17:27:48.162,1440807618,172162,2,-0.43408,-0.09668,-0.46802,-1.046,1.061,1.305
2026-05-23 17:27:49.362,1440808818,172362,1,-0.34033,-0.5166,-0.95142,-1.779,0.122,-0.137
2026-05-23 17:27:49.362,1440808818,172362,2,-0.43555,-0.09399,-0.46899,-1.046,1.137,1.351
2026-05-23 17:27:49.562,1440809018,172562,1,-0.34277,-0.51563,-0.96313,-2.069,0.145,
2026-05-23 17:27:49.562,1440809018,172562,2,-0.43726,-0.09839,-0.47168,-0.824,1.282,1.221
2026-05-23 17:27:49.762,1440809218,172762,1,-0.34253,-0.50903,-0.94971,-1.794,0.321,-0.092
2026-05-23 17:27:49.762,1440809218,172762,2,-0.43506,-0.09668,-0.47095,-1.244,0.962,1.221
2026-05-23 17:27:49.962,1440809418,172962,1,-0.34546,-0.51392,-0.9519,-1.885,0.305,-0.084
2026-05-23 17:27:49.962,1440809418,172962,2,-0.42969,-0.09814,-0.46582,-1.435,1.023,1.389
2026-05-23 17:27:49.162,1440808618,173162,1,-0.34204,-0.5061,-0.95093,-1.641,0.42,-0.214
2026-05-23 17:27:49.162,1440808618,173162,2,-0.43848,-0.10254,-0.46924,-0.786,1.206,1.298
2026-05-23 17:27:50.362,1440809818,173362,1,-0.34277,-0.50806,-0.94678,-1.656,0.557,-0.336
2026-05-23 17:27:50.362,1440809818,173362,2,-0.44141,-0.09595,-0.47241,-1.069,0.931,1.351
2026-05-23 17:27:50.562,1440810018,173562,1,-0.34277,-0.50513,-0.95361,-1.863,0.244,-0.092
2026-05-23 17:27:50.562,1440810018,173562,2,-0.44629,-0.09814,-0.47144,-0.947,1.099,1.328
2026-05-23 17:27:50.762,1440810218,173762,1,-0.33984,-0.51074,-0.94971,-1.908,0.084,0.031
2026-05-23 17:27:50.762,1440810218,173762,2,-0.43604,-0.09131,-0.46924,-1.321,0.786,1.344
2026-05-23 17:27:50.962,1440810418,173962,1,-0.33594,-0.50488,-0.95898,-2.267,0.237,-0.015
2026-05-23 17:27:50.962,1440810418,173962,2,-0.4353,-0.09619,-0.46851,-0.908,1.321,1.313
2026-05-23 17:27:50.171,1440809627,174171,1,-0.33789,-0.50488,-0.948,-2.061,0.237,-0.145
2026-05-23 17:27:50.171,1440809627,174171,2,-0.44043,-0.10376,-0.46997,-1.214,0.878,1.527
2026-05-23 17:27:51.371,1440810827,174371,1,-0.34302,-0.50903,-0.94702,-1.977,0.13,0.137
2026-05-23 17:27:51.371,1440810827,174371,2,-0.43481,-0.09619,-0.46802,-1.237,1.099,1.527
2026-05-23 17:27:51.571,1440811027,174571,1,-0.34277,-0.50635,-0.94922,-1.969,0.252,-0.023
2026-05-23 17:27:51.571,1440811027,174571,2,-0.43823,-0.10156,-0.47485,-1.13,1.0,1.359
2026-05-23 17:27:51.771,1440811227,174771,1,-0.34009,-0.50757,-0.95679,-1.718,0.237,-0.069
2026-05-23 17:27:51.771,1440811227,174771,2,-0.43848,-0.09961,-0.47314,-1.137,1.0,1.405
2026-05-23 17:27:51.971,1440811427,174971,1,-0.3313,-0.50464,-0.95068,-1.847,0.344,-0.053
2026-05-23 17:27:51.971,1440811427,174971,2,-0.4397,-0.1001,-0.4707,-1.305,1.046,1.336
2026-05-23 17:27:51.171,1440810627,175171,1,-0.34033,-0.50806,-0.94702,-1.901,0.412,-0.275
2026-05-23 17:27:51.171,1440810627,175171,2,-0.43018,-0.09937,-0.47363,-1.244,0.969,1.244
2026-05-23 17:27:52.371,1440811827,175371,1,-0.34058,-0.51172,-0.95459,-1.863,0.313,0.038
2026-05-23 17:27:52.371,1440811827,175371,2,-0.43481,-0.09961,-0.45752,-0.84,0.901,1.427
2026-05-23 17:27:52.571,1440812027,175571,1,-0.34009,-0.50659,-0.94556,-1.863,0.244,-0.008
2026-05-23 17:27:52.571,1440812027,175571,2,-0.43555,-0.09766,-0.47461,-1.168,1.099,1.389
2026-05-23 17:27:52.771,1440812227,175771,1,-0.34155,-0.50122,-0.95386,-1.626,0.489,-0.237
2026-05-23 17:27:52.771,1440812227,175771,2,-0.4353,-0.0957,-0.47095,-1.221,0.969,1.252
2026-05-23 17:27:52.971,1440812427,175971,1,-0.34058,-0.50562,-0.95581,-1.855,0.298,-0.153
2026-05-23 17:27:52.971,1440812427,175971,2,-0.44165,-0.09863,-0.47192,-0.847,0.947,1.229
2026-05-23 17:27:52.171,1440811627,176171,1,-0.33838,-0.50513,-0.94897,-2.122,0.252,-0.107
2026-05-23 17:27:52.171,1440811627,176171,2,-0.43433,-0.10059,-0.47217,-1.183,1.008,1.344
2026-05-23 17:27:53.371,1440812827,176371,1,-0.34497,-0.51343,-0.94849,-1.802,0.359,0.046
2026-05-23 17:27:53.371,1440812827,176371,2,-0.43604,-0.09814,-0.46802,-1.153,1.015,1.42
2026-05-23 17:27:53.571,1440813027,176571,1,-0.34106,-0.5144,-0.94629,-1.71,0.351,-0.237
2026-05-23 17:27:53.571,1440813027,176571,2,-0.43726,-0.09766,-0.46069,-1.191,1.023,1.305
2026-05-23 17:27:53.771,1440813227,176771,1,-0.33984,-0.50684,-0.95044,-1.359,0.344,-0.275
2026-05-23 17:27:53.771,1440813227,176771,2,-0.43335,-0.1001,-0.47217,-0.924,1.015,1.298
2026-05-23 17:27:53.971,1440813427,176971,1,-0.33936,-0.5105,-0.95313,-1.634,0.389,0.015
2026-05-23 17:27:53.971,1440813427,176971,2,-0.43799,-0.0896,-0.45679,-1.023,0.908,1.321
2026-05-23 17:27:53.171,1440812627,177171,1,-0.33911,-0.50806,-0.94434,-1.87,0.435,-0.023
2026-05-23 17:27:53.171,1440812627,177171,2,-0.43921,-0.10352,-0.46484,-1.122,1.145,1.214
2026-05-23 17:27:54.371,1440813827,177371,1,-0.34619,-0.51245,-0.94946,-1.87,0.275,-0.038
2026-05-23 17:27:54.371,1440813827,177371,2,-0.43506,-0.10107,-0.47363,-0.977,1.122,1.42
2026-05-23 17:27:54.571,1440814027,177571,1,-0.34009,-0.5105,-0.95337,-1.962,0.198,-0.008
2026-05-23 17:27:54.571,1440814027,177571,2,-0.43579,-0.09351,-0.46289,-1.061,1.031,1.458
2026-05-23 17:27:54.843,1440814299,177843,1,-0.3396,-0.51465,-0.94775,-1.893,0.29,
2026-05-23 17:27:54.843,1440814299,177843,2,-0.43433,-0.10278,-0.47876,-1.313,0.916,1.214
2026-05-23 17:27:54.043,1440813499,178043,1,-0.34497,-0.50708,-0.95044,-1.786,0.336,-0.137
2026-05-23 17:27:54.043,1440813499,178043,2,-0.4375,-0.09814,-0.46558,-1.351,1.023,1.351
2026-05-23 17:27:54.243,1440813699,178243,1,-0.33521,-0.50977,-0.96509,-1.641,0.351,-0.183
2026-05-23 17:27:54.243,1440813699,178243,2,-0.43701,-0.09741,-0.46191,-1.191,0.771,1.252
2026-05-23 17:27:55.443,1440814899,178443,1,-0.34033,-0.5105,-0.9519,-1.611,0.344,-0.099
2026-05-23 17:27:55.443,1440814899,178443,2,-0.43091,-0.09888,-0.4624,-1.015,1.168,1.328
2026-05-23 17:27:55.643,1440815099,178643,1,-0.33569,-0.51025,-0.94556,-1.985,0.244,-0.023
2026-05-23 17:27:55.643,1440815099,178643,2,-0.43848,-0.09692,-0.46826,-1.198,1.16,1.122
2026-05-23 17:27:55.843,1440815299,178843,1,-0.34106,-0.5061,-0.95435,-1.672,0.221,-0.176
2026-05-23 17:27:55.843,1440815299,178843,2,-0.43164,-0.0918,-0.47363,-1.015,1.137,1.496
2026-05-23 17:27:55.043,1440814499,179043,1,-0.34302,-0.51001,-0.95532,-1.87,0.229,-0.053
2026-05-23 17:27:55.043,1440814499,179043,2,-0.43262,-0.10083,-0.47217,-1.26,0.992,1.374
2026-05-23 17:27:55.243,1440814699,179243,1,-0.34082,-0.51025,-0.95093,-1.863,0.267,-0.107
2026-05-23 17:27:55.243,1440814699,179243,2,-0.43921,-0.09692,-0.4646,-1.16,1.092,1.198
2026-05-23 17:27:58.000,1440817456,182000,1,-0.34277,-0.50781,-0.94849,-1.939,0.42,-0.061
2026-05-23 17:27:58.000,1440817456,182000,2,-0.44336,-0.09717,-0.46362,-1.061,1.015,1.435
2026-05-23 17:27:58.200,1440817656,182200,1,-0.34131,-0.51245,-0.95557,-1.786,0.26,-0.107
2026-05-23 17:27:58.200,1440817656,182200,2,-0.43921,-0.09814,-0.4668,-0.649,0.985,1.603
2026-05-23 17:27:59.400,1440818856,182400,1,-0.34082,-0.50293,-0.95337,-1.71,0.267,0.099
2026-05-23 17:27:59.400,1440818856,182400,2,-0.4353,-0.1001,-0.47021,-1.153,0.771,1.229
2026-05-23 17:27:59.600,1440819056,182600,1,-0.35083,-0.52661,-0.96777,-2.397,0.198,0.221
2026-05-23 17:27:59.600,1440819056,182600,2,-0.43018,-0.09106,-0.46533,-1.679,0.794,1.344
2026-05-23 17:27:59.800,1440819256,182800,1,-0.33618,-0.50366,-0.95679,-1.824,0.374,0.084
2026-05-23 17:27:59.800,1440819256,182800,2,-0.43115,-0.09961,-0.4668,-1.725,0.802,1.405
2026-05-23 17:27:59.000,1440818456,183000,1,-0.34155,-0.51318,-0.94824,-1.87,0.275,-0.252
2026-05-23 17:27:59.000,1440818456,183000,2,-0.43042,-0.09985,-0.45532,-1.321,0.687,1.527
2026-05-23 17:27:59.200,1440818656,183200,1,-0.33594,-0.50757,-0.94946,-1.809,0.153,-0.015
2026-05-23 17:27:59.200,1440818656,183200,2,-0.43091,-0.09814,-0.47314,0.366,1.435,1.366
2026-05-23 17:28:00.400,1440819856,183400,1,-0.34033,-0.50977,-0.95703,-1.939,-0.069,-0.031
2026-05-23 17:28:00.400,1440819856,183400,2,-0.43799,-0.1001,-0.46875,-0.901,1.015,1.321
2026-05-23 17:28:00.600,1440820056,183600,1,-0.34473,-0.51196,-0.9519,-1.237,0.458,-0.282
2026-05-23 17:28:00.600,1440820056,183600,2,-0.43286,-0.09546,-0.47412,-1.137,0.878,1.321
2026-05-23 17:28:00.800,1440820256,183800,1,-0.34595,-0.51099,-0.95093,-1.687,0.244,-0.221
2026-05-23 17:28:00.800,1440820256,183800,2,-0.43652,-0.1001,-0.46704,-1.084,1.015,1.267
2026-05-23 17:28:00.000,1440819456,184000,1,-0.34033,-0.50732,-0.9502,-1.802,0.336,-0.115
2026-05-23 17:28:00.000,1440819456,184000,2,-0.43408,-0.09839,-0.47046,-1.13,1.198,1.168
2026-05-23 17:28:00.200,1440819656,184200,1,-0.34253,-0.50537,-0.9585,-1.924,0.206,-0.008
2026-05-23 17:28:00.200,1440819656,184200,2,-0.44043,-0.09863,-0.47461,-1.29,1.023,1.275
2026-05-23 17:28:01.400,1440820856,184400,1,-0.34229,-0.50806,-0.95068,-1.794,0.344,-0.115
2026-05-23 17:28:01.400,1440820856,184400,2,-0.44165,-0.09717,-0.47339,-1.0,1.16,1.198
2026-05-23 17:28:01.600,1440821056,184600,1,-0.34058,-0.51367,-0.94922,-1.763,0.26,-0.107
2026-05-23 17:28:01.600,1440821056,184600,2,-0.43726,-0.09399,-0.46826,-0.832,1.092,1.267
2026-05-23 17:28:01.800,1440821256,184800,1,-0.34253,-0.51245,-0.95801,-1.863,0.107,0.069
2026-05-23 17:28:01.800,1440821256,184800,2,-0.43994,-0.09375,-0.47168,-1.473,0.885,1.496
2026-05-23 17:28:01.000,1440820456,185000,1,-0.34326,-0.50977,-0.9541,-1.985,0.122,-0.092
2026-05-23 17:28:01.000,1440820456,185000,2,-0.4353,-0.09595,-0.47021,-1.168,0.985,1.389
2026-05-23 17:28:01.200,1440820656,185200,1,-0.3418,-0.50879,-0.95093,-1.45,0.397,-0.427
2026-05-23 17:28:01.200,1440820656,185200,2,-0.43677,-0.09644,-0.46729,-1.069,1.221,1.435
2026-05-23 17:28:02.400,1440821856,185400,1,-0.33936,-0.50391,-0.95044,-1.649,0.397,-0.191
2026-05-23 17:28:02.400,1440821856,185400,2,-0.43286,-0.09497,-0.47363,-1.168,0.87,1.336
2026-05-23 17:28:02.600,1440822056,185600,1,-0.33984,-0.50806,-0.95239,-1.641,0.374,-0.214
2026-05-23 17:28:02.600,1440822056,185600,2,-0.44043,-0.09766,-0.46899,-0.733,1.221,1.275
2026-05-23 17:28:02.800,1440822256,185800,1,-0.34375,-0.50586,-0.95605,-1.84,0.221,-0.053
2026-05-23 17:28:02.800,1440822256,185800,2,-0.42944,-0.10034,-0.47266,-0.992,1.084,1.359
2026-05-23 17:28:02.000,1440821456,186000,1,-0.34058,-0.51001,-0.95459,-1.725,0.282,-0.069
2026-05-23 17:28:02.000,1440821456,186000,2,-0.43677,-0.09521,-0.46216,-0.916,1.221,1.389
2026-05-23 17:28:02.200,1440821656,186200,1,-0.33838,-0.50854,-0.95313,-1.84,0.153,-0.046
2026-05-23 17:28:02.200,1440821656,186200,2,-0.43311,-0.10327,-0.47046,-1.023,1.053,1.435
2026-05-23 17:28:03.400,1440822856,186400,1,-0.34277,-0.50781,-0.95898,-1.679,0.466,-0.206
2026-05-23 17:28:03.400,1440822856,186400,2,-0.43457,-0.10254,-0.46899,-0.985,1.084,1.328
2026-05-23 17:28:03.600,1440823056,186600,1,-0.34253,-0.50537,-0.9541,-1.679,0.405,-0.092
2026-05-23 17:28:03.600,1440823056,186600,2,-0.43872,-0.09521,-0.4707,-1.29,0.969,1.328
2026-05-23 17:28:03.800,1440823256,186800,1,-0.34692,-0.50293,-0.94946,-1.656,0.252,-0.206
2026-05-23 17:28:03.800,1440823256,186800,2,-0.43726,-0.1062,-0.46143,-1.008,1.153,1.13
2026-05-23 17:28:03.000,1440822456,187000,1,-0.33936,-0.50659,-0.95264,-1.87,0.374,-0.168
2026-05-23 17:28:03.000,1440822456,187000,2,-0.43262,-0.0957,-0.46216,-0.847,1.168,1.336
2026-05-23 17:28:03.200,1440822656,187200,1,-0.34009,-0.50977,-0.94702,-1.656,0.397,-0.038
2026-05-23 17:28:03.200,1440822656,187200,2,-0.43506,-0.09619,-0.47412,-1.053,1.084,1.496
2026-05-23 17:28:04.400,1440823856,187400,1,-0.34277,-0.50977,-0.95459,-1.519,0.344,-0.168
2026-05-23 17:28:04.400,1440823856,187400,2,-0.44043,-0.0957,-0.46387,-1.069,1.321,1.298
2026-05-23 17:28:04.600,1440824056,187600,1,-0.34229,-0.49951,-0.94995,-1.588,0.427,-0.26
2026-05-23 17:28:04.600,1440824056,187600,2,-0.4375,-0.09204,-0.47021,-0.985,1.313,1.137
2026-05-23 17:28:04.800,1440824256,187800,1,-0.33911,-0.51001,-0.95483,-1.916,0.221,-0.069
2026-05-23 17:28:04.800,1440824256,187800,2,-0.4353,-0.09375,-0.47192,-1.053,1.13,1.221
2026-05-23 17:28:04.000,1440823456,188000,1,-0.33911,-0.51367,-0.95117,-1.679,0.168,-0.076
2026-05-23 17:28:04.000,1440823456,188000,2,-0.43823,-0.09595,-0.46509,-1.023,1.099,1.153
2026-05-23 17:28:04.200,1440823656,188200,1,-0.34448,-0.50146,-0.95679,-1.947,0.229,0.221
2026-05-23 17:28:04.200,1440823656,188200,2,-0.44214,-0.09937,-0.47827,-1.015,1.389,1.26
2026-05-23 17:28:05.400,1440824856,188400,1,-0.34399,-0.50977,-0.94727,-2.061,0.122,0.015
2026-05-23 17:28:05.400,1440824856,188400,2,-0.43677,-0.09863,-0.46655,-0.855,1.405,1.328
2026-05-23 17:28:05.600,1440825056,188600,1,-0.33789,-0.50879,-0.95801,-2.0,0.16,0.008
2026-05-23 17:28:05.600,1440825056,188600,2,-0.43726,-0.09424,-0.47363,-1.099,1.191,1.176
2026-05-23 17:28:05.800,1440825256,188800,1,-0.34277,-0.51221,-0.9585,-1.588,0.336,-0.29
2026-05-23 17:28:05.800,1440825256,188800,2,-0.44043,-0.09888,-0.47095,-1.038,1.015,1.137
2026-05-23 17:28:05.000,1440824456,189000,1,-0.33813,-0.50977,-0.95239,-1.893,0.221,0.023
2026-05-23 17:28:05.000,1440824456,189000,2,-0.43726,-0.10083,-0.46606,-0.893,1.191,1.275
2026-05-23 17:28:05.200,1440824656,189200,1,-0.34644,-0.50391,-0.9541,-1.924,0.504,-0.168
2026-05-23 17:28:05.200,1440824656,189200,2,-0.42993,-0.0979,-0.46948,-1.153,0.947,1.168
2026-05-23 17:28:06.400,1440825856,189400,1,-0.34277,-0.50854,-0.94751,-1.748,0.405,-0.099
2026-05-23 17:28:06.400,1440825856,189400,2,-0.44019,-0.09424,-0.46655,-0.855,1.099,1.206
2026-05-23 17:28:06.600,1440826056,189600,1,-0.34082,-0.51001,-0.9458,-2.008,0.29,0.16
2026-05-23 17:28:06.600,1440826056,189600,2,-0.43628,-0.10083,-0.47314,-0.947,1.053,1.176
2026-05-23 17:28:06.800,1440826256,189800,1,-0.3374,-0.50488,-0.94873,-1.779,0.344,-0.031
