datetime,epoch_ms,ts_millis,mpu_id,ax,ay,az,gx,gy,gz
2026-05-20 12:06:08.064,1162307520,151063,2,1.06812,0.18115,0.13086,-15.168,-42.366,-8.702
2026-05-20 12:06:13.241,1162312697,156240,1,0.98608,0.05615,0.45313,1.756,19.588,-10.649
2026-05-20 12:06:13.241,1162312697,156240,1,0.98608,0.05615,0.45313,1.756,19.588,-10.649
2026-05-20 12:06:13.241,1162312697,156240,2,0.99927,0.06079,0.1521,-12.588,-2.84,0.893
2026-05-20 12:06:18.391,1162317847,161391,1,1.02124,-0.09204,0.35181,-2.214,-0.206,-2.992
2026-05-20 12:06:18.391,1162317847,161391,1,1.02124,-0.09204,0.35181,-2.214,-0.206,-2.992
2026-05-20 12:06:18.391,1162317847,161391,2,1.01953,0.10474,0.05078,-7.924,1.115,3.321
2026-05-20 12:06:23.485,1162322941,166485,1,1.01392,-0.12451,0.35889,-2.267,0.412,-1.496
2026-05-20 12:06:23.485,1162322941,166485,2,1.02979,0.12573,0.06445,0.55,1.626,-2.664
2026-05-20 12:06:23.685,1162323141,166685,1,1.00854,-0.08325,0.36646,0.847,3.366,-3.092
2026-05-20 12:06:23.685,1162323141,166685,2,1.00537,0.12378,0.04126,-8.145,1.611,-3.817
2026-05-20 12:06:26.696,1162326152,169696,1,1.01611,-0.04004,0.40381,-10.374,2.641,-6.046
2026-05-20 12:06:26.696,1162326152,169696,2,1.01147,0.11938,0.04614,-8.359,3.992,-0.824
2026-05-20 12:06:26.896,1162326352,169896,1,1.02344,-0.0459,0.41064,-24.221,5.916,-10.374
2026-05-20 12:06:26.896,1162326352,169896,2,1.01123,0.11572,0.02783,-20.656,-6.137,7.405
2026-05-20 12:06:27.096,1162326552,170096,1,0.93335,-0.07324,0.41211,-21.557,8.168,-16.664
2026-05-20 12:06:27.096,1162326552,170096,2,0.95825,0.10376,0.04858,-0.969,-4.26,0.641
2026-05-20 12:06:27.296,1162326752,170296,1,1.07715,0.10083,0.48242,-19.046,-7.763,-2.71
2026-05-20 12:06:27.296,1162326752,170296,2,1.08228,0.07642,-0.18774,-36.87,-0.061,-1.305
2026-05-20 12:06:27.496,1162326952,170496,1,0.87988,0.10962,0.36206,-12.084,-22.702,-11.962
2026-05-20 12:06:27.496,1162326952,170496,2,0.91235,0.2124,0.0481,-7.237,19.878,4.336
2026-05-20 12:06:27.696,1162327152,170696,1,0.81714,0.02222,0.34302,30.84,21.824,-12.786
2026-05-20 12:06:27.696,1162327152,170696,2,1.09863,-0.13452,0.25366,-2.695,-19.122,-21.824
2026-05-20 12:06:27.896,1162327352,170896,1,0.96655,-0.01343,0.40356,-13.718,11.336,-0.221
2026-05-20 12:06:27.896,1162327352,170896,2,0.95728,0.21997,-0.09229,27.756,11.069,32.947
2026-05-20 12:06:30.825,1162330281,173825,1,0.98438,-0.03442,0.44995,7.221,-1.771,-13.481
2026-05-20 12:06:30.825,1162330281,173825,2,1.13037,0.01855,-0.1748,-1.42,-15.924,31.282
2026-05-20 12:06:30.025,1162329481,174025,1,1.00903,-0.08276,0.46338,6.985,-9.992,17.573
2026-05-20 12:06:30.025,1162329481,174025,2,0.97559,0.17603,-0.09814,-9.908,25.939,-63.038
2026-05-20 12:06:31.225,1162330681,174225,1,0.9458,-0.11816,0.46289,-0.405,-4.802,16.198
2026-05-20 12:06:31.225,1162330681,174225,2,0.90234,0.36865,-0.06128,-13.992,17.458,-37.244
2026-05-20 12:06:31.425,1162330881,174425,1,1.01611,-0.14355,0.44971,-11.45,7.069,-6.878
2026-05-20 12:06:31.425,1162330881,174425,2,0.94531,0.3999,-0.02686,-17.42,-14.985,14.076
2026-05-20 12:06:31.625,1162331081,174625,1,0.97998,-0.12866,0.48193,-2.664,12.695,-10.198
2026-05-20 12:06:31.625,1162331081,174625,2,1.02856,0.09692,0.1084,52.107,3.214,-1.45
2026-05-20 12:06:34.365,1162333821,177365,1,0.97729,-0.20605,0.43457,57.511,-7.656,19.137
2026-05-20 12:06:34.365,1162333821,177365,2,1.02515,0.10254,0.03906,55.237,-0.099,5.099
2026-05-20 12:06:34.565,1162334021,177565,1,0.98047,-0.11938,0.42163,37.084,-5.626,12.458
2026-05-20 12:06:34.565,1162334021,177565,2,1.06738,0.14209,-0.00977,33.0,8.527,-1.588
2026-05-20 12:06:34.765,1162334221,177765,1,1.02515,0.0022,0.3999,-5.947,5.443,-1.084
2026-05-20 12:06:34.765,1162334221,177765,2,1.03809,0.18433,-0.04077,-6.115,4.0,3.412
2026-05-20 12:06:34.965,1162334421,177965,1,1.01807,-0.04346,0.41138,-25.565,10.473,-13.603
2026-05-20 12:06:34.965,1162334421,177965,2,1.00659,0.23779,-0.02051,-31.664,-4.313,2.153
2026-05-20 12:06:35.165,1162334621,178165,1,0.97827,-0.09375,0.5249,-45.954,12.733,-19.931
2026-05-20 12:06:35.165,1162334621,178165,2,1.08398,0.08105,0.02686,-59.473,-8.985,2.733
2026-05-20 12:06:35.365,1162334821,178365,1,0.9353,-0.21826,0.45874,-28.786,9.496,-7.565
2026-05-20 12:06:35.365,1162334821,178365,2,1.01465,0.05957,0.03027,2.046,-0.397,-2.267
2026-05-20 12:06:35.565,1162335021,178565,1,0.94604,-0.16992,0.49805,10.969,-0.29,5.74
2026-05-20 12:06:35.565,1162335021,178565,2,0.98633,0.06299,0.05151,0.221,-3.458,-1.229
2026-05-20 12:06:35.765,1162335221,178765,1,0.97632,-0.17383,0.45313,22.328,-12.931,14.122
2026-05-20 12:06:35.765,1162335221,178765,2,1.03955,0.10229,0.02979,8.489,-2.695,1.878
2026-05-20 12:06:35.965,1162335421,178965,1,0.98486,-0.18286,0.4165,2.771,-7.992,-10.069
2026-05-20 12:06:35.965,1162335421,178965,2,1.03052,0.07129,0.06348,6.901,-7.0,8.145
2026-05-20 12:06:42.142,1162341598,185142,1,1.00757,-0.09839,0.40649,19.557,-13.55,6.87
2026-05-20 12:06:42.142,1162341598,185142,2,1.07373,0.17383,0.05029,20.863,-0.84,-4.71
2026-05-20 12:06:42.342,1162341798,185342,1,0.98999,-0.03662,0.42212,22.313,-7.756,3.656
2026-05-20 12:06:42.342,1162341798,185342,2,0.97852,0.1499,0.02417,15.718,-0.435,6.351
2026-05-20 12:06:42.542,1162341998,185542,1,1.01685,-0.07202,0.40991,20.443,-9.458,7.565
2026-05-20 12:06:42.542,1162341998,185542,2,1.03711,0.09717,0.02417,21.641,-4.191,3.687
2026-05-20 12:06:42.847,1162342303,185847,1,1.02637,-0.03711,0.3457,29.855,1.985,7.313
2026-05-20 12:06:42.847,1162342303,185847,2,1.03174,0.12012,0.00195,23.84,2.519,2.809
2026-05-20 12:06:43.047,1162342503,186047,1,0.99194,-0.03003,0.39111,13.328,-3.206,2.45
2026-05-20 12:06:43.047,1162342503,186047,2,1.00977,0.14136,0.00073,5.336,1.473,2.588
2026-05-20 12:06:43.247,1162342703,186247,1,1.02295,-0.06201,0.37354,1.641,1.992,1.359
2026-05-20 12:06:43.247,1162342703,186247,2,0.91528,0.46069,0.21826,-2.855,-2.794,-3.985
2026-05-20 12:06:46.150,1162345606,189150,1,0.62793,-0.00537,0.97144,-1.55,0.092,-4.565
2026-05-20 12:06:46.150,1162345606,189150,2,0.9563,0.33252,0.16479,13.626,5.649,-8.069
2026-05-20 12:06:49.185,1162348641,192185,1,0.90967,-0.03662,0.57153,8.122,20.229,-0.916
2026-05-20 12:06:49.185,1162348641,192185,1,0.90967,-0.03662,0.57153,8.122,20.229,-0.916
2026-05-20 12:06:49.185,1162348641,192185,2,0.72217,0.60107,0.35767,0.679,7.153,-0.611
2026-05-20 12:06:54.463,1162353919,197463,1,0.55762,-0.0769,1.01904,-5.122,1.328,2.344
2026-05-20 12:06:54.463,1162353919,197463,2,0.71899,0.57349,0.38062,-4.641,1.756,0.176
2026-05-20 12:06:54.663,1162354119,197663,1,0.38477,-0.05078,0.91748,4.679,-29.649,3.282
2026-05-20 12:06:54.663,1162354119,197663,2,0.66309,0.42383,0.22559,1.573,-27.168,36.336
2026-05-20 12:06:54.863,1162354319,197863,1,0.72607,-0.08838,0.7146,13.565,-51.58,14.863
2026-05-20 12:06:54.863,1162354319,197863,2,0.84155,0.33643,0.16846,19.733,-25.496,47.046
2026-05-20 12:06:55.117,1162354573,198117,1,0.88867,-0.08765,0.61987,4.962,-21.435,7.748
2026-05-20 12:06:55.117,1162354573,198117,2,0.94141,0.30591,0.08057,-0.641,-8.779,14.985
2026-05-20 12:06:55.317,1162354773,198317,1,0.87329,-0.07031,0.59009,1.092,-2.42,1.527
2026-05-20 12:06:55.317,1162354773,198317,2,1.01587,0.27832,0.10718,9.046,0.29,6.397
2026-05-20 12:06:55.517,1162354973,198517,1,0.85107,-0.08325,0.6167,8.061,13.489,4.168
2026-05-20 12:06:55.517,1162354973,198517,2,0.98853,0.30396,0.10449,10.985,9.809,-4.122
2026-05-20 12:06:55.717,1162355173,198717,1,0.83667,-0.00342,0.58447,-13.046,32.901,-5.374
2026-05-20 12:06:55.717,1162355173,198717,2,0.77222,0.27612,0.01831,-20.855,10.725,-23.725
2026-05-20 12:06:55.935,1162355391,198935,1,0.6311,-0.18237,0.7478,-14.053,23.687,-8.527
2026-05-20 12:06:55.935,1162355391,198935,2,0.66406,0.32251,0.24121,-13.832,3.397,-30.351
2026-05-20 12:06:56.135,1162355591,199135,1,0.62646,-0.10815,0.85547,-7.099,-6.122,-11.458
2026-05-20 12:06:56.135,1162355591,199135,2,0.98779,0.37671,0.13696,-4.008,4.985,-1.427
2026-05-20 12:06:57.306,1162356762,200306,1,0.7688,-0.05029,0.76563,-2.008,14.855,-5.145
2026-05-20 12:06:57.306,1162356762,200306,2,0.89795,0.32227,0.13135,-2.641,2.756,-1.13
2026-05-20 12:07:02.403,1162361859,205403,1,-0.35767,-0.11108,1.01367,-5.473,-12.511,1.74
2026-05-20 12:07:02.403,1162361859,205403,2,-0.14941,0.66479,0.62451,0.137,-10.183,6.595
2026-05-20 12:07:02.603,1162362059,205603,1,-0.31152,-0.1001,1.00903,1.603,-7.74,-5.565
2026-05-20 12:07:02.603,1162362059,205603,2,-0.10815,0.69629,0.65723,-2.756,-10.679,5.87
2026-05-20 12:07:02.803,1162362259,205803,1,-0.28711,-0.07471,1.05444,-5.229,-3.893,-1.153
2026-05-20 12:07:02.803,1162362259,205803,2,-0.08154,0.69849,0.71509,-2.527,-6.214,4.046
2026-05-20 12:07:02.003,1162361459,206003,1,-0.29517,-0.05981,1.1189,-7.473,-9.198,-0.756
2026-05-20 12:07:02.003,1162361459,206003,2,-0.0647,0.74805,0.76733,-0.779,-9.924,8.718
2026-05-20 12:07:05.873,1162365329,208873,1,1.0249,-0.0979,0.66675,-4.595,-34.725,-15.305
2026-05-20 12:07:05.873,1162365329,208873,2,0.93433,0.31274,0.22925,-2.603,0.198,-1.053
2026-05-20 12:07:08.994,1162368450,211993,1,0.74072,-0.15674,0.80884,1.939,-0.832,-4.099
2026-05-20 12:07:08.994,1162368450,211993,2,0.92432,0.32983,0.23389,-2.794,-0.832,1.191
2026-05-20 12:07:09.193,1162368649,212193,1,0.73633,-0.13623,0.81055,2.45,2.351,-2.328
2026-05-20 12:07:09.193,1162368649,212193,2,0.91846,0.32813,0.23804,3.351,-0.58,-3.13
2026-05-20 12:07:09.393,1162368849,212393,1,0.72656,-0.12939,0.84033,4.176,0.382,-1.344
2026-05-20 12:07:09.393,1162368849,212393,2,0.92749,0.32837,0.24731,-3.183,-2.382,0.74
2026-05-20 12:07:09.593,1162369049,212593,1,0.73218,-0.11792,0.82422,1.802,-5.412,1.137
2026-05-20 12:07:09.593,1162369049,212593,2,0.94604,0.31567,0.20532,-4.481,-2.336,10.275
2026-05-20 12:07:09.793,1162369249,212793,1,0.75928,-0.12354,0.79468,3.099,-7.244,5.321
2026-05-20 12:07:09.793,1162369249,212793,2,0.94922,0.28516,0.21289,1.076,-2.626,7.237
2026-05-20 12:07:09.993,1162369449,212993,1,0.76611,-0.14429,0.80078,-3.74,-9.573,8.565
2026-05-20 12:07:09.993,1162369449,212993,2,0.92676,0.2666,0.19116,1.45,-5.366,10.603
2026-05-20 12:07:10.193,1162369649,213193,1,0.81274,-0.18018,0.72241,5.962,-28.481,11.611
2026-05-20 12:07:10.193,1162369649,213193,2,1.01514,0.21973,0.15137,-1.748,-16.176,4.26
2026-05-20 12:07:10.193,1162369649,213193,2,1.01514,0.21973,0.15137,-1.748,-16.176,4.26
2026-05-20 12:07:15.290,1162374746,218290,1,0.66064,-0.23413,0.90332,27.603,4.221,-19.092
2026-05-20 12:07:15.290,1162374746,218290,2,0.75195,0.58569,0.32666,9.748,-6.0,-12.313
2026-05-20 12:07:15.290,1162374746,218290,2,0.75195,0.58569,0.32666,9.748,-6.0,-12.313
2026-05-20 12:07:20.395,1162379851,223395,1,0.78369,-0.05957,0.82202,-13.847,11.0,-5.26
2026-05-20 12:07:20.395,1162379851,223395,2,0.95361,0.35229,0.15283,-1.443,-0.206,-3.282
2026-05-20 12:07:20.651,1162380107,223651,1,0.72681,-0.06982,0.85034,2.634,9.504,-5.641
2026-05-20 12:07:20.651,1162380107,223651,2,0.92261,0.37769,0.13794,-2.863,-1.137,-4.626
2026-05-20 12:07:20.851,1162380307,223851,1,0.69067,-0.01611,0.87866,-2.885,5.702,-8.511
2026-05-20 12:07:20.851,1162380307,223851,2,0.93091,0.41187,0.13306,-5.038,-0.771,-1.328
2026-05-20 12:07:21.051,1162380507,224051,1,0.69775,-0.02637,0.84229,-1.542,1.863,-6.092
2026-05-20 12:07:21.051,1162380507,224051,2,0.92749,0.39185,0.1123,-6.855,-0.427,0.695
2026-05-20 12:07:21.251,1162380707,224251,1,0.6687,0.03027,0.87158,-2.527,4.74,-2.435
2026-05-20 12:07:21.251,1162380707,224251,2,0.90112,0.4082,0.14209,-4.595,1.466,-2.42
2026-05-20 12:07:21.618,1162381074,224618,1,0.66968,-0.02686,0.89282,-9.29,-11.71,3.695
2026-05-20 12:07:21.618,1162381074,224618,2,0.91431,0.36255,0.1665,-5.542,4.489,6.817
2026-05-20 12:07:21.818,1162381274,224818,1,0.74756,-0.1123,0.83252,-61.672,2.908,-17.473
2026-05-20 12:07:21.818,1162381274,224818,2,0.94849,0.36206,0.1687,-37.901,17.817,7.305
2026-05-20 12:07:21.018,1162380474,225018,1,0.76758,-0.27954,0.71631,-12.985,-3.573,-7.389
2026-05-20 12:07:21.018,1162380474,225018,2,0.91992,0.29053,0.2771,-3.458,0.557,-6.573
2026-05-20 12:07:22.218,1162381674,225218,1,0.76807,-0.19043,0.77393,7.29,4.359,7.565
2026-05-20 12:07:22.218,1162381674,225218,2,0.93945,0.31934,0.2605,3.313,3.588,-8.595
2026-05-20 12:07:22.418,1162381874,225418,1,0.71948,-0.25903,0.82031,5.863,1.573,0.076
2026-05-20 12:07:22.418,1162381874,225418,2,0.8999,0.33813,0.26489,3.985,0.824,-0.298
2026-05-20 12:07:22.618,1162382074,225618,1,0.71729,-0.25122,0.80859,1.198,-0.618,-2.832
2026-05-20 12:07:22.618,1162382074,225618,2,0.89429,0.34497,0.26367,-0.969,-2.099,-1.786
2026-05-20 12:07:22.818,1162382274,225818,1,0.72876,-0.23071,0.79199,2.237,1.702,-2.626
2026-05-20 12:07:22.818,1162382274,225818,2,0.91016,0.34766,0.26489,0.42,-1.191,-0.053
2026-05-20 12:07:25.207,1162384663,228207,1,0.12671,0.05249,1.12402,9.809,54.611,-2.298
2026-05-20 12:07:25.207,1162384663,228207,2,0.47144,0.73853,0.40967,-9.076,13.855,-32.84
2026-05-20 12:07:25.407,1162384863,228407,1,-0.08765,0.05566,1.26196,0.099,1.832,3.931
2026-05-20 12:07:25.407,1162384863,228407,2,0.33594,0.77563,0.48779,-7.176,0.008,10.603
2026-05-20 12:07:25.607,1162385063,228607,1,0.04468,-0.03027,1.07715,-5.145,-36.374,7.13
2026-05-20 12:07:25.607,1162385063,228607,2,0.41943,0.71802,0.48022,4.45,-7.939,14.786
2026-05-20 12:07:25.807,1162385263,228807,1,0.17017,0.0293,1.04565,-10.168,-29.145,9.168
2026-05-20 12:07:25.807,1162385263,228807,2,0.49756,0.71631,0.45215,4.305,-2.237,7.931
2026-05-20 12:07:25.007,1162384463,229007,1,0.28955,-0.00146,1.13354,8.702,-44.855,13.611
2026-05-20 12:07:25.007,1162384463,229007,2,0.50513,0.7085,0.34058,17.802,-0.435,8.069
2026-05-20 12:07:26.207,1162385663,229207,1,0.38745,-0.04102,1.16431,-7.45,-19.893,7.718
2026-05-20 12:07:26.207,1162385663,229207,2,0.52686,0.75049,0.40405,1.237,-8.168,16.527
2026-05-20 12:07:26.407,1162385863,229407,1,0.47266,0.00293,1.04541,-2.992,-35.588,1.527
2026-05-20 12:07:26.407,1162385863,229407,2,0.66992,0.62231,0.34424,-8.74,-22.679,36.557
2026-05-20 12:07:26.607,1162386063,229607,1,0.59717,-0.09375,0.91284,-22.695,-47.565,-1.252
2026-05-20 12:07:26.607,1162386063,229607,2,0.73169,0.53296,0.3479,-9.725,-28.87,35.466
2026-05-20 12:07:26.807,1162386263,229807,1,0.66797,-0.14209,0.84668,-9.511,-38.115,-1.649
2026-05-20 12:07:26.807,1162386263,229807,2,0.79492,0.48828,0.32593,-9.115,-17.466,25.359
2026-05-20 12:07:26.007,1162385463,230007,1,0.80103,-0.10522,0.71924,-6.779,-46.084,-4.053
2026-05-20 12:07:26.007,1162385463,230007,1,0.80103,-0.10522,0.71924,-6.779,-46.084,-4.053
2026-05-20 12:07:26.007,1162385463,230007,2,0.58936,0.64185,0.4314,-5.198,-3.855,1.282
2026-05-20 12:07:32.118,1162391574,235118,1,0.21021,-0.02979,1.1023,4.664,-19.595,-0.511
2026-05-20 12:07:32.118,1162391574,235118,2,0.58008,0.66626,0.47461,-3.061,6.962,14.695
2026-05-20 12:07:32.506,1162391962,235506,1,0.56958,-0.09644,1.16431,-7.267,-20.779,-1.679
2026-05-20 12:07:32.506,1162391962,235506,2,0.61792,0.61938,0.47119,5.015,-9.397,15.145
2026-05-20 12:07:32.706,1162392162,235706,1,0.53125,-0.03442,1.05127,-6.221,-35.847,-1.496
2026-05-20 12:07:32.706,1162392162,235706,2,0.71631,0.56445,0.39307,5.015,-30.099,34.481
2026-05-20 12:07:32.906,1162392362,235906,1,0.65283,-0.06299,0.8833,-3.977,-41.359,-1.931
2026-05-20 12:07:32.906,1162392362,235906,2,0.98926,0.1748,0.2002,-35.015,-2.122,-11.29
2026-05-20 12:07:37.998,1162397454,240998,1,0.94775,-0.14844,0.60034,-39.069,36.748,-21.58
2026-05-20 12:07:37.998,1162397454,240998,2,0.95361,0.4187,0.22461,22.153,-2.618,18.824
2026-05-20 12:07:43.507,1162402963,246507,1,0.7417,-0.20142,0.98267,5.626,-30.664,-1.565
2026-05-20 12:07:43.507,1162402963,246507,2,1.03906,0.38892,0.27026,17.901,-9.42,21.282
2026-05-20 12:07:43.707,1162403163,246707,1,0.87671,-0.11182,0.90039,37.656,-8.191,1.817
2026-05-20 12:07:43.707,1162403163,246707,2,1.01465,0.3894,0.22949,6.687,-11.527,2.099
2026-05-20 12:07:43.907,1162403363,246907,1,0.75122,-0.03149,0.74878,-2.092,-2.382,-8.687
2026-05-20 12:07:43.907,1162403363,246907,2,0.90601,0.33447,0.17798,-8.969,4.573,-7.069
2026-05-20 12:07:44.107,1162403563,247107,1,0.78955,-0.03857,0.77124,2.618,13.0,-11.847
2026-05-20 12:07:44.107,1162403563,247107,2,0.92139,0.38452,0.14771,1.534,-0.137,-12.58
2026-05-20 12:07:44.307,1162403763,247307,1,0.73657,-0.00073,0.80884,-1.626,15.664,-10.374
2026-05-20 12:07:44.307,1162403763,247307,2,0.88599,0.39209,0.20996,-7.557,-1.389,-8.168
2026-05-20 12:07:44.507,1162403963,247507,1,0.69067,0.03027,0.88184,-13.435,9.725,-8.588
2026-05-20 12:07:44.507,1162403963,247507,2,0.88013,0.41431,0.21533,-14.695,1.405,-0.626
2026-05-20 12:07:44.707,1162404163,247707,1,0.70142,0.05493,0.89429,-5.771,3.206,-1.954
2026-05-20 12:07:44.707,1162404163,247707,2,0.93091,0.31567,0.24927,0.84,-2.099,-2.878
2026-05-20 12:07:47.728,1162407184,250728,1,0.54321,-0.08569,0.96143,-0.809,7.542,-7.122
2026-05-20 12:07:47.728,1162407184,250728,2,0.95215,0.34839,0.12769,2.885,10.832,-22.053
2026-05-20 12:07:50.764,1162410220,253764,1,0.8645,-0.04028,0.71533,-11.832,7.519,5.366
2026-05-20 12:07:50.764,1162410220,253764,2,0.92578,0.40991,0.1936,-0.84,13.702,-20.511
2026-05-20 12:07:50.964,1162410420,253964,1,0.78955,-0.07642,0.76782,-51.389,7.214,9.366
2026-05-20 12:07:50.964,1162410420,253964,2,0.87402,0.44336,0.16943,-3.046,2.748,-2.611
2026-05-20 12:07:51.164,1162410620,254164,1,0.85132,-0.16724,0.70435,-14.916,-13.649,3.221
2026-05-20 12:07:51.164,1162410620,254164,2,0.88208,0.4436,0.18091,-2.229,-2.137,0.137
2026-05-20 12:07:51.437,1162410893,254437,1,0.83545,-0.17847,0.69141,4.931,6.229,0.122
2026-05-20 12:07:51.437,1162410893,254437,2,0.88257,0.47021,0.16528,1.321,3.221,-3.641
2026-05-20 12:07:51.637,1162411093,254637,1,0.80981,-0.16431,0.74243,2.557,10.229,-1.863
2026-05-20 12:07:51.637,1162411093,254637,2,0.85938,0.48706,0.17432,0.42,-2.374,-0.115
2026-05-20 12:07:51.837,1162411293,254837,1,0.79443,-0.09766,0.74658,0.794,11.405,-5.313
2026-05-20 12:07:51.837,1162411293,254837,2,0.8728,0.47632,0.15479,-5.313,4.557,-1.87
2026-05-20 12:07:52.045,1162411501,255045,1,0.81909,-0.06445,0.71533,12.977,0.664,-2.786
2026-05-20 12:07:52.045,1162411501,255045,2,0.84204,0.4646,0.14478,4.809,3.137,6.718
2026-05-20 12:07:52.245,1162411701,255245,1,0.81714,-0.14478,0.79907,-11.443,5.641,-4.519
2026-05-20 12:07:52.245,1162411701,255245,2,0.87524,0.46484,0.19556,0.435,2.298,-0.443
2026-05-20 12:07:52.445,1162411901,255445,1,0.82642,-0.09424,0.74805,0.344,6.145,-5.031
2026-05-20 12:07:52.445,1162411901,255445,2,0.86475,0.47534,0.21509,2.489,4.58,-2.076
2026-05-20 12:07:52.645,1162412101,255645,1,0.77026,-0.07397,0.78613,1.786,10.389,-3.832
2026-05-20 12:07:52.645,1162412101,255645,2,0.84814,0.49121,0.22144,0.634,4.107,-2.954
2026-05-20 12:07:52.845,1162412301,255845,1,0.72925,-0.01367,0.79419,7.534,26.962,-12.557
2026-05-20 12:07:52.845,1162412301,255845,2,0.91357,0.4873,0.21289,-2.099,3.87,-2.046
2026-05-20 12:07:53.045,1162412501,256045,1,0.70923,0.00757,0.98877,9.244,11.954,-4.718
2026-05-20 12:07:53.045,1162412501,256045,2,1.01245,0.65405,0.30322,-26.931,-8.687,-1.733
2026-05-20 12:07:53.245,1162412701,256245,1,0.59546,0.01001,1.14185,11.351,50.527,-8.924
2026-05-20 12:07:53.245,1162412701,256245,2,0.82471,0.5769,0.26904,1.748,6.893,-36.847
2026-05-20 12:07:53.445,1162412901,256445,1,0.39429,0.04907,1.09204,-8.137,39.275,-5.069
2026-05-20 12:07:53.445,1162412901,256445,2,0.66943,0.61548,0.29761,-9.405,15.229,-18.588
2026-05-20 12:07:53.649,1162413105,256649,1,0.30542,-0.01685,0.88574,0.015,41.145,-7.115
2026-05-20 12:07:53.649,1162413105,256649,2,0.64282,0.60254,0.36035,-14.405,21.053,-32.206
2026-05-20 12:07:53.849,1162413305,256849,1,0.12915,-0.05103,0.9541,0.71,57.931,3.069
2026-05-20 12:07:53.849,1162413305,256849,2,0.39624,0.48413,0.30542,-16.626,30.954,-28.015
2026-05-20 12:07:54.049,1162413505,257049,1,-0.00269,-0.00659,1.06836,-17.817,-0.687,7.939
2026-05-20 12:07:54.049,1162413505,257049,2,0.54663,0.66943,0.45972,5.687,2.962,22.817
2026-05-20 12:07:54.334,1162413790,257334,1,0.10352,-0.03174,1.07422,10.374,-19.962,12.115
2026-05-20 12:07:54.334,1162413790,257334,2,0.55005,0.69214,0.39087,9.382,-7.809,13.176
2026-05-20 12:07:54.534,1162413990,257534,1,0.19604,-0.02856,1.10352,-11.55,-11.779,2.061
2026-05-20 12:07:54.534,1162413990,257534,2,0.58716,0.65503,0.45117,-2.802,-4.191,11.473
2026-05-20 12:07:54.734,1162414190,257734,1,0.21655,0.01221,1.05444,4.389,-11.389,6.588
2026-05-20 12:07:54.734,1162414190,257734,2,0.57861,0.68701,0.38989,0.298,1.679,4.718
2026-05-20 12:07:57.367,1162416823,260366,1,0.78638,-0.1377,0.6709,-9.557,62.649,0.107
2026-05-20 12:07:57.367,1162416823,260366,2,0.96216,0.40747,0.32031,6.626,31.962,-41.374
2026-05-20 12:07:57.566,1162417022,260566,1,0.60449,-0.11108,0.94751,11.756,80.031,-3.176
2026-05-20 12:07:57.566,1162417022,260566,2,0.86401,0.46387,0.32129,5.13,31.626,-18.901
2026-05-20 12:07:57.766,1162417222,260766,1,0.38306,-0.04688,1.06348,6.046,53.321,11.0
2026-05-20 12:07:57.766,1162417222,260766,2,0.72778,0.59741,0.38135,13.458,25.718,-17.092
2026-05-20 12:07:57.974,1162417430,260974,1,0.28833,-0.03784,1.03955,9.527,39.939,6.885
2026-05-20 12:07:57.974,1162417430,260974,2,0.62427,0.64966,0.43433,8.389,22.794,-12.771
2026-05-20 12:07:58.174,1162417630,261174,1,0.1377,-0.06543,1.15137,-4.099,28.809,0.649
2026-05-20 12:07:58.174,1162417630,261174,2,0.52856,0.66455,0.46802,-2.389,9.588,-11.191
2026-05-20 12:07:58.374,1162417830,261374,1,0.104,-0.05273,1.10327,0.901,15.076,-5.458
2026-05-20 12:07:58.374,1162417830,261374,2,0.52466,0.698,0.44604,-6.046,1.573,-12.145
2026-05-20 12:08:01.508,1162420964,264508,1,0.05078,0.02588,1.19556,-4.015,-49.534,3.412
2026-05-20 12:08:01.508,1162420964,264508,2,0.68848,0.68579,0.36255,4.298,-35.282,47.45
2026-05-20 12:08:01.708,1162421164,264708,1,0.3125,0.00635,1.11694,-7.771,-69.71,3.466
2026-05-20 12:08:01.708,1162421164,264708,2,0.98096,0.59326,0.31958,-2.664,-32.053,48.359
2026-05-20 12:08:01.908,1162421364,264908,1,0.63428,0.03247,1.01636,-10.809,-33.13,4.076
2026-05-20 12:08:01.908,1162421364,264908,2,1.01001,0.4917,0.26294,-4.42,2.038,15.366
2026-05-20 12:08:02.108,1162421564,265108,1,0.56689,-0.1062,0.93579,7.084,-10.618,14.573
2026-05-20 12:08:02.108,1162421564,265108,2,0.93286,0.4563,0.18262,6.809,1.511,2.542
2026-05-20 12:08:02.308,1162421764,265308,1,0.6062,-0.08472,0.9458,0.42,0.802,3.87
2026-05-20 12:08:02.308,1162421764,265308,2,0.87085,0.41089,0.1687,-3.656,-1.427,1.107
2026-05-20 12:08:02.508,1162421964,265508,1,0.59814,-0.05029,0.95874,1.588,1.954,-7.794
2026-05-20 12:08:02.508,1162421964,265508,2,0.8999,0.41821,0.18628,5.412,-2.382,-3.885
2026-05-20 12:08:02.708,1162422164,265708,1,0.57935,-0.04517,0.94482,5.863,-3.557,-1.389
2026-05-20 12:08:02.708,1162422164,265708,2,0.90649,0.44238,0.17651,5.435,-1.42,-2.183
2026-05-20 12:08:02.908,1162422364,265908,1,0.60352,0.01807,0.92896,4.687,4.45,1.626
2026-05-20 12:08:02.908,1162422364,265908,2,0.68506,0.54565,0.50464,14.534,-8.931,8.954
2026-05-20 12:08:05.649,1162425105,268649,1,0.49365,-0.06812,0.91772,-4.855,-44.023,10.641
2026-05-20 12:08:05.649,1162425105,268649,2,0.68457,0.60522,0.41113,-4.443,8.061,-5.511
2026-05-20 12:08:05.849,1162425305,268849,1,0.58423,-0.15601,1.00293,-9.595,-21.786,19.076
2026-05-20 12:08:05.849,1162425305,268849,2,0.59131,0.63818,0.42456,15.649,1.603,23.824
2026-05-20 12:08:06.049,1162425505,269049,1,0.61084,-0.146,0.99731,8.824,-39.733,15.275
2026-05-20 12:08:06.049,1162425505,269049,2,0.75928,0.54468,0.33643,22.008,-16.794,46.206
2026-05-20 12:08:06.249,1162425705,269249,1,0.73022,-0.16992,0.79785,0.046,-34.847,12.328
2026-05-20 12:08:06.249,1162425705,269249,2,0.8811,0.46167,0.23486,-18.42,-26.13,40.771
2026-05-20 12:08:06.449,1162425905,269449,1,0.73413,-0.18115,0.75439,13.901,-52.473,-12.626
2026-05-20 12:08:06.449,1162425905,269449,2,0.29419,0.74487,0.5022,3.962,7.603,-20.534
2026-05-20 12:08:08.801,1162428257,271800,1,-0.43359,-0.02661,1.16748,-2.672,-1.779,-6.374
2026-05-20 12:08:08.801,1162428257,271800,2,0.18896,0.81714,0.55078,-2.901,-9.351,0.954
2026-05-20 12:08:08.000,1162427456,272000,1,-0.24219,-0.01709,1.00757,15.321,-21.221,-10.427
2026-05-20 12:08:08.000,1162427456,272000,2,0.23096,0.73804,0.49243,3.023,-15.489,7.809
2026-05-20 12:08:09.200,1162428656,272200,1,-0.15527,0.06787,1.02588,5.618,-8.0,-8.855
2026-05-20 12:08:09.200,1162428656,272200,2,0.2981,0.78467,0.45459,-5.748,-8.29,3.641
2026-05-20 12:08:09.400,1162428856,272400,1,-0.14185,0.06421,1.07715,0.122,-1.802,-6.718
2026-05-20 12:08:09.400,1162428856,272400,2,0.36597,0.77612,0.48096,-7.763,-5.847,3.992
2026-05-20 12:08:09.632,1162429088,272631,1,-0.10962,0.03784,1.07349,3.992,-3.092,-6.756
2026-05-20 12:08:09.632,1162429088,272631,2,0.42017,0.7417,0.4939,-2.427,-6.885,1.58
2026-05-20 12:08:09.831,1162429287,272831,1,-0.07422,0.05591,1.06592,1.069,-2.947,-4.099
2026-05-20 12:08:09.831,1162429287,272831,2,0.43408,0.72412,0.48999,-4.466,-3.29,-0.221
2026-05-20 12:08:10.031,1162429487,273031,1,-0.05322,0.04834,0.95776,4.267,12.595,0.183
2026-05-20 12:08:10.031,1162429487,273031,2,0.41113,0.72144,0.42212,-7.786,5.718,-17.496
2026-05-20 12:08:10.231,1162429687,273231,1,-0.14771,0.02686,0.82153,-1.198,-2.122,0.725
2026-05-20 12:08:10.231,1162429687,273231,2,1.01294,0.26758,0.02612,-8.458,1.405,11.336
2026-05-20 12:08:13.320,1162432776,276320,1,0.86255,-0.146,0.66113,-12.267,-7.626,-6.992
2026-05-20 12:08:13.320,1162432776,276320,2,0.96899,0.23022,0.04517,5.122,2.809,-11.55
2026-05-20 12:08:13.520,1162432976,276520,1,0.88428,-0.12183,0.62402,-8.748,-5.573,-5.206
2026-05-20 12:08:13.520,1162432976,276520,2,0.96704,0.31812,0.08789,-3.221,7.023,-17.366
2026-05-20 12:08:13.720,1162433176,276720,1,0.90991,-0.1272,0.57495,-3.504,-9.84,-2.321
2026-05-20 12:08:13.720,1162433176,276720,2,0.92407,0.34814,0.14136,-8.527,6.74,-14.099
2026-05-20 12:08:13.920,1162433376,276920,1,0.92627,-0.13062,0.6062,7.351,7.855,-4.511
2026-05-20 12:08:13.920,1162433376,276920,2,0.96045,0.27832,0.21118,4.489,-1.092,-2.26
2026-05-20 12:08:16.917,1162436373,279917,1,0.92236,-0.09106,0.6189,11.519,-4.832,5.817
2026-05-20 12:08:16.917,1162436373,279917,2,0.98022,0.27783,0.19775,-0.427,-6.298,3.359
2026-05-20 12:08:17.117,1162436573,280117,1,0.91895,-0.07153,0.5896,0.527,1.939,-0.374
2026-05-20 12:08:17.117,1162436573,280117,2,0.95386,0.26123,0.20752,-2.924,-0.557,4.756
2026-05-20 12:08:17.317,1162436773,280317,1,0.91846,-0.08838,0.57813,0.641,3.328,1.084
2026-05-20 12:08:17.317,1162436773,280317,2,0.95264,0.24805,0.18726,3.687,2.305,-2.908
2026-05-20 12:08:17.517,1162436973,280517,1,0.88501,-0.10132,0.62329,1.603,3.618,3.26
2026-05-20 12:08:17.517,1162436973,280517,2,0.96167,0.27124,0.18921,3.229,0.947,-1.473
2026-05-20 12:08:17.717,1162437173,280717,1,0.8938,-0.12646,0.60718,1.42,-2.206,8.206
2026-05-20 12:08:17.717,1162437173,280717,2,0.95264,0.2832,0.18628,4.45,-3.573,-4.603
2026-05-20 12:08:17.917,1162437373,280917,1,0.90918,-0.10449,0.54443,26.282,4.313,7.099
2026-05-20 12:08:17.917,1162437373,280917,2,0.95947,0.31836,0.15015,13.489,-3.71,-15.427
2026-05-20 12:08:18.117,1162437573,281117,1,0.92139,-0.07349,0.63135,34.13,11.229,-1.038
2026-05-20 12:08:18.117,1162437573,281117,2,0.94727,0.38135,0.12524,1.221,0.458,-13.649
2026-05-20 12:08:20.959,1162440415,283959,1,0.7937,-0.01343,0.7605,0.305,12.344,-2.443
2026-05-20 12:08:20.959,1162440415,283959,2,0.9231,0.39893,0.1123,-4.649,2.344,-11.275
2026-05-20 12:08:21.159,1162440615,284159,1,0.73828,-0.02197,0.79614,-8.519,9.786,-0.557
2026-05-20 12:08:21.159,1162440615,284159,2,0.89746,0.42188,0.14478,-6.427,6.168,-4.214
2026-05-20 12:08:21.359,1162440815,284359,1,0.70996,-0.04004,0.85425,0.282,13.939,1.618
2026-05-20 12:08:21.359,1162440815,284359,2,0.89648,0.4043,0.15063,-6.344,1.496,4.168
2026-05-20 12:08:21.359,1162440815,284359,2,0.89648,0.4043,0.15063,-6.344,1.496,4.168
2026-05-20 12:08:29.637,1162449093,292637,1,0.67896,-0.02734,0.88501,0.015,1.344,-0.885
2026-05-20 12:08:29.637,1162449093,292637,2,0.9104,0.40918,0.1499,0.481,-0.351,-0.221
2026-05-20 12:08:29.837,1162449293,292837,1,0.66138,-0.02686,0.88696,-0.885,1.893,-0.664
2026-05-20 12:08:29.837,1162449293,292837,2,0.9165,0.40747,0.14282,1.847,0.221,0.008
2026-05-20 12:08:30.037,1162449493,293037,1,0.66162,-0.03491,0.88208,-0.527,1.756,-0.771
2026-05-20 12:08:30.037,1162449493,293037,2,0.91992,0.4187,0.14014,3.542,0.802,-1.618
2026-05-20 12:08:30.237,1162449693,293237,1,0.67285,-0.01685,0.89063,0.221,2.13,-0.481
2026-05-20 12:08:30.237,1162449693,293237,2,0.93359,0.41992,0.12598,0.74,-0.137,0.725
2026-05-20 12:08:30.437,1162449893,293437,1,0.66504,-0.02905,0.88477,-0.427,1.344,-0.511
2026-05-20 12:08:30.437,1162449893,293437,2,0.92334,0.43237,0.14185,-0.344,0.595,-1.099
2026-05-20 12:08:30.637,1162450093,293637,1,0.66748,-0.02759,0.90381,-0.786,1.634,0.069
2026-05-20 12:08:30.637,1162450093,293637,2,0.93066,0.42749,0.13159,-1.023,0.527,0.015
2026-05-20 12:08:30.837,1162450293,293837,1,0.66528,-0.03906,0.90308,-0.618,1.214,-0.718
2026-05-20 12:08:30.837,1162450293,293837,2,0.90649,0.41675,0.12524,-2.206,1.0,0.038
2026-05-20 12:08:36.278,1162455734,299277,1,0.70605,-0.0061,0.86353,11.229,-9.603,2.847
2026-05-20 12:08:36.278,1162455734,299277,2,0.88525,0.47754,0.1123,-12.244,3.618,-5.107
2026-05-20 12:08:36.477,1162455933,299477,1,0.75488,0.00928,0.78369,0.863,-18.969,11.855
2026-05-20 12:08:36.477,1162455933,299477,2,0.88281,0.52954,0.11279,-15.374,8.031,-7.489
2026-05-20 12:08:36.677,1162456133,299677,1,0.76953,-0.08862,0.72559,-15.053,-0.947,-3.397
2026-05-20 12:08:30.837,1162450293,293837,2,0.90649,0.41675,0.12524,-2.206,1.0,0.038
2026-05-20 12:08:36.677,1162456133,299677,2,0.87402,0.47534,0.20605,-7.71,-0.84,-4.969
2026-05-20 12:08:41.773,1162461229,304773,1,0.94995,-0.13281,0.89893,-1.336,2.26,-18.931
2026-05-20 12:08:41.773,1162461229,304773,2,1.27466,0.42065,0.25659,21.031,-12.992,-13.176
2026-05-20 12:08:41.002,1162460458,305002,1,0.81982,0.04175,0.75562,-4.763,7.763,-9.924
2026-05-20 12:08:41.002,1162460458,305002,2,0.88232,0.46802,0.04102,-2.588,-3.313,-6.603
2026-05-20 12:08:42.202,1162461658,305202,1,0.67896,0.05884,0.86792,-4.809,38.748,-15.595
2026-05-20 12:08:42.202,1162461658,305202,2,0.86475,0.43091,0.15698,0.527,5.763,-28.626
2026-05-20 12:08:42.402,1162461858,305402,1,0.65527,0.07202,0.91748,-7.046,22.832,-20.328
2026-05-20 12:08:42.402,1162461858,305402,2,0.7666,0.55933,0.12061,-7.061,1.252,-24.878
2026-05-20 12:08:42.602,1162462058,305602,1,0.55713,0.15039,0.96216,-9.473,13.656,-16.382
2026-05-20 12:08:42.602,1162462058,305602,2,0.77173,0.60791,0.1189,-3.542,1.13,0.779
2026-05-20 12:08:42.802,1162462258,305802,1,0.51953,0.17065,0.94727,-4.153,-4.573,-6.115
2026-05-20 12:08:42.802,1162462258,305802,2,0.81128,0.59937,0.14966,-2.954,0.87,2.924
2026-05-20 12:08:42.002,1162461458,306002,1,0.54858,0.13062,0.97705,-0.031,0.489,-1.702
2026-05-20 12:08:42.002,1162461458,306002,2,0.79468,0.58862,0.12256,2.603,1.038,2.763
2026-05-20 12:08:43.202,1162462658,306202,1,0.56104,0.11426,0.95166,9.282,-1.229,-0.206
2026-05-20 12:08:43.202,1162462658,306202,2,0.80811,0.56934,0.11108,4.305,-0.626,6.092
2026-05-20 12:08:43.402,1162462858,306402,1,0.57495,0.19214,0.90918,12.046,-5.061,4.267
2026-05-20 12:08:43.402,1162462858,306402,2,0.87622,0.40576,0.23389,1.198,-2.863,1.443
2026-05-20 12:08:46.454,1162465910,309454,1,0.6167,0.00439,0.97974,4.748,-5.542,7.824
2026-05-20 12:08:46.454,1162465910,309454,2,0.96484,0.46826,0.15869,5.489,-7.458,11.87
2026-05-20 12:08:46.654,1162466110,309654,1,0.6748,0.09351,0.90161,-19.748,5.87,-19.038
2026-05-20 12:08:46.654,1162466110,309654,2,0.85864,0.49243,0.00903,-34.061,-4.664,-19.397
2026-05-20 12:08:46.854,1162466310,309854,1,0.61084,0.00952,0.89355,-78.779,-12.137,-43.756
2026-05-20 12:08:46.854,1162466310,309854,2,0.97729,0.20483,0.36304,-89.015,-2.74,19.198
2026-05-20 12:08:47.054,1162466510,310054,1,0.62158,-0.30957,0.7478,-34.481,1.626,-13.221
2026-05-20 12:08:47.054,1162466510,310054,2,0.76953,0.10132,0.50879,-20.168,6.366,-9.427
2026-05-20 12:08:49.863,1162469319,312863,1,0.81494,-0.07935,0.73608,-55.244,14.634,-8.74
2026-05-20 12:08:49.863,1162469319,312863,2,0.93335,0.24707,0.22437,-56.092,13.58,-10.435
2026-05-20 12:08:50.063,1162469519,313063,1,0.80103,-0.28027,0.74268,-64.519,16.084,-27.214
2026-05-20 12:08:50.063,1162469519,313063,2,0.93994,0.14209,0.29907,-59.802,7.962,-15.298
2026-05-20 12:08:50.263,1162469719,313263,1,0.70288,-0.29639,0.85083,-34.496,-1.168,-21.695
2026-05-20 12:08:50.263,1162469719,313263,2,0.94263,0.02759,0.41919,-18.687,8.092,-9.481
2026-05-20 12:08:50.463,1162469919,313463,1,0.78003,-0.2168,0.60815,10.74,-7.397,0.069
2026-05-20 12:08:50.463,1162469919,313463,2,0.84497,0.00732,0.38281,-0.443,-3.198,25.168
2026-05-20 12:08:50.463,1162469919,313463,2,0.84497,0.00732,0.38281,-0.443,-3.198,25.168
2026-05-20 12:08:55.558,1162475014,318558,1,0.89258,-0.09448,0.70313,-5.153,-3.519,0.634
2026-05-20 12:08:55.558,1162475014,318558,2,0.98462,0.21387,0.10205,-1.634,4.298,8.366
2026-05-20 12:08:55.758,1162475214,318758,1,0.9397,-0.09473,0.59546,1.641,3.84,-0.489
2026-05-20 12:08:55.758,1162475214,318758,2,1.01025,0.19263,0.0564,-3.595,5.641,0.588
2026-05-20 12:08:55.958,1162475414,318958,1,0.87427,-0.12109,0.67041,-9.122,7.618,-10.626
2026-05-20 12:08:55.958,1162475414,318958,2,1.00806,0.18066,0.07813,-7.931,-3.122,-4.939
2026-05-20 12:08:56.158,1162475614,319158,1,0.85205,-0.07129,0.69727,-4.359,-0.74,-6.702
2026-05-20 12:08:56.158,1162475614,319158,2,1.00854,0.20483,0.09448,-4.229,-6.489,-2.863
2026-05-20 12:08:56.358,1162475814,319358,1,0.87427,-0.03662,0.66943,4.542,-0.412,1.954
2026-05-20 12:08:56.358,1162475814,319358,2,0.97461,0.20581,0.08398,-3.031,0.137,-0.427
2026-05-20 12:08:56.558,1162476014,319558,1,0.86914,-0.09937,0.67676,5.038,7.176,5.282
2026-05-20 12:08:56.558,1162476014,319558,1,0.86914,-0.09937,0.67676,5.038,7.176,5.282
2026-05-20 12:08:56.558,1162476014,319558,2,1.25098,0.31372,0.13257,-27.565,-5.557,16.947
2026-05-20 12:09:04.701,1162484157,327701,1,1.3042,-0.03687,0.625,-31.901,-4.16,3.649
2026-05-20 12:09:04.701,1162484157,327701,2,1.08203,0.03076,-0.00879,6.13,18.313,-12.939
2026-05-20 12:09:04.901,1162484357,327901,1,0.8667,-0.19604,0.41797,-41.809,6.84,22.13
2026-05-20 12:09:04.901,1162484357,327901,2,0.95972,0.1499,0.12305,-0.84,23.611,-13.061
2026-05-20 12:09:05.101,1162484557,328101,1,0.96533,-0.28955,0.49829,20.359,80.557,25.611
2026-05-20 12:09:05.101,1162484557,328101,2,1.08203,0.40796,0.03784,29.023,37.962,-28.206
2026-05-20 12:09:05.301,1162484757,328301,1,0.6394,-0.31689,0.89941,28.29,52.794,27.832
2026-05-20 12:09:05.301,1162484757,328301,2,0.75317,-0.18115,0.573,62.298,45.252,5.901
2026-05-20 12:09:05.501,1162484957,328501,1,0.51294,0.26196,1.16284,40.206,76.466,47.565
2026-05-20 12:09:05.501,1162484957,328501,2,0.99097,0.48706,0.28076,37.954,32.634,-26.115
2026-05-20 12:09:05.701,1162485157,328701,1,-0.11401,0.19043,1.1311,-4.458,2.145,2.939
2026-05-20 12:09:05.701,1162485157,328701,2,0.31934,0.57544,-0.53223,-24.534,-18.527,4.13
2026-05-20 12:09:05.901,1162485357,328901,1,0.29712,-0.65625,1.28687,-35.191,44.511,44.275
2026-05-20 12:09:05.901,1162485357,328901,2,0.54688,0.74487,0.45386,-1.107,-10.275,-39.313
2026-05-20 12:09:06.101,1162485557,329101,1,0.06055,-0.23608,1.17334,14.305,-15.939,23.924
2026-05-20 12:09:06.101,1162485557,329101,2,1.00317,0.08081,0.09717,0.252,-0.992,0.046
2026-05-20 12:09:08.786,1162488242,331786,1,0.76245,-0.22925,0.76685,-0.489,-1.412,-1.069
2026-05-20 12:09:08.786,1162488242,331786,2,1.01685,0.06812,0.09009,-0.603,-1.366,1.069
2026-05-20 12:09:08.786,1162488242,331786,2,1.01685,0.06812,0.09009,-0.603,-1.366,1.069
2026-05-20 12:09:13.889,1162493345,336889,1,1.06323,0.03149,0.09033,2.183,14.947,-4.008
2026-05-20 12:09:13.889,1162493345,336889,2,0.89307,-0.31714,-0.47412,-0.168,4.275,-5.168
2026-05-20 12:09:16.736,1162496192,339736,1,0.98218,0.37085,0.24707,4.885,4.313,-10.458
2026-05-20 12:09:16.736,1162496192,339736,2,0.97144,-0.00049,-0.40283,-1.771,5.534,-9.71
2026-05-20 12:09:16.936,1162496392,339936,1,0.97461,0.35156,0.23438,-19.779,0.412,-12.649
2026-05-20 12:09:16.936,1162496392,339936,2,0.9939,0.00879,-0.3772,-11.908,6.672,-8.71
2026-05-20 12:09:17.136,1162496592,340136,1,0.96167,0.34424,0.29175,-1.496,14.672,-14.687
2026-05-20 12:09:17.136,1162496592,340136,2,0.93726,0.06592,-0.38135,3.55,-2.534,-10.023
2026-05-20 12:09:17.336,1162496792,340336,1,0.92041,0.44678,0.34595,-4.26,15.534,-16.924
2026-05-20 12:09:17.336,1162496792,340336,2,0.96924,0.06787,-0.40088,-4.366,2.74,-12.206
2026-05-20 12:09:17.536,1162496992,340536,1,0.86084,0.49438,0.37061,-22.023,10.565,-16.977
2026-05-20 12:09:17.536,1162496992,340536,2,0.92798,0.1853,-0.28467,-16.817,8.687,3.557
2026-05-20 12:09:17.807,1162497263,340807,1,0.88794,0.46533,0.32788,-13.809,-25.42,27.962
2026-05-20 12:09:17.807,1162497263,340807,2,1.0083,0.08252,-0.33179,-1.496,4.191,19.901
2026-05-20 12:09:17.007,1162496463,341007,1,0.97754,0.37354,0.20117,-25.695,-19.611,8.321
2026-05-20 12:09:17.007,1162496463,341007,2,0.9917,0.02759,-0.28394,-20.748,7.878,12.023
2026-05-20 12:09:18.207,1162497663,341207,1,0.92749,0.31055,0.37378,8.008,-5.893,11.634
2026-05-20 12:09:18.207,1162497663,341207,2,0.99561,0.02319,-0.26001,10.237,-5.015,13.382
2026-05-20 12:09:18.407,1162497863,341407,1,0.99487,0.33789,0.20898,-12.603,-5.87,5.847
2026-05-20 12:09:18.407,1162497863,341407,2,0.96509,-0.06079,-0.18237,-8.542,0.176,8.748
2026-05-20 12:09:18.607,1162498063,341607,1,0.99609,0.28003,0.24951,29.038,4.13,12.878
2026-05-20 12:09:18.607,1162498063,341607,2,1.00439,-0.08691,-0.33813,7.443,-11.137,12.542
2026-05-20 12:09:18.807,1162498263,341807,1,0.99707,0.20923,0.24512,-9.779,-2.321,-2.252
2026-05-20 12:09:18.807,1162498263,341807,2,0.99341,-0.11206,-0.31616,-3.496,-3.74,1.595
2026-05-20 12:09:18.007,1162497463,342007,1,0.96143,0.2981,0.25586,80.275,3.321,26.885
2026-05-20 12:09:18.007,1162497463,342007,2,0.98486,-0.10327,-0.46606,10.603,-19.756,35.122
2026-05-20 12:09:19.207,1162498663,342207,1,1.03857,0.23511,0.09204,13.107,-20.87,38.252
2026-05-20 12:09:19.207,1162498663,342207,2,0.8916,-0.27051,-0.4209,9.336,-6.947,44.191
2026-05-20 12:09:22.057,1162501513,345057,1,0.95093,0.03345,0.54248,-8.366,-6.527,-3.519
2026-05-20 12:09:22.057,1162501513,345057,2,1.01025,-0.08521,-0.22998,-0.221,-4.023,8.756
2026-05-20 12:09:22.258,1162501714,345257,1,0.95752,0.02368,0.49658,-0.435,-5.847,-0.924
2026-05-20 12:09:22.258,1162501714,345257,2,1.02783,-0.07324,-0.23584,-1.542,-2.137,3.267
2026-05-20 12:09:22.457,1162501913,345457,1,0.95068,0.02344,0.50366,0.87,-1.611,-1.344
2026-05-20 12:09:22.457,1162501913,345457,2,1.01953,-0.04834,-0.2373,-5.863,-1.985,4.748
2026-05-20 12:09:22.657,1162502113,345657,1,0.9187,0.06592,0.52588,10.244,-13.198,-1.687
2026-05-20 12:09:22.657,1162502113,345657,2,1.00488,-0.09546,-0.23877,-5.481,-8.924,13.496
2026-05-20 12:09:25.564,1162505020,348564,1,0.79126,0.33228,0.70288,7.939,-6.298,0.076
2026-05-20 12:09:25.564,1162505020,348564,2,0.94556,0.3208,-0.23877,6.198,-24.115,4.763
2026-05-20 12:09:25.764,1162505220,348764,1,0.83496,0.33472,0.63501,-12.71,-23.756,7.168
2026-05-20 12:09:25.764,1162505220,348764,2,0.96973,0.32031,-0.37817,-33.168,-35.962,26.611
2026-05-20 12:09:25.964,1162505420,348964,1,0.90381,0.22119,0.573,-29.206,-17.076,1.992
2026-05-20 12:09:25.964,1162505420,348964,2,0.95264,0.22974,-0.32739,-54.863,-13.618,30.969
2026-05-20 12:09:26.164,1162505620,349164,1,0.93042,0.28979,0.45752,20.954,-18.183,-5.267
2026-05-20 12:09:26.164,1162505620,349164,2,0.93359,0.2771,-0.41211,-41.366,2.733,15.863
2026-05-20 12:09:26.364,1162505820,349364,1,0.93701,0.177,0.53223,-6.931,-10.031,-5.252
2026-05-20 12:09:26.364,1162505820,349364,2,0.95313,0.2583,-0.38379,-28.679,-12.305,4.145
2026-05-20 12:09:26.564,1162506020,349564,1,0.92676,0.17896,0.54858,-26.275,-2.695,-0.809
2026-05-20 12:09:26.564,1162506020,349564,2,0.93262,0.26489,-0.38452,-3.153,-3.481,0.802
2026-05-20 12:09:26.764,1162506220,349764,1,0.92749,0.19531,0.53638,-0.443,0.405,-3.198
2026-05-20 12:09:26.764,1162506220,349764,2,0.96265,0.23413,-0.39868,-1.45,-2.534,3.122
2026-05-20 12:09:26.964,1162506420,349964,1,0.93384,0.22363,0.51294,-0.496,2.435,-1.351
2026-05-20 12:09:26.964,1162506420,349964,2,0.93213,0.2417,-0.40283,-0.008,0.557,1.45
2026-05-20 12:09:27.164,1162506620,350164,1,0.92065,0.21045,0.51953,1.069,2.305,-4.45
2026-05-20 12:09:27.164,1162506620,350164,2,0.94336,0.20654,-0.3938,-5.29,5.985,-2.687
2026-05-20 12:09:27.426,1162506882,350426,1,0.9292,0.21875,0.51855,8.122,-0.496,2.74
2026-05-20 12:09:27.426,1162506882,350426,2,0.93604,0.23169,-0.37573,-3.618,7.947,-3.55
2026-05-20 12:09:27.626,1162507082,350626,1,0.90576,0.25928,0.51929,11.427,-0.947,3.458
2026-05-20 12:09:27.626,1162507082,350626,2,0.95703,0.24927,-0.37402,0.504,2.885,-1.824
2026-05-20 12:09:27.826,1162507282,350826,1,0.9209,0.21655,0.52539,-20.763,4.305,-0.924
2026-05-20 12:09:27.826,1162507282,350826,2,0.97583,0.21289,-0.37549,-5.084,3.145,1.534
2026-05-20 12:09:28.205,1162507661,351205,1,0.89307,0.11475,0.58179,-4.748,6.015,-2.275
2026-05-20 12:09:28.205,1162507661,351205,2,0.96533,0.20898,-0.33984,-1.954,0.58,-0.55
2026-05-20 12:09:28.405,1162507861,351405,1,0.9104,0.18311,0.55908,-8.305,6.168,0.389
2026-05-20 12:09:28.405,1162507861,351405,2,0.96802,0.22388,-0.34399,1.443,4.573,0.611
2026-05-20 12:09:28.605,1162508061,351605,1,0.91211,0.1814,0.58154,-4.794,3.115,-2.214
2026-05-20 12:09:28.605,1162508061,351605,2,0.96704,0.22388,-0.30493,0.84,3.084,-0.023
2026-05-20 12:09:28.805,1162508261,351805,1,0.90967,0.14819,0.59058,4.718,4.168,1.473
2026-05-20 12:09:28.805,1162508261,351805,2,0.96313,0.22778,-0.34497,2.168,-0.107,-1.305
2026-05-20 12:09:29.056,1162508512,352056,1,0.90356,0.16846,0.60303,3.214,2.695,0.008
2026-05-20 12:09:29.056,1162508512,352056,2,0.96021,0.22412,-0.3396,2.298,-0.061,-0.794
2026-05-20 12:09:29.256,1162508712,352256,1,0.89258,0.17749,0.59351,4.832,0.107,0.023
2026-05-20 12:09:29.256,1162508712,352256,2,0.95532,0.23877,-0.33716,0.198,0.969,1.122
2026-05-20 12:09:29.614,1162509070,352614,1,0.896,0.19165,0.58521,2.527,-1.328,-0.45
2026-05-20 12:09:29.614,1162509070,352614,2,0.95996,0.23462,-0.3374,-1.901,0.649,2.534
2026-05-20 12:09:29.814,1162509270,352814,1,0.91089,0.18335,0.57935,-0.458,-3.427,0.038
2026-05-20 12:09:29.814,1162509270,352814,2,0.97144,0.22119,-0.33716,-3.588,-0.756,5.0
2026-05-20 12:09:29.014,1162508470,353014,1,0.91943,0.18335,0.55688,-6.069,-1.893,-0.015
2026-05-20 12:09:29.014,1162508470,353014,2,0.97241,0.2002,-0.33057,-1.901,0.427,2.13
2026-05-20 12:09:30.468,1162509924,353468,1,0.93091,0.16211,0.54346,-0.252,0.878,0.214
2026-05-20 12:09:30.468,1162509924,353468,2,0.96875,0.18799,-0.33936,-2.511,1.748,1.702
2026-05-20 12:09:30.668,1162510124,353668,1,0.93115,0.16113,0.55005,-2.099,0.122,-0.305
2026-05-20 12:09:30.668,1162510124,353668,2,0.97632,0.19971,-0.3313,-3.107,0.542,1.618
2026-05-20 12:09:30.868,1162510324,353868,1,0.92896,0.15283,0.56348,3.527,1.214,1.092
2026-05-20 12:09:30.868,1162510324,353868,2,0.96997,0.19531,-0.33643,1.084,-0.534,0.992
2026-05-20 12:09:31.077,1162510533,354077,1,0.92944,0.16113,0.55078,-1.557,2.168,-0.534
2026-05-20 12:09:31.077,1162510533,354077,2,0.98242,0.19629,-0.34302,-0.878,0.42,0.733
2026-05-20 12:09:31.277,1162510733,354277,1,0.93506,0.15063,0.54688,3.565,1.672,0.748
2026-05-20 12:09:31.277,1162510733,354277,2,0.979,0.18042,-0.34033,1.878,0.71,-1.626
2026-05-20 12:09:31.477,1162510933,354477,1,0.93091,0.16235,0.54102,1.214,1.641,0.107
2026-05-20 12:09:31.477,1162510933,354477,2,0.96289,0.22119,-0.36426,1.458,-0.443,-0.176
2026-05-20 12:09:34.606,1162514062,357606,1,0.90137,0.19238,0.57397,-0.359,3.901,-0.183
2026-05-20 12:09:34.606,1162514062,357606,2,0.95923,0.22241,-0.35815,-0.87,0.084,1.038
2026-05-20 12:09:34.806,1162514262,357806,1,0.8999,0.19922,0.57422,-5.053,1.908,-0.611
2026-05-20 12:09:34.806,1162514262,357806,2,0.9646,0.21436,-0.35449,-3.053,1.107,2.092
2026-05-20 12:09:34.006,1162513462,358006,1,0.9082,0.18311,0.58398,-2.725,1.71,-1.206
2026-05-20 12:09:34.006,1162513462,358006,2,0.96338,0.21753,-0.35205,-4.16,1.641,-0.122
2026-05-20 12:09:35.206,1162514662,358206,1,0.90161,0.17993,0.59888,-1.511,0.939,-0.229
2026-05-20 12:09:35.206,1162514662,358206,2,0.96826,0.22827,-0.34009,-2.214,0.878,0.702
2026-05-20 12:09:35.430,1162514886,358430,1,0.89526,0.18311,0.59253,-2.229,2.038,-1.023
2026-05-20 12:09:35.430,1162514886,358430,2,0.96826,0.22583,-0.33545,-1.405,1.489,1.588
2026-05-20 12:09:35.630,1162515086,358630,1,0.89502,0.19507,0.59766,1.053,-0.084,0.542
2026-05-20 12:09:35.630,1162515086,358630,2,0.96118,0.23169,-0.32007,0.16,-0.191,1.931
2026-05-20 12:09:35.830,1162515286,358830,1,0.90796,0.18457,0.57422,6.55,-0.26,-0.015
2026-05-20 12:09:35.830,1162515286,358830,2,0.97314,0.20361,-0.33594,4.0,-0.969,-2.733
2026-05-20 12:09:36.089,1162515545,359089,1,0.91016,0.19238,0.56152,6.611,2.687,0.153
2026-05-20 12:09:36.089,1162515545,359089,2,0.96606,0.21631,-0.34692,4.305,0.008,-2.794
2026-05-20 12:09:36.289,1162515745,359289,1,0.89502,0.21558,0.59497,6.336,4.084,0.71
2026-05-20 12:09:36.289,1162515745,359289,2,0.96021,0.21191,-0.354,4.137,0.649,-0.779
2026-05-20 12:09:36.489,1162515945,359489,1,0.89722,0.21436,0.5791,3.344,3.603,1.641
2026-05-20 12:09:36.489,1162515945,359489,2,0.95923,0.21533,-0.35571,1.397,2.214,0.565
2026-05-20 12:09:36.689,1162516145,359689,1,0.8877,0.22949,0.60107,-3.863,0.718,1.282
2026-05-20 12:09:36.689,1162516145,359689,2,1.01489,0.05273,0.07861,-16.985,9.626,2.885
2026-05-20 12:09:39.467,1162518923,362466,1,0.91577,-0.12061,0.59448,-26.252,9.053,-9.031
2026-05-20 12:09:39.467,1162518923,362466,2,1.01416,0.0249,0.11133,-15.145,9.244,-0.939
2026-05-20 12:09:42.489,1162521945,365489,1,0.78931,-0.02881,0.77734,1.664,-0.336,-1.351
2026-05-20 12:09:42.489,1162521945,365489,2,1.00269,0.22632,0.0249,-4.168,-1.557,1.046
2026-05-20 12:09:42.706,1162522162,365706,1,0.79858,-0.03223,0.75928,-1.672,-0.344,-2.359
2026-05-20 12:09:42.706,1162522162,365706,2,1.0127,0.20532,0.01001,-5.702,-1.634,2.328
2026-05-20 12:09:42.906,1162522362,365906,1,0.80029,-0.01172,0.76733,0.832,1.191,-1.702
2026-05-20 12:09:42.906,1162522362,365906,2,1.00537,0.19849,0.01123,-4.0,-0.092,0.092
2026-05-20 12:09:43.106,1162522562,366106,1,0.7937,-0.00781,0.77856,0.389,2.695,-1.252
2026-05-20 12:09:43.106,1162522562,366106,2,0.99927,0.21606,0.02173,-0.397,-0.023,0.374
2026-05-20 12:09:48.172,1162527628,371172,1,1.00928,0.21191,0.35254,88.053,-58.015,25.458
2026-05-20 12:09:48.172,1162527628,371172,2,0.99951,0.2561,-0.33813,47.916,-0.458,-29.076
2026-05-20 12:09:48.372,1162527828,371372,1,1.06665,0.22705,0.33643,17.282,7.336,17.74
2026-05-20 12:09:48.372,1162527828,371372,2,0.93018,0.25269,-0.44067,-21.191,11.756,9.069
2026-05-20 12:09:48.572,1162528028,371572,1,1.0083,0.12256,0.36768,-21.84,19.496,2.992
2026-05-20 12:09:48.572,1162528028,371572,2,0.97778,0.20166,-0.30713,-1.885,-5.252,20.305
2026-05-20 12:09:48.772,1162528228,371772,1,0.96631,0.01538,0.45435,-5.626,-3.038,32.214
2026-05-20 12:09:48.772,1162528228,371772,2,0.96191,0.11572,-0.39429,-1.359,0.55,20.275
2026-05-20 12:09:48.972,1162528428,371972,1,1.0647,-0.09399,0.28345,-45.687,-16.359,1.672
2026-05-20 12:09:48.972,1162528428,371972,2,0.97803,0.08203,-0.3125,1.573,10.221,19.443
2026-05-20 12:09:49.172,1162528628,372172,1,1.05176,-0.14795,0.21411,-26.893,5.725,-5.0
2026-05-20 12:09:49.172,1162528628,372172,2,0.98755,-0.02686,-0.32739,3.252,0.183,-6.13
2026-05-20 12:09:49.566,1162529022,372566,1,1.04102,-0.05005,0.26782,5.313,-7.725,0.084
2026-05-20 12:09:49.566,1162529022,372566,2,0.99927,-0.00781,-0.30835,-0.779,-0.359,1.29
2026-05-20 12:09:49.766,1162529222,372766,1,1.04761,-0.05908,0.24561,-2.557,-0.954,-0.977
2026-05-20 12:09:49.766,1162529222,372766,2,0.98511,-0.05933,-0.3606,-3.534,0.595,3.786
2026-05-20 12:09:52.969,1162532425,375969,1,1.03979,-0.06909,0.24414,-2.305,4.748,-0.214
2026-05-20 12:09:52.969,1162532425,375969,2,0.98877,-0.06128,-0.34155,-3.351,0.916,4.183
2026-05-20 12:09:53.169,1162532625,376169,1,1.05908,-0.06201,0.22437,-2.435,3.733,-3.557
2026-05-20 12:09:53.169,1162532625,376169,2,0.99829,-0.07886,-0.3584,-1.29,1.924,1.458
2026-05-20 12:09:53.369,1162532825,376369,1,1.05957,-0.10083,0.30273,5.0,24.313,-2.13
2026-05-20 12:09:53.369,1162532825,376369,2,0.9707,0.29419,0.04688,-5.221,0.603,3.359
2026-05-20 12:09:59.509,1162538965,382509,1,0.88892,-0.08105,0.63574,-2.672,2.992,-0.962
2026-05-20 12:09:59.509,1162538965,382509,2,1.02002,0.13062,-0.02393,0.985,0.718,0.939
2026-05-20 12:09:59.709,1162539165,382709,1,0.8938,-0.07153,0.65039,-2.153,2.733,-0.527
2026-05-20 12:09:59.709,1162539165,382709,2,1.01367,0.1355,-0.01807,0.527,1.977,0.595
2026-05-20 12:09:59.909,1162539365,382909,1,0.88745,-0.08228,0.65869,1.824,2.756,0.389
2026-05-20 12:09:59.909,1162539365,382909,2,1.02344,0.14355,-0.02954,0.603,1.053,-0.015
2026-05-20 12:10:00.109,1162539565,383109,1,0.87744,-0.07935,0.65747,-3.542,2.771,0.366
2026-05-20 12:10:00.109,1162539565,383109,2,1.02466,0.13574,-0.01953,-0.275,0.237,0.74
2026-05-20 12:10:00.309,1162539765,383309,1,0.88184,-0.0835,0.65698,-0.122,0.878,1.382
2026-05-20 12:10:00.309,1162539765,383309,2,1.01855,0.14014,-0.01074,-5.275,-0.901,-0.511
2026-05-20 12:10:00.509,1162539965,383509,1,0.8811,-0.07813,0.6626,-0.206,0.229,0.282
2026-05-20 12:10:00.509,1162539965,383509,2,1.02051,0.13721,-0.02344,-5.45,1.229,0.366
2026-05-20 12:10:00.709,1162540165,383709,1,0.88428,-0.08618,0.64502,-1.908,-0.069,-0.336
2026-05-20 12:10:00.709,1162540165,383709,2,1.02124,0.14624,-0.01807,-5.115,1.924,1.405
2026-05-20 12:10:00.909,1162540365,383909,1,0.88721,-0.08984,0.65015,-1.252,1.229,-0.084
2026-05-20 12:10:00.909,1162540365,383909,2,1.01733,0.13745,-0.00195,-2.45,0.779,-0.053
2026-05-20 12:10:01.109,1162540565,384109,1,0.88428,-0.0896,0.64673,-0.099,1.527,-0.802
2026-05-20 12:10:01.109,1162540565,384109,2,1.02051,0.13232,-0.00977,-0.382,0.397,0.847
2026-05-20 12:10:01.309,1162540765,384309,1,0.88232,-0.08398,0.64868,-0.618,2.198,-0.901
2026-05-20 12:10:01.309,1162540765,384309,2,1.02124,0.13452,-0.01196,2.053,-0.282,1.931
2026-05-20 12:10:01.509,1162540965,384509,1,0.88086,-0.08643,0.65796,0.855,2.687,0.595
2026-05-20 12:10:01.509,1162540965,384509,2,1.02612,0.1355,-0.01489,3.031,-1.015,2.542
2026-05-20 12:10:01.709,1162541165,384709,1,0.87915,-0.08276,0.66235,-0.924,2.496,-0.031
2026-05-20 12:10:01.709,1162541165,384709,2,1.02026,0.13184,-0.02637,1.611,-0.015,1.359
2026-05-20 12:10:01.909,1162541365,384909,1,0.88232,-0.09131,0.65186,-0.954,2.985,-0.603
2026-05-20 12:10:01.909,1162541365,384909,2,1.03271,0.13184,-0.02881,1.916,0.275,-0.145
2026-05-20 12:10:02.109,1162541565,385109,1,0.86938,-0.09546,0.67065,-4.092,2.45,0.519
2026-05-20 12:10:02.109,1162541565,385109,2,1.00903,0.14624,-0.02881,2.847,0.427,-2.901
2026-05-20 12:10:02.346,1162541802,385345,1,0.87427,-0.09741,0.67114,3.206,4.053,1.145
2026-05-20 12:10:02.346,1162541802,385345,2,1.01099,0.14771,-0.052,-0.031,0.74,-4.786
2026-05-20 12:10:02.545,1162542001,385545,1,0.85596,-0.10205,0.71167,0.344,4.786,-0.168
2026-05-20 12:10:02.545,1162542001,385545,2,1.00952,0.1687,-0.02075,-6.45,1.74,-4.817
2026-05-20 12:10:02.745,1162542201,385745,1,0.86426,-0.08447,0.68896,1.466,5.863,-4.244
2026-05-20 12:10:02.745,1162542201,385745,2,1.01123,0.16699,-0.01245,-7.061,4.16,-8.313
2026-05-20 12:10:02.945,1162542401,385945,1,0.8418,0.00757,0.69116,-17.221,1.84,-4.412
2026-05-20 12:10:02.945,1162542401,385945,2,1.01367,0.21289,0.00806,0.038,7.344,-2.924
2026-05-20 12:10:03.156,1162542612,386155,1,0.8269,-0.0708,0.73901,4.244,3.084,0.145
2026-05-20 12:10:03.156,1162542612,386155,2,1.00684,0.23193,0.00757,-3.206,2.557,-1.359
2026-05-20 12:10:03.355,1162542811,386355,1,0.8252,-0.06323,0.7356,0.786,0.725,-1.466
2026-05-20 12:10:03.355,1162542811,386355,2,0.99219,0.2334,0.00806,1.847,-0.679,1.198
2026-05-20 12:10:03.555,1162543011,386555,1,0.84033,-0.07983,0.7124,-0.031,-2.008,-1.534
2026-05-20 12:10:03.555,1162543011,386555,2,1.00171,0.22656,-0.02173,4.802,-3.046,3.206
2026-05-20 12:10:04.132,1162543588,387131,1,0.86108,-0.05127,0.69751,-0.076,1.824,-0.008
2026-05-20 12:10:04.132,1162543588,387131,2,1.00903,0.21021,-0.03564,0.153,0.16,1.656
2026-05-20 12:10:04.331,1162543787,387331,1,0.84521,-0.05737,0.70557,-0.74,2.0,0.244
2026-05-20 12:10:04.331,1162543787,387331,2,1.00586,0.20825,-0.03906,-5.779,1.176,-2.725
2026-05-20 12:10:04.867,1162544323,387867,1,0.84009,-0.0769,0.71313,-1.313,-0.076,-5.168
2026-05-20 12:10:04.867,1162544323,387867,2,1.00586,0.21484,-0.02637,-12.473,5.748,1.901
2026-05-20 12:10:05.067,1162544523,388067,1,0.86011,-0.06274,0.70313,-11.504,-3.504,-14.718
2026-05-20 12:10:05.067,1162544523,388067,2,1.01416,0.20825,0.03076,-15.916,8.672,-2.45
2026-05-20 12:10:05.267,1162544723,388267,1,0.86182,-0.04492,0.6748,-5.71,5.351,-6.718
2026-05-20 12:10:05.267,1162544723,388267,2,1.00244,0.21948,0.02783,-1.656,3.466,3.969
2026-05-20 12:10:08.453,1162547909,391453,1,0.84204,-0.03369,0.69409,-1.947,-1.107,3.069
2026-05-20 12:10:08.453,1162547909,391453,2,1.00317,0.21924,0.04199,0.847,1.374,4.023
2026-05-20 12:10:08.653,1162548109,391653,1,0.8667,-0.05078,0.68628,0.29,-1.321,1.504
2026-05-20 12:10:08.653,1162548109,391653,2,1.00195,0.20557,0.02466,-0.664,0.038,2.115
2026-05-20 12:10:11.437,1162550893,394436,1,0.92114,-0.0105,0.60498,5.855,3.344,8.649
2026-05-20 12:10:11.437,1162550893,394436,2,1.01685,0.21558,-0.02832,0.092,2.901,-5.29
2026-05-20 12:10:11.636,1162551092,394636,1,0.79395,-0.06152,0.81812,-10.977,7.298,0.84
2026-05-20 12:10:11.636,1162551092,394636,2,0.96533,0.30029,0.13745,-6.206,4.863,-4.008
2026-05-20 12:10:11.836,1162551292,394836,1,0.79443,-0.05029,0.77148,-6.061,-2.374,-1.603
2026-05-20 12:10:11.836,1162551292,394836,2,1.00122,0.19751,0.04932,1.237,-0.115,1.481
2026-05-20 12:10:14.560,1162554016,397560,1,0.83032,-0.07861,0.70972,-0.206,-1.191,1.221
2026-05-20 12:10:14.560,1162554016,397560,2,1.00586,0.19849,0.05518,-0.916,0.313,2.695
2026-05-20 12:10:14.760,1162554216,397760,1,0.86108,-0.09424,0.6875,-1.947,-2.489,-0.656
2026-05-20 12:10:14.760,1162554216,397760,2,1.01025,0.18018,0.0498,-2.008,-0.008,4.42
2026-05-20 12:10:14.960,1162554416,397960,1,0.88721,-0.10767,0.67236,-6.198,-1.733,1.443
2026-05-20 12:10:14.960,1162554416,397960,2,1.00879,0.17285,0.03564,-1.84,3.084,0.42
2026-05-20 12:10:15.160,1162554616,398160,1,0.86035,-0.10962,0.67651,-1.366,-1.076,0.282
2026-05-20 12:10:15.160,1162554616,398160,2,1.01367,0.18262,0.06616,2.885,-2.198,0.115
2026-05-20 12:10:15.360,1162554816,398360,1,0.87231,-0.10205,0.65625,1.527,1.725,0.092
2026-05-20 12:10:15.360,1162554816,398360,2,1.00708,0.18604,0.04736,0.748,0.427,-0.023
2026-05-20 12:10:15.712,1162555168,398711,1,0.86206,-0.10034,0.67871,4.237,3.534,-1.008
2026-05-20 12:10:15.712,1162555168,398711,2,1.00684,0.18311,0.03809,3.603,-0.733,-0.359
2026-05-20 12:10:15.911,1162555367,398911,1,0.86597,-0.07129,0.68237,-0.443,1.496,-0.527
2026-05-20 12:10:15.911,1162555367,398911,2,1.00903,0.17554,0.03662,-1.931,1.351,2.198
2026-05-20 12:10:16.111,1162555567,399111,1,0.8689,-0.09058,0.67847,0.137,1.229,0.802
2026-05-20 12:10:16.111,1162555567,399111,2,1.00562,0.1853,0.03223,-1.611,0.802,0.489
2026-05-20 12:10:16.311,1162555767,399311,1,0.8562,-0.08032,0.68311,-0.824,1.26,1.252
2026-05-20 12:10:16.311,1162555767,399311,2,1.00439,0.18286,0.03101,-2.053,1.634,1.786
2026-05-20 12:10:16.511,1162555967,399511,1,0.8623,-0.09863,0.66211,-1.603,1.298,0.466
2026-05-20 12:10:16.511,1162555967,399511,2,1.00928,0.17969,0.03955,-0.466,0.542,1.0
2026-05-20 12:10:16.711,1162556167,399711,1,0.86255,-0.0918,0.67798,-1.397,2.321,-2.328
2026-05-20 12:10:16.711,1162556167,399711,2,1.01733,0.16992,0.03711,-0.954,0.023,1.214
2026-05-20 12:10:16.911,1162556367,399911,1,0.86792,-0.08423,0.68262,-0.153,2.031,-1.855
2026-05-20 12:10:16.911,1162556367,399911,2,1.01489,0.17212,0.03369,-6.229,0.74,-0.183
2026-05-20 12:10:17.111,1162556567,400111,1,0.85913,-0.08984,0.67676,-0.664,1.74,0.137
2026-05-20 12:10:17.111,1162556567,400111,2,1.00806,0.1731,0.03979,-7.099,1.427,-0.634
2026-05-20 12:10:17.311,1162556767,400311,1,0.86646,-0.08496,0.68164,-1.634,1.397,-0.321
2026-05-20 12:10:17.311,1162556767,400311,2,1.00684,0.17383,0.03809,-5.382,2.176,0.534
2026-05-20 12:10:17.511,1162556967,400511,1,0.85547,-0.08936,0.68604,-0.336,1.305,-0.145
2026-05-20 12:10:17.511,1162556967,400511,2,1.00171,0.18115,0.0437,-2.374,0.237,0.527
2026-05-20 12:10:17.744,1162557200,400744,1,0.84814,-0.08545,0.6853,0.153,0.962,-0.42
2026-05-20 12:10:17.744,1162557200,400744,2,1.00928,0.17358,0.03589,-3.817,0.137,0.542
2026-05-20 12:10:17.944,1162557400,400944,1,0.86963,-0.09033,0.67578,-1.122,0.672,-0.664
2026-05-20 12:10:17.944,1162557400,400944,2,1.00928,0.17529,0.04785,-1.221,0.183,0.519
2026-05-20 12:10:18.144,1162557600,401144,1,0.86499,-0.09424,0.68481,-0.008,1.74,-0.595
2026-05-20 12:10:18.144,1162557600,401144,2,1.00928,0.17554,0.03906,-0.321,0.229,0.405
2026-05-20 12:17:03.243,1162962699,10243,1,0.81787,-0.104,0.73706,0.145,3.038,0.107
2026-05-20 12:17:03.243,1162962699,10243,2,1.02686,-0.07666,0.00342,-1.382,0.885,1.763
2026-05-20 12:17:03.507,1162962963,10506,1,0.81665,-0.10791,0.72974,0.557,1.504,-0.328
2026-05-20 12:17:03.507,1162962963,10506,2,1.03149,-0.07935,-0.00415,-1.328,0.344,0.924
2026-05-20 12:17:03.706,1162963162,10706,1,0.82178,-0.10596,0.73828,-0.733,0.985,0.641
2026-05-20 12:17:03.706,1162963162,10706,2,1.02905,-0.08398,-0.01245,-0.687,-0.046,0.817
2026-05-20 12:17:03.906,1162963362,10906,1,0.82642,-0.10962,0.73779,-0.29,0.885,1.397
2026-05-20 12:17:03.906,1162963362,10906,2,1.02905,-0.09644,0.00073,-0.427,0.802,0.908
2026-05-20 12:17:04.168,1162963624,11168,1,0.82764,-0.10938,0.73291,0.771,0.725,0.626
2026-05-20 12:17:04.168,1162963624,11168,2,1.03174,-0.09277,-0.00635,-1.107,1.176,0.679
2026-05-20 12:17:04.368,1162963824,11368,1,0.81787,-0.11206,0.73267,-3.489,1.519,-0.977
2026-05-20 12:17:04.368,1162963824,11368,2,1.02197,-0.09644,0.00195,-2.16,1.031,1.206
2026-05-20 12:17:04.568,1162964024,11568,1,0.82153,-0.11621,0.7373,-0.656,0.153,-1.977
2026-05-20 12:17:04.568,1162964024,11568,2,1.01978,-0.08936,0.00391,-3.969,0.191,0.427
2026-05-20 12:17:04.768,1162964224,11768,1,0.82495,-0.10229,0.71802,-0.092,0.115,-2.237
2026-05-20 12:17:04.768,1162964224,11768,2,1.02319,-0.09595,-0.00537,-3.634,-0.282,0.435
2026-05-20 12:17:05.968,1162965424,11968,1,0.83105,-0.10229,0.71851,-0.351,1.397,-1.817
2026-05-20 12:17:05.968,1162965424,11968,2,1.03027,-0.0874,-0.00879,-3.061,0.595,0.221
2026-05-20 12:17:05.168,1162964624,12168,1,0.82495,-0.09717,0.7251,-1.137,0.702,-0.817
2026-05-20 12:17:05.168,1162964624,12168,2,1.02515,-0.09595,-0.00806,-1.183,0.466,0.992
2026-05-20 12:17:05.368,1162964824,12368,1,0.82983,-0.09033,0.71997,-0.893,1.313,-0.405
2026-05-20 12:17:05.368,1162964824,12368,2,1.02563,-0.09326,-0.00293,-1.023,0.069,2.313
2026-05-20 12:17:08.550,1162968006,15549,1,0.54565,0.10229,0.95386,23.351,33.313,5.534
2026-05-20 12:17:08.550,1162968006,15549,2,0.8728,0.35938,0.22827,3.511,19.069,-29.885
2026-05-20 12:17:08.749,1162968205,15749,1,0.44531,0.14038,1.01196,8.802,14.901,3.298
2026-05-20 12:17:08.749,1162968205,15749,2,0.80884,0.46143,0.28345,-1.099,6.527,-10.206
2026-05-20 12:17:09.949,1162969405,15949,1,0.40332,0.15991,1.03345,-7.901,-4.87,-1.977
2026-05-20 12:17:09.949,1162969405,15949,2,0.80127,0.44067,0.27539,-10.0,-5.046,16.191
2026-05-20 12:17:09.170,1162968626,16170,1,0.50879,0.10059,0.98877,-16.679,-24.626,-6.466
2026-05-20 12:17:09.170,1162968626,16170,2,0.90845,0.30957,0.22192,-12.679,-12.824,31.695
2026-05-20 12:17:12.079,1162971535,19079,1,0.74634,-0.08862,1.0686,1.122,5.985,35.366
2026-05-20 12:17:12.079,1162971535,19079,2,0.7478,0.41113,0.43774,-7.435,48.511,-0.053
2026-05-20 12:17:12.338,1162971794,19338,1,0.38965,-0.11108,0.87891,-14.817,16.298,13.519
2026-05-20 12:17:12.338,1162971794,19338,2,0.37378,0.34888,0.44238,-17.634,-9.786,27.603
2026-05-20 12:17:12.538,1162971994,19538,1,0.48877,-0.15674,0.85107,5.244,-16.87,6.58
2026-05-20 12:17:12.538,1162971994,19538,2,0.68945,0.22437,0.47534,-16.939,-18.145,19.435
2026-05-20 12:17:12.882,1162972338,19882,1,0.88306,-0.16724,0.62134,46.519,-64.534,11.695
2026-05-20 12:17:12.882,1162972338,19882,2,0.96191,0.18677,0.26221,16.939,-35.29,18.74
2026-05-20 12:17:13.082,1162972538,20082,1,1.00635,-0.1084,0.48022,53.084,-8.962,14.305
2026-05-20 12:17:13.082,1162972538,20082,2,0.97559,0.13452,0.16333,51.313,-24.725,16.313
2026-05-20 12:17:13.282,1162972738,20282,1,0.91553,0.02979,0.48926,74.481,4.359,29.435
2026-05-20 12:17:13.282,1162972738,20282,2,0.98975,0.19824,0.02563,49.573,4.794,-2.183
2026-05-20 12:17:13.482,1162972938,20482,1,0.9126,0.10547,0.45679,49.672,1.656,27.382
2026-05-20 12:17:13.482,1162972938,20482,2,1.13599,0.18018,0.23315,55.55,-8.153,29.252
2026-05-20 12:17:13.760,1162973216,20760,1,0.8645,-0.00562,0.50195,17.672,-9.198,9.389
2026-05-20 12:17:13.760,1162973216,20760,2,0.94434,0.13501,0.31641,-0.87,-6.252,11.221
2026-05-20 12:17:14.960,1162974416,20960,1,0.89722,-0.04053,0.51831,-16.71,27.069,-10.595
2026-05-20 12:17:14.960,1162974416,20960,2,0.99194,-0.08887,0.09253,-5.443,11.008,29.221
2026-05-20 12:17:14.160,1162973616,21160,1,0.9021,-0.11865,0.5293,-14.473,10.061,-6.878
2026-05-20 12:17:14.160,1162973616,21160,2,0.9187,-0.21753,0.03052,-8.557,-8.336,3.786
2026-05-20 12:17:14.360,1162973816,21360,1,1.13574,-0.0603,0.60547,19.305,-71.863,5.519
2026-05-20 12:17:14.360,1162973816,21360,2,0.66235,0.10864,0.36743,44.565,19.573,-4.282
2026-05-20 12:17:14.560,1162974016,21560,1,0.96753,0.14819,0.59448,-19.366,-27.809,-3.298
2026-05-20 12:17:14.560,1162974016,21560,2,1.00781,0.06641,0.2019,-49.832,-19.145,-4.466
2026-05-20 12:17:14.760,1162974216,21760,1,0.93677,0.03833,0.46191,-23.947,-1.351,-9.947
2026-05-20 12:17:14.760,1162974216,21760,2,0.98853,0.04395,-0.08594,-48.626,6.198,-30.122
2026-05-20 12:17:15.960,1162975416,21960,1,0.97534,0.04712,0.45264,-49.038,8.695,-21.931
2026-05-20 12:17:15.960,1162975416,21960,2,0.98096,0.01636,-0.16919,-32.802,20.817,-9.595
2026-05-20 12:17:15.168,1162974624,22167,1,1.22241,-0.0437,0.60889,-53.084,-48.099,-8.916
2026-05-20 12:17:15.168,1162974624,22167,2,1.03052,0.0896,0.15991,-11.878,3.206,17.29
2026-05-20 12:17:15.367,1162974823,22367,1,0.99316,-0.08203,0.51123,-124.542,17.305,-57.954
2026-05-20 12:17:15.367,1162974823,22367,2,1.23584,0.04565,0.0249,-93.122,-15.473,40.603
2026-05-20 12:17:15.567,1162975023,22567,1,0.86987,-0.10693,0.54395,-42.13,22.321,-43.298
2026-05-20 12:17:15.567,1162975023,22567,2,1.1543,-0.21729,-0.10327,-3.29,-44.267,18.137
2026-05-20 12:17:15.925,1162975381,22925,1,0.7666,-0.03198,0.66895,-15.275,-17.985,6.023
2026-05-20 12:17:15.925,1162975381,22925,2,1.04761,-0.05103,-0.02563,-11.573,-31.374,-5.313
2026-05-20 12:17:16.125,1162975581,23125,1,0.95142,0.02661,0.54175,6.198,-6.053,13.916
2026-05-20 12:17:16.125,1162975581,23125,2,0.99878,-0.02051,-0.06128,-37.611,-2.809,-28.649
2026-05-20 12:17:16.325,1162975781,23325,1,0.95654,0.05493,0.52002,-37.947,3.855,-9.473
2026-05-20 12:17:16.325,1162975781,23325,2,0.99365,-0.06152,-0.04077,-35.802,-5.435,11.008
2026-05-20 12:17:16.525,1162975981,23525,1,0.99756,-0.04736,0.42383,-24.466,-21.71,-4.794
2026-05-20 12:17:16.525,1162975981,23525,2,1.03247,-0.11523,-0.01611,11.008,4.183,-2.42
2026-05-20 12:17:19.254,1162978710,26254,1,0.95142,-0.02588,0.54224,2.122,5.45,0.053
2026-05-20 12:17:19.254,1162978710,26254,2,1.0249,-0.10645,-0.00146,-9.344,-2.313,-3.611
2026-05-20 12:17:19.576,1162979032,26576,1,0.92993,-0.10474,0.53931,-2.328,-2.229,2.84
2026-05-20 12:17:19.576,1162979032,26576,2,1.01172,-0.104,0.01782,4.069,-7.588,0.053
2026-05-20 12:17:19.776,1162979232,26776,1,0.96313,-0.20044,0.50928,-13.702,9.168,-5.771
2026-05-20 12:17:19.776,1162979232,26776,2,1.0188,-0.104,-0.06738,0.969,-6.42,-24.191
2026-05-20 12:17:20.976,1162980432,26976,1,0.94604,-0.05225,0.57324,1.29,13.527,-1.336
2026-05-20 12:17:20.976,1162980432,26976,2,0.97949,-0.09985,-0.0874,31.191,-0.053,11.74
2026-05-20 12:17:20.245,1162979701,27245,1,0.96826,-0.15576,0.50488,1.84,1.214,1.687
2026-05-20 12:17:20.245,1162979701,27245,2,1.05225,-0.11694,-0.13135,-3.679,0.023,-4.29
2026-05-20 12:17:20.475,1162979931,27475,1,0.91699,-0.146,0.448,9.015,11.809,-5.924
2026-05-20 12:17:20.475,1162979931,27475,2,1.03931,0.08154,-0.22119,28.069,4.878,-29.588
2026-05-20 12:17:20.675,1162980131,27675,1,0.85767,0.04248,0.64258,28.748,31.168,-60.298
2026-05-20 12:17:20.675,1162980131,27675,2,1.03394,0.05762,0.39551,43.031,35.595,-7.626
2026-05-20 12:17:20.875,1162980331,27875,1,0.83057,0.11328,0.70264,18.458,9.656,-16.023
2026-05-20 12:17:20.875,1162980331,27875,2,0.97314,0.25732,0.10132,-17.099,-3.908,-4.702
2026-05-20 12:17:21.103,1162980559,28103,1,0.86108,0.1543,0.73755,-18.664,14.298,-8.702
2026-05-20 12:17:21.103,1162980559,28103,2,0.96313,0.28955,0.04663,-31.046,-2.244,-21.191
2026-05-20 12:17:21.303,1162980759,28303,1,0.81323,0.16797,0.72046,-32.863,13.344,-18.641
2026-05-20 12:17:21.303,1162980759,28303,2,0.98608,0.29614,0.01514,-53.863,4.183,-15.687
2026-05-20 12:17:26.483,1162985939,33483,1,0.75317,-0.10645,0.78369,-0.74,1.473,12.13
2026-05-20 12:17:26.483,1162985939,33483,2,0.97949,0.14795,0.29077,6.153,1.061,-0.328
2026-05-20 12:17:26.683,1162986139,33683,1,0.74194,-0.09204,0.81128,13.191,10.137,1.481
2026-05-20 12:17:26.683,1162986139,33683,2,0.92993,0.18018,0.28711,10.305,2.038,-11.038
2026-05-20 12:17:26.883,1162986339,33883,1,0.69824,-0.05347,0.823,19.351,12.519,5.802
2026-05-20 12:17:26.883,1162986339,33883,2,0.96387,0.24487,0.29614,7.183,5.511,-11.137
2026-05-20 12:17:27.083,1162986539,34083,1,0.65356,-0.02124,0.87207,-12.092,5.588,-1.687
2026-05-20 12:17:27.083,1162986539,34083,2,0.90552,0.26294,0.2793,-1.481,-0.557,0.374
2026-05-20 12:17:27.283,1162986739,34283,1,0.66138,-0.02661,0.88672,-0.481,2.733,-1.519
2026-05-20 12:17:27.283,1162986739,34283,1,0.66138,-0.02661,0.88672,-0.481,2.733,-1.519
2026-05-20 12:17:27.283,1162986739,34283,2,0.96045,0.22021,0.25366,0.397,2.221,-0.931
2026-05-20 12:17:32.430,1162991886,39430,1,0.73242,-0.052,0.84741,6.092,4.275,0.305
2026-05-20 12:17:32.430,1162991886,39430,2,0.9502,0.23047,0.23242,-0.13,3.092,-0.84
2026-05-20 12:17:32.630,1162992086,39630,1,0.70972,-0.03931,0.83057,2.198,6.542,-0.382
2026-05-20 12:17:32.630,1162992086,39630,2,0.45361,0.60669,0.63916,-2.847,4.122,5.221
2026-05-20 12:17:35.607,1162995063,42607,1,0.01025,0.01074,1.05566,-29.374,4.756,2.191
2026-05-20 12:17:35.607,1162995063,42607,2,0.43628,0.59375,0.61377,-3.214,-7.305,2.191
2026-05-20 12:17:35.807,1162995263,42807,1,-0.0105,-0.08984,0.99805,4.55,28.481,8.763
2026-05-20 12:17:35.807,1162995263,42807,2,0.47803,0.5686,0.60669,-19.756,-6.664,-21.931
2026-05-20 12:17:36.007,1162995463,43007,1,-0.13086,-0.01294,1.16772,23.985,22.74,19.443
2026-05-20 12:17:36.007,1162995463,43007,2,0.2356,0.71777,0.58691,1.45,-6.962,21.092
2026-05-20 12:17:36.423,1162995879,43423,1,-0.0459,0.07227,1.12793,-15.893,-71.786,-14.603
2026-05-20 12:17:36.423,1162995879,43423,2,0.49463,0.65674,0.50903,2.084,-20.466,24.053
2026-05-20 12:17:36.623,1162996079,43623,1,0.24585,0.04004,0.97827,-5.84,-69.084,-17.389
2026-05-20 12:17:36.623,1162996079,43623,2,0.58862,0.61304,0.50586,-10.55,-29.084,10.534
2026-05-20 12:17:36.823,1162996279,43823,1,0.45654,0.0332,0.99023,-4.695,-43.824,-12.763
2026-05-20 12:17:36.823,1162996279,43823,2,1.01489,0.05005,0.15601,5.16,-1.939,9.649
2026-05-20 12:17:39.739,1162999195,46739,1,0.88379,0.06006,0.60986,8.962,3.939,4.061
2026-05-20 12:17:39.739,1162999195,46739,2,0.98804,0.06812,0.20825,13.443,28.84,-4.954
2026-05-20 12:17:42.873,1163002329,49873,1,0.84668,-0.00415,0.64258,-22.008,52.26,-2.87
2026-05-20 12:17:42.873,1163002329,49873,2,1.0,0.28418,0.44116,-16.336,45.74,-60.656
2026-05-20 12:17:43.073,1163002529,50073,1,0.55884,-0.03613,0.67627,7.382,125.221,-3.092
2026-05-20 12:17:43.073,1163002529,50073,2,0.87866,0.3562,0.27759,-3.45,52.504,-75.702
2026-05-20 12:17:43.273,1163002729,50273,1,0.03174,0.08569,0.95654,-11.664,132.084,2.267
2026-05-20 12:17:43.273,1163002729,50273,2,0.49463,0.62817,0.58472,-61.634,62.916,-56.137
2026-05-20 12:17:43.273,1163002729,50273,2,0.49463,0.62817,0.58472,-61.634,62.916,-56.137
2026-05-20 12:17:48.406,1163007862,55406,1,0.09692,-0.13232,0.96875,8.443,-18.099,-1.626
2026-05-20 12:17:48.406,1163007862,55406,2,0.21558,0.65308,0.57422,0.336,-22.481,17.267
2026-05-20 12:17:48.606,1163008062,55606,1,0.27686,-0.12964,1.2334,2.412,-48.542,-1.656
2026-05-20 12:17:48.606,1163008062,55606,2,0.40649,0.72388,0.77295,8.313,-30.939,44.321
2026-05-20 12:17:51.725,1163011181,58724,1,-0.01709,-0.06006,1.44263,31.076,37.046,17.344
2026-05-20 12:17:51.725,1163011181,58724,2,0.25562,0.80884,0.8811,-15.672,-11.305,5.802
2026-05-20 12:17:51.924,1163011380,58924,1,-0.19238,0.0835,1.18311,11.618,11.351,-16.947
2026-05-20 12:17:51.924,1163011380,58924,2,0.12524,0.63477,0.88574,3.962,2.985,-5.71
2026-05-20 12:17:52.124,1163011580,59124,1,-0.08545,0.21655,1.2041,1.389,3.237,-21.542
2026-05-20 12:17:52.124,1163011580,59124,2,0.37451,0.65527,0.6167,-4.473,10.595,-8.397
2026-05-20 12:17:55.939,1163015395,61939,1,-0.08374,0.13721,1.10132,-5.389,30.115,-0.58
2026-05-20 12:17:55.939,1163015395,61939,2,0.34448,0.63428,0.62158,4.611,4.092,-6.176
2026-05-20 12:17:55.139,1163014595,62139,1,-0.17871,0.15112,1.11377,-3.069,10.718,1.153
2026-05-20 12:17:55.139,1163014595,62139,2,0.32813,0.67163,0.62695,-0.13,3.802,-1.725
2026-05-20 12:17:57.347,1163016803,64346,1,-0.13647,0.15479,1.06445,-2.229,-2.351,5.527
2026-05-20 12:17:57.347,1163016803,64346,2,0.32544,0.67822,0.60156,1.099,4.725,1.45
2026-05-20 12:17:57.574,1163017030,64574,1,-0.13062,0.13696,1.06714,-3.695,1.916,0.931
2026-05-20 12:17:57.574,1163017030,64574,2,0.33496,0.69385,0.58789,-5.168,2.664,5.985
2026-05-20 12:17:57.774,1163017230,64774,1,-0.11938,0.1582,1.09937,-4.16,-2.427,1.947
2026-05-20 12:17:57.774,1163017230,64774,2,0.35791,0.69116,0.59424,-7.344,0.985,4.313
2026-05-20 12:17:58.974,1163018430,64974,1,-0.06885,0.08838,1.05029,-17.221,-5.763,1.511
2026-05-20 12:17:58.974,1163018430,64974,2,0.3772,0.63721,0.62231,-2.718,5.649,-0.702
2026-05-20 12:17:58.225,1163017681,65225,1,-0.11475,-0.04712,1.09717,-9.641,-6.947,-4.947
2026-05-20 12:17:58.225,1163017681,65225,2,0.35767,0.65039,0.61475,-0.458,-3.313,3.084
2026-05-20 12:17:58.425,1163017881,65425,1,-0.07666,0.02661,1.0957,15.901,10.519,-9.031
2026-05-20 12:17:58.425,1163017881,65425,2,0.35767,0.67944,0.59521,-4.198,-5.344,-8.779
2026-05-20 12:17:58.625,1163018081,65625,1,-0.08789,0.04395,1.08887,2.55,7.496,-6.748
2026-05-20 12:17:58.625,1163018081,65625,2,0.31812,0.68823,0.60767,-4.702,-6.527,-6.954
2026-05-20 12:17:59.083,1163018539,66082,1,-0.07349,0.04663,1.0415,-2.397,1.42,3.718
2026-05-20 12:17:59.083,1163018539,66082,2,0.36206,0.64648,0.60767,-0.702,10.649,-1.931
2026-05-20 12:17:59.282,1163018738,66282,1,-0.10376,0.04785,1.13477,5.634,17.405,7.046
2026-05-20 12:17:59.282,1163018738,66282,2,0.28809,0.68555,0.62134,-2.565,11.511,0.176
2026-05-20 12:17:59.482,1163018938,66482,1,-0.19141,0.08203,1.09399,1.328,0.992,6.069
2026-05-20 12:17:59.482,1163018938,66482,2,0.26074,0.69019,0.62671,-0.053,3.038,3.939
2026-05-20 12:17:59.682,1163019138,66682,1,-0.17725,0.12158,1.08691,-10.672,-3.557,10.443
2026-05-20 12:17:59.682,1163019138,66682,2,0.375,0.64282,0.60693,-10.023,9.733,2.168
2026-05-20 12:17:59.882,1163019338,66882,1,-0.04346,0.01538,0.99658,-9.252,3.13,6.137
2026-05-20 12:17:59.882,1163019338,66882,2,0.34424,0.64746,0.62231,1.458,13.985,-8.779
2026-05-20 12:18:00.082,1163019538,67082,1,-0.19434,0.06152,1.04907,-1.198,28.756,2.496
2026-05-20 12:18:00.082,1163019538,67082,2,0.25439,0.65845,0.60376,-0.221,20.237,-10.42
2026-05-20 12:18:00.282,1163019738,67282,1,-0.27295,0.05469,1.01196,4.847,34.954,-6.908
2026-05-20 12:18:00.282,1163019738,67282,2,0.04297,0.71631,0.65381,-0.954,13.779,-21.191
2026-05-20 12:18:00.583,1163020039,67582,1,-0.50488,0.04199,0.96118,9.924,14.206,-2.336
2026-05-20 12:18:00.583,1163020039,67582,2,-0.05371,0.70508,0.70776,3.046,-0.229,-16.359
2026-05-20 12:18:00.782,1163020238,67782,1,-0.48071,0.08252,0.95386,-14.069,-2.42,-8.908
2026-05-20 12:18:00.782,1163020238,67782,2,-0.05371,0.66187,0.67969,-3.748,-1.206,-4.885
2026-05-20 12:18:05.889,1163025345,72889,1,-0.20117,0.04663,1.03662,-9.931,-11.931,-0.26
2026-05-20 12:18:05.889,1163025345,72889,2,0.16577,0.68701,0.64331,-4.595,-8.397,18.977
2026-05-20 12:18:06.089,1163025545,73089,1,-0.14795,-0.06177,1.06787,-26.351,-26.511,-5.16
2026-05-20 12:18:06.089,1163025545,73089,2,0.26099,0.67847,0.61597,8.221,-20.702,12.924
2026-05-20 12:18:06.289,1163025745,73289,1,0.05005,-0.0835,1.04321,-4.702,-50.87,2.802
2026-05-20 12:18:06.289,1163025745,73289,2,0.32422,0.72876,0.54565,-5.252,-11.893,-2.244
2026-05-20 12:18:06.489,1163025945,73489,1,0.146,-0.12061,1.0918,58.672,17.45,-19.855
2026-05-20 12:18:06.489,1163025945,73489,2,0.35352,0.71484,0.55103,-6.16,-15.733,24.87
2026-05-20 12:18:06.689,1163026145,73689,1,0.04883,-0.10181,1.02515,5.847,30.328,-6.847
2026-05-20 12:18:06.689,1163026145,73689,2,0.34521,0.63965,0.65283,3.405,4.443,-12.534
2026-05-20 12:18:06.889,1163026345,73889,1,-0.13818,-0.03613,1.16064,15.191,26.427,-8.038
2026-05-20 12:18:06.889,1163026345,73889,2,0.58667,0.23999,0.22754,-6.87,-4.901,6.374
2026-05-20 12:18:10.934,1163030390,76934,1,0.54761,0.08667,0.75415,-9.939,-16.511,7.26
2026-05-20 12:18:10.934,1163030390,76934,2,1.20605,0.34521,0.44897,2.015,1.901,23.595
2026-05-20 12:18:10.134,1163029590,77134,1,0.68335,-0.02148,0.89404,-26.573,-5.511,2.061
2026-05-20 12:18:10.134,1163029590,77134,2,0.78174,0.33081,0.30664,-0.458,9.16,-3.573
2026-05-20 12:18:10.334,1163029790,77334,1,0.7124,-0.04761,0.94043,-12.053,-9.031,-4.16
2026-05-20 12:18:10.334,1163029790,77334,2,0.80737,0.2666,0.39868,-2.458,-7.527,10.595
2026-05-20 12:18:10.590,1163030046,77590,1,0.68555,-0.05713,0.74072,-4.527,-11.008,-6.115
2026-05-20 12:18:10.590,1163030046,77590,2,0.83008,0.29712,0.41016,-20.954,-12.908,4.267
2026-05-20 12:18:10.790,1163030246,77790,1,0.76514,-0.10815,0.81152,3.313,-9.595,-0.595
2026-05-20 12:18:10.790,1163030246,77790,2,0.91748,0.08228,0.37378,15.916,-7.931,14.87
2026-05-20 12:18:11.990,1163031446,77990,1,0.83398,-0.13794,0.72485,22.985,4.504,19.305
2026-05-20 12:18:11.990,1163031446,77990,2,0.99902,0.27832,0.22729,19.901,3.618,-8.29
2026-05-20 12:18:11.202,1163030658,78202,1,0.73242,-0.01245,0.80151,15.656,12.145,-12.122
2026-05-20 12:18:11.202,1163030658,78202,2,0.91528,0.34448,0.27417,7.229,-1.321,-21.489
2026-05-20 12:18:11.522,1163030978,78522,1,0.69165,-0.01538,0.83887,-16.878,5.771,1.489
2026-05-20 12:18:11.522,1163030978,78522,2,0.82129,0.35913,0.33813,3.092,2.466,-9.611
2026-05-20 12:18:11.722,1163031178,78722,1,0.79272,-0.02148,0.78296,-3.748,-17.16,1.031
2026-05-20 12:18:11.722,1163031178,78722,2,0.86719,0.4563,0.2312,-4.74,-14.092,-1.305
2026-05-20 12:18:11.922,1163031378,78922,1,0.75073,-0.03467,0.78857,37.298,5.412,-2.221
2026-05-20 12:18:11.922,1163031378,78922,2,0.88843,0.32422,0.33545,6.802,16.71,1.588
2026-05-20 12:18:15.043,1163034499,82043,1,0.70557,0.02344,0.87109,-5.061,15.947,16.977
2026-05-20 12:18:15.043,1163034499,82043,2,0.91699,0.38184,0.34766,6.244,17.847,-4.344
2026-05-20 12:18:15.243,1163034699,82243,1,0.76685,0.02051,0.97803,1.71,19.374,-4.756
2026-05-20 12:18:15.243,1163034699,82243,2,1.13306,0.34131,0.4978,-2.26,25.817,-23.679
2026-05-20 12:18:15.443,1163034899,82443,1,0.70923,0.10571,1.01172,-48.725,43.756,-27.122
2026-05-20 12:18:15.443,1163034899,82443,1,0.70923,0.10571,1.01172,-48.725,43.756,-27.122
2026-05-20 12:18:15.443,1163034899,82443,2,0.86157,0.27075,0.43018,5.076,2.832,-16.26
2026-05-20 12:18:20.565,1163040021,87565,1,0.65942,-0.04321,0.90088,5.191,16.084,-5.038
2026-05-20 12:18:20.565,1163040021,87565,2,0.84009,0.32007,0.40527,-5.023,2.221,-8.84
2026-05-20 12:18:20.765,1163040221,87765,1,0.60693,-0.04199,0.94531,0.664,6.374,-3.802
2026-05-20 12:18:20.765,1163040221,87765,2,0.87671,0.40967,0.26147,2.229,-9.603,17.924
2026-05-20 12:18:23.422,1163042878,90422,1,0.70386,0.02124,0.84741,-2.519,-16.412,2.16
2026-05-20 12:18:23.422,1163042878,90422,2,0.90674,0.37061,0.23145,-4.16,-2.008,9.473
2026-05-20 12:18:23.422,1163042878,90422,2,0.90674,0.37061,0.23145,-4.16,-2.008,9.473
2026-05-20 12:18:28.840,1163048296,95840,1,0.76465,0.05151,0.72241,-12.542,38.771,-26.42
2026-05-20 12:18:28.840,1163048296,95840,2,0.90527,0.48535,0.30176,-0.405,9.107,-26.878
2026-05-20 12:18:29.040,1163048496,96040,1,0.58325,0.0835,0.95874,-3.45,37.321,-28.573
2026-05-20 12:18:29.040,1163048496,96040,2,0.69165,0.46802,0.34717,12.573,13.466,-23.221
2026-05-20 12:18:29.240,1163048696,96240,1,0.47974,0.32813,0.96045,22.763,10.664,0.267
2026-05-20 12:18:29.240,1163048696,96240,2,0.72363,0.57739,0.32764,26.802,10.855,-13.305
2026-05-20 12:18:29.240,1163048696,96240,2,0.72363,0.57739,0.32764,26.802,10.855,-13.305
2026-05-20 12:18:34.368,1163053824,101368,1,0.75464,-0.10522,0.80005,-7.695,16.092,-8.595
2026-05-20 12:18:34.368,1163053824,101368,2,0.98657,0.20239,0.30151,-2.809,8.489,-10.26
2026-05-20 12:18:34.568,1163054024,101568,1,0.70703,-0.08618,0.83667,13.863,37.634,-0.496
2026-05-20 12:18:34.568,1163054024,101568,2,1.28833,0.54883,0.49609,4.992,62.153,-54.107
2026-05-20 12:18:34.803,1163054259,101803,1,0.57251,-0.00513,1.15967,11.351,98.679,-10.351
2026-05-20 12:18:34.803,1163054259,101803,2,0.75073,0.448,0.47705,0.771,75.473,-67.916
2026-05-20 12:18:35.003,1163054459,102003,1,0.10181,0.01489,1.02148,23.649,66.084,1.656
2026-05-20 12:18:35.003,1163054459,102003,2,0.43311,0.53003,0.53125,3.634,44.16,-41.771
2026-05-20 12:18:35.203,1163054659,102203,1,-0.09155,0.08472,1.10571,13.603,53.015,-10.298
2026-05-20 12:18:35.203,1163054659,102203,2,0.55835,0.52295,0.57349,0.603,-29.908,40.038
2026-05-20 12:18:38.295,1163057751,105294,1,0.54077,-0.12769,1.01001,5.145,-54.244,-4.389
2026-05-20 12:18:38.295,1163057751,105294,2,0.80664,0.40723,0.34009,-16.962,-52.183,46.206
2026-05-20 12:18:38.494,1163057950,105494,1,0.59521,0.05542,0.75146,2.878,-92.817,-29.695
2026-05-20 12:18:38.494,1163057950,105494,2,0.96582,0.18701,0.29614,-8.038,-76.282,26.198
2026-05-20 12:18:38.694,1163058150,105694,1,0.86963,0.17163,0.43311,-1.847,-30.794,12.427
2026-05-20 12:18:38.694,1163058150,105694,2,0.97485,-0.03442,0.11914,-31.817,-25.954,43.237
2026-05-20 12:18:38.894,1163058350,105894,1,0.98779,-0.09863,0.34546,-3.618,-22.397,16.214
2026-05-20 12:18:38.894,1163058350,105894,2,1.06641,-0.06079,0.08154,36.328,19.198,-14.908
2026-05-20 12:18:39.244,1163058700,106244,1,1.04004,-0.06152,0.39771,35.359,29.458,0.122
2026-05-20 12:18:39.244,1163058700,106244,2,1.01685,0.07568,0.16797,21.397,18.0,-29.74
2026-05-20 12:18:39.444,1163058900,106444,1,0.88135,-0.0415,0.49756,-5.298,55.137,18.595
2026-05-20 12:18:39.444,1163058900,106444,2,0.91455,0.16919,0.17358,18.916,45.244,-45.954
2026-05-20 12:18:39.644,1163059100,106644,1,0.46362,-0.04712,0.79565,19.534,112.076,-3.382
2026-05-20 12:18:39.644,1163059100,106644,2,0.15015,0.67114,0.67358,-1.061,-3.313,-6.206
2026-05-20 12:18:42.860,1163062316,109860,1,-0.35352,0.02173,1.01343,2.733,3.229,-5.893
2026-05-20 12:18:42.860,1163062316,109860,2,0.13306,0.68701,0.66577,1.122,-2.611,-4.42
2026-05-20 12:18:43.060,1163062516,110060,1,-0.36768,0.02808,1.00024,3.443,2.435,-3.969
2026-05-20 12:18:43.060,1163062516,110060,2,0.12964,0.69312,0.65381,0.977,-0.947,-2.321
2026-05-20 12:18:43.260,1163062716,110260,1,-0.35986,0.03174,1.00757,0.443,2.641,-1.412
2026-05-20 12:18:43.260,1163062716,110260,2,0.11987,0.70508,0.65527,1.42,0.321,0.565
2026-05-20 12:18:43.460,1163062916,110460,1,-0.44897,0.04395,1.10181,2.366,-11.908,-1.176
2026-05-20 12:18:43.460,1163062916,110460,2,0.14722,0.76025,0.6814,-0.573,-13.954,24.405
2026-05-20 12:18:43.660,1163063116,110660,1,-0.34619,0.01953,1.1709,-10.58,-55.023,-4.802
2026-05-20 12:18:43.660,1163063116,110660,2,0.22778,0.70459,0.61963,-2.511,-34.573,42.832
2026-05-20 12:18:43.860,1163063316,110860,1,-0.02612,-0.02441,1.04834,-3.313,-75.588,-9.832
2026-05-20 12:18:43.860,1163063316,110860,2,0.43994,0.61084,0.57495,-7.443,-41.176,41.305
2026-05-20 12:18:44.060,1163063516,111060,1,0.23877,-0.04834,1.03662,-16.832,-70.122,-11.588
2026-05-20 12:18:44.060,1163063516,111060,2,0.87744,0.31519,0.33765,-12.099,-29.496,28.702
2026-05-20 12:18:44.576,1163064032,111576,1,0.70557,-0.07617,0.80688,-10.405,-42.183,-9.328
2026-05-20 12:18:44.576,1163064032,111576,2,0.90967,0.25903,0.31812,-16.924,-21.374,24.863
2026-05-20 12:18:44.776,1163064232,111776,1,0.81274,-0.09448,0.70386,-20.824,-30.374,-7.794
2026-05-20 12:18:44.776,1163064232,111776,2,0.95508,0.14502,0.26099,-19.679,-14.733,13.832
2026-05-20 12:18:45.976,1163065432,111976,1,0.86475,-0.12646,0.66675,-8.466,-21.313,-4.985
2026-05-20 12:18:45.976,1163065432,111976,2,0.99365,0.12524,0.2373,-13.58,-8.725,16.145
2026-05-20 12:18:45.176,1163064632,112176,1,0.9292,-0.12109,0.58887,-4.641,-10.733,-8.374
2026-05-20 12:18:45.176,1163064632,112176,2,1.00537,0.04932,0.21753,-20.527,-4.84,9.87
2026-05-20 12:18:45.376,1163064832,112376,1,0.93042,-0.11816,0.56543,-9.756,-3.137,-7.328
2026-05-20 12:18:45.376,1163064832,112376,2,0.98584,0.02808,0.24268,-9.473,0.443,3.611
2026-05-20 12:18:45.576,1163065032,112576,1,0.91797,-0.11768,0.58496,-1.924,0.962,-1.626
2026-05-20 12:18:45.576,1163065032,112576,2,0.99634,0.03711,0.20557,-2.84,-0.046,-1.496
2026-05-20 12:18:45.907,1163065363,112907,1,0.90771,-0.07886,0.60132,-4.176,0.305,-0.405
2026-05-20 12:18:45.907,1163065363,112907,2,0.99438,0.05151,0.24023,-7.168,-2.397,2.779
2026-05-20 12:18:46.107,1163065563,113107,1,0.94263,-0.14404,0.57031,-7.26,12.061,3.214
2026-05-20 12:18:46.107,1163065563,113107,2,0.98999,0.0083,0.22437,-9.878,-0.366,-2.389
2026-05-20 12:18:46.307,1163065763,113307,1,0.90112,-0.33472,0.60474,37.191,23.947,7.0
2026-05-20 12:18:46.307,1163065763,113307,2,1.15967,0.2146,0.11377,95.031,1.313,-21.763
2026-05-20 12:18:46.563,1163066019,113563,1,0.72949,-0.00171,0.81152,-17.771,59.901,-22.595
2026-05-20 12:18:46.563,1163066019,113563,2,0.88574,0.13989,0.28052,64.084,23.863,-40.351
2026-05-20 12:18:46.763,1163066219,113763,1,0.5813,0.09277,0.92578,28.489,44.313,20.687
2026-05-20 12:18:46.763,1163066219,113763,2,0.88916,0.42139,0.18091,29.885,36.389,-4.87
2026-05-20 12:18:47.963,1163067419,113963,1,0.5542,0.02563,0.99805,9.595,13.626,20.809
2026-05-20 12:18:47.963,1163067419,113963,2,0.88013,0.42212,0.24512,15.389,6.084,5.038
2026-05-20 12:18:47.173,1163066629,114173,1,0.57397,0.06323,0.93994,9.779,0.511,6.061
2026-05-20 12:18:47.173,1163066629,114173,2,0.87915,0.43579,0.2417,3.74,2.641,2.214
2026-05-20 12:18:47.373,1163066829,114373,1,0.56958,0.06567,0.95776,-3.466,0.824,-4.099
2026-05-20 12:18:47.373,1163066829,114373,2,0.88159,0.40967,0.25781,-6.908,-1.267,0.137
2026-05-20 12:18:47.573,1163067029,114573,1,0.5957,0.03931,0.9458,-3.611,-1.168,-3.389
2026-05-20 12:18:47.573,1163067029,114573,2,1.05322,0.44043,0.37915,16.534,-3.26,8.0
2026-05-20 12:18:50.006,1163069462,117006,1,0.7793,0.04541,0.94971,3.458,-24.237,1.679
2026-05-20 12:18:50.006,1163069462,117006,2,0.65649,0.38501,0.31274,-23.672,16.038,-7.206
2026-05-20 12:18:50.271,1163069727,117271,1,0.72778,-0.00928,1.06885,4.145,-14.885,9.153
2026-05-20 12:18:50.271,1163069727,117271,2,0.87036,0.29712,0.52148,18.588,-31.763,-6.084
2026-05-20 12:18:50.471,1163069927,117471,1,0.88696,0.12915,0.79346,-20.962,6.863,-4.153
2026-05-20 12:18:50.471,1163069927,117471,2,0.9502,0.24512,0.3042,-48.779,12.29,3.359
2026-05-20 12:18:50.671,1163070127,117671,2,0.59302,0.62695,0.36719,-18.58,-63.939,53.947
2026-05-20 12:19:00.725,1163080181,127725,1,0.40674,0.10278,0.9353,-16.977,-67.16,-9.863
2026-05-20 12:19:00.725,1163080181,127725,2,0.63184,0.56958,0.37231,-30.321,-63.954,51.061
2026-05-20 12:19:03.819,1163083275,130819,1,0.97046,-0.05933,0.49219,50.763,1.237,7.252
2026-05-20 12:19:03.819,1163083275,130819,2,1.02783,-0.17896,-0.10229,1.359,2.29,-3.374
2026-05-20 12:19:04.019,1163083475,131019,1,0.94312,-0.07593,0.51831,-7.305,12.84,-2.473
2026-05-20 12:19:04.019,1163083475,131019,2,1.01831,-0.177,-0.03369,0.817,7.511,-9.664
2026-05-20 12:19:04.219,1163083675,131219,1,0.93726,-0.0979,0.55835,13.962,1.214,11.55
2026-05-20 12:19:04.219,1163083675,131219,2,1.00684,-0.16016,-0.03516,14.832,6.748,3.885
2026-05-20 12:19:04.419,1163083875,131419,1,0.94165,-0.14453,0.52637,-12.29,-0.298,-0.901
2026-05-20 12:19:04.419,1163083875,131419,2,1.01538,-0.15601,-0.02344,-8.931,0.969,6.916
2026-05-20 12:19:04.678,1163084134,131678,1,0.9624,-0.14136,0.51611,-20.466,1.977,-8.84
2026-05-20 12:19:04.678,1163084134,131678,2,1.02026,-0.18457,0.01416,-16.16,-2.908,6.55
2026-05-20 12:19:04.878,1163084334,131878,1,0.97437,-0.15381,0.50366,-7.985,12.252,-4.74
2026-05-20 12:19:04.878,1163084334,131878,2,1.0332,-0.1792,-0.04492,-5.618,5.802,1.603
2026-05-20 12:19:05.078,1163084534,132078,1,0.95215,-0.15405,0.54175,-12.756,20.191,-5.832
2026-05-20 12:19:05.078,1163084534,132078,2,0.99561,-0.17017,0.03027,-5.466,16.931,-3.939
2026-05-20 12:19:05.386,1163084842,132386,1,0.8938,-0.20532,0.61353,-9.336,11.397,5.137
2026-05-20 12:19:05.386,1163084842,132386,2,0.9834,-0.20215,0.02075,-11.313,6.534,0.695
2026-05-20 12:19:05.586,1163085042,132586,1,0.86938,-0.2832,0.57495,7.046,-8.191,8.779
2026-05-20 12:19:05.586,1163085042,132586,2,1.04541,-0.20532,-0.05444,25.489,-27.198,5.42
2026-05-20 12:19:05.786,1163085242,132786,1,0.95972,-0.20557,0.49731,44.679,-2.802,5.069
2026-05-20 12:19:05.786,1163085242,132786,2,0.98413,-0.19458,0.04004,49.214,-2.763,-9.702
2026-05-20 12:19:08.874,1163088330,135874,1,0.23657,-0.01733,0.88477,-12.534,-0.244,16.084
2026-05-20 12:19:08.874,1163088330,135874,2,0.55176,0.64624,0.51782,-1.244,-12.786,36.168
2026-05-20 12:19:09.184,1163088640,136184,1,0.19678,-0.01953,1.19238,-10.916,-33.908,15.061
2026-05-20 12:19:09.184,1163088640,136184,2,0.55273,0.6311,0.51489,-3.099,-25.908,47.221
2026-05-20 12:19:09.384,1163088840,136384,1,0.37354,-0.11475,1.05591,-20.794,-67.618,-10.122
2026-05-20 12:19:09.384,1163088840,136384,2,0.76758,0.49463,0.31201,-27.534,-57.305,63.053
2026-05-20 12:19:09.584,1163089040,136584,1,0.75464,-0.11768,0.80322,-1.695,-93.847,-22.244
2026-05-20 12:19:09.584,1163089040,136584,2,0.82617,0.18384,0.3103,-18.244,-59.427,40.13
2026-05-20 12:19:09.784,1163089240,136784,1,0.79883,-0.08423,0.50562,21.122,-84.069,1.221
2026-05-20 12:19:09.784,1163089240,136784,2,0.91577,0.14233,0.02441,-3.847,-67.107,30.595
2026-05-20 12:19:10.984,1163090440,136984,1,1.12402,-0.04443,0.37793,0.885,-50.511,13.626
2026-05-20 12:19:10.984,1163090440,136984,2,1.12183,-0.01294,0.06714,-1.412,-5.916,23.489
2026-05-20 12:19:10.184,1163089640,137184,1,1.05176,-0.06909,0.24731,21.321,44.046,-0.656
2026-05-20 12:19:10.184,1163089640,137184,2,1.10278,-0.05078,-0.08813,-20.618,2.802,-19.542
2026-05-20 12:19:13.117,1163092573,140117,1,-0.34863,0.10229,1.00415,-9.137,6.031,-9.336
2026-05-20 12:19:13.117,1163092573,140117,2,0.16162,0.69312,0.62231,-5.878,6.664,-1.084
2026-05-20 12:19:13.317,1163092773,140317,1,-0.42871,-0.00879,1.01147,4.794,7.168,-0.374
2026-05-20 12:19:13.317,1163092773,140317,2,0.15454,0.70605,0.6416,1.366,1.076,2.42
2026-05-20 12:19:13.530,1163092986,140530,1,-0.4187,0.00757,0.99268,-2.618,-0.229,-1.313
2026-05-20 12:19:13.530,1163092986,140530,2,0.15356,0.7002,0.63428,0.328,-1.427,0.84
2026-05-20 12:19:13.730,1163093186,140730,1,-0.39941,0.02295,0.99268,1.664,-0.832,-3.924
2026-05-20 12:19:13.730,1163093186,140730,2,0.14233,0.69897,0.63965,-1.504,-2.496,-0.344
2026-05-20 12:19:13.930,1163093386,140930,1,-0.38843,0.04126,0.98853,2.84,0.679,-4.756
2026-05-20 12:19:13.930,1163093386,140930,2,0.15747,0.698,0.63672,-2.595,-1.466,-1.847
2026-05-20 12:19:14.130,1163093586,141130,1,-0.38306,0.052,1.00049,0.779,-0.389,-2.985
2026-05-20 12:19:14.130,1163093586,141130,2,0.15356,0.7002,0.63403,-1.939,-0.779,-0.489
2026-05-20 12:19:14.330,1163093786,141330,1,-0.37183,0.0459,0.99316,-0.458,0.664,-0.015
2026-05-20 12:19:14.330,1163093786,141330,2,0.1521,0.69629,0.63647,-2.847,1.924,0.878
2026-05-20 12:19:14.530,1163093986,141530,1,-0.38452,0.03857,0.9856,-1.557,1.718,1.466
2026-05-20 12:19:14.530,1163093986,141530,2,0.14453,0.69727,0.64526,-1.618,1.405,2.053
2026-05-20 12:19:14.730,1163094186,141730,1,-0.38818,0.03247,0.99487,-1.985,1.511,0.947
2026-05-20 12:19:14.730,1163094186,141730,2,0.14087,0.70142,0.64648,-0.885,-0.718,3.176
2026-05-20 12:19:14.930,1163094386,141930,1,-0.38989,0.03271,1.0022,-0.382,0.504,1.176
2026-05-20 12:19:14.930,1163094386,141930,2,0.14526,0.69556,0.62646,-5.534,6.191,-3.168
2026-05-20 12:19:15.130,1163094586,142130,1,-0.38599,0.0564,0.99658,0.069,1.046,0.756
2026-05-20 12:19:15.130,1163094586,142130,2,0.15259,0.69556,0.63696,-0.947,-0.275,2.244
2026-05-20 12:19:15.330,1163094786,142330,1,-0.35962,0.04199,1.01978,0.382,-0.885,1.664
2026-05-20 12:19:15.330,1163094786,142330,2,0.11768,0.74902,0.62158,-7.328,-4.832,2.359
2026-05-20 12:19:17.252,1163096708,144252,1,-0.36987,0.03784,1.00903,-17.198,-10.115,-11.725
2026-05-20 12:19:17.252,1163096708,144252,2,0.16162,0.69556,0.65601,-16.344,-14.931,1.962
2026-05-20 12:19:17.452,1163096908,144452,1,-0.32813,-0.04565,0.98608,4.985,-3.015,-28.168
2026-05-20 12:19:17.452,1163096908,144452,2,0.20825,0.67163,0.66016,-7.427,-14.076,-16.031
2026-05-20 12:19:17.652,1163097108,144652,1,-0.35181,-0.00317,1.01294,2.641,-0.832,-21.122
2026-05-20 12:19:17.652,1163097108,144652,2,0.20972,0.65625,0.66309,-0.397,-12.947,-6.634
2026-05-20 12:19:18.967,1163098423,144967,1,-0.30591,-0.01831,1.00684,3.763,-0.298,-0.718
2026-05-20 12:19:18.967,1163098423,144967,2,0.22925,0.65942,0.67065,0.42,1.924,-0.374
2026-05-20 12:19:18.167,1163097623,145167,1,-0.30225,-0.02075,0.99585,0.069,-0.603,7.076
2026-05-20 12:19:18.167,1163097623,145167,2,0.23682,0.63037,0.58691,-6.832,6.427,2.947
2026-05-20 12:19:18.367,1163097823,145367,1,-0.34448,-0.03882,0.89819,-11.466,-10.244,3.725
2026-05-20 12:19:18.367,1163097823,145367,2,0.21777,0.49048,0.48999,9.237,-33.084,43.038
2026-05-20 12:19:18.577,1163098033,145577,1,-0.20703,-0.01465,0.93042,-0.29,-67.649,10.168
2026-05-20 12:19:18.577,1163098033,145577,2,0.33423,0.43433,0.47046,6.695,-48.962,58.198
2026-05-20 12:19:18.777,1163098233,145777,1,0.09863,0.01074,1.00732,-9.87,-80.947,19.481
2026-05-20 12:19:18.777,1163098233,145777,2,0.67554,0.49097,0.49097,0.802,-59.863,74.496
2026-05-20 12:19:19.977,1163099433,145977,1,0.44189,-0.10693,1.11255,-5.969,-97.084,0.191
2026-05-20 12:19:19.977,1163099433,145977,2,0.80859,0.3147,0.25708,14.176,3.649,-7.55
2026-05-20 12:19:19.262,1163098718,146262,1,0.46973,-0.03149,0.76709,29.153,2.0,-1.641
2026-05-20 12:19:19.262,1163098718,146262,2,0.71021,0.21533,0.22852,-6.092,-1.718,10.618
2026-05-20 12:19:19.462,1163098918,146462,1,0.68848,0.04346,0.94824,22.687,-12.588,0.053
2026-05-20 12:19:19.462,1163098918,146462,2,0.85889,0.32349,0.24243,-4.481,15.015,-9.534
2026-05-20 12:19:19.662,1163099118,146662,1,0.5564,0.09741,0.90405,18.359,11.397,19.26
2026-05-20 12:19:19.662,1163099118,146662,2,0.82373,0.39624,0.23779,10.023,-10.771,-8.618
2026-05-20 12:19:19.862,1163099318,146862,1,1.0271,0.26538,0.92822,-31.977,-19.687,-24.313
2026-05-20 12:19:19.862,1163099318,146862,2,1.13379,-0.08765,0.16797,-14.931,3.374,23.969
2026-05-20 12:19:20.102,1163099558,147102,1,0.7915,0.02466,0.86743,-1.794,-3.321,22.092
2026-05-20 12:19:20.102,1163099558,147102,2,0.94238,0.25854,0.18188,-6.374,5.42,12.534
2026-05-20 12:19:20.302,1163099758,147302,1,0.72168,-0.03418,0.82593,-6.565,9.985,-0.221
2026-05-20 12:19:20.302,1163099758,147302,2,0.95972,0.29053,0.21875,-5.046,6.969,-14.023
2026-05-20 12:19:20.502,1163099958,147502,1,0.64551,-0.01587,0.8811,1.298,21.756,-19.55
2026-05-20 12:19:20.502,1163099958,147502,2,0.89429,0.27954,0.29834,0.74,7.038,-15.84
2026-05-20 12:19:20.702,1163100158,147702,1,0.63062,0.08667,0.9502,7.534,-1.053,2.046
2026-05-20 12:19:20.702,1163100158,147702,2,0.91626,0.40259,0.23071,2.679,1.847,-3.473
2026-05-20 12:19:20.902,1163100358,147902,1,0.66333,0.08618,0.85156,4.954,-5.542,-3.687
2026-05-20 12:19:20.902,1163100358,147902,2,0.72827,0.35693,0.26074,10.137,-0.084,1.374
2026-05-20 12:19:21.102,1163100558,148102,1,0.6958,0.09863,0.87988,-1.725,-23.664,11.198
2026-05-20 12:19:21.102,1163100558,148102,2,0.89648,0.40527,0.29541,6.069,-13.321,18.504
2026-05-20 12:19:21.302,1163100758,148302,1,0.82666,0.09912,0.67749,-12.908,14.237,-1.779
2026-05-20 12:19:21.302,1163100758,148302,2,0.82739,0.40601,0.40137,10.771,14.695,-17.496
2026-05-20 12:19:27.011,1163106467,154011,1,0.49609,-0.07739,0.9729,34.366,19.076,-0.046
2026-05-20 12:19:27.011,1163106467,154011,2,0.78247,0.521,0.25244,-6.046,2.817,-10.031
2026-05-20 12:19:27.211,1163106667,154211,1,0.54395,0.04272,1.05713,-9.336,20.031,-12.786
2026-05-20 12:19:27.211,1163106667,154211,2,0.34277,0.65991,0.63257,-18.198,44.809,-39.29
2026-05-20 12:19:30.240,1163109696,157239,1,-0.26733,0.00635,1.19653,2.71,50.847,4.069
2026-05-20 12:19:30.240,1163109696,157239,2,0.22876,0.70239,0.68213,-11.397,23.183,-21.229
2026-05-20 12:19:30.439,1163109895,157439,1,-0.35962,0.02905,1.06787,-6.611,13.458,-3.427
2026-05-20 12:19:30.439,1163109895,157439,2,0.21265,0.65845,0.67041,-5.031,9.275,-5.924
2026-05-20 12:19:30.639,1163110095,157639,1,-0.30005,0.00024,0.93652,2.511,14.611,-7.275
2026-05-20 12:19:30.639,1163110095,157639,2,0.17603,0.67847,0.70972,-2.87,9.397,-13.908
2026-05-20 12:19:30.882,1163110338,157882,1,-0.48145,-0.00757,1.08228,-4.817,-11.458,-12.664
2026-05-20 12:19:30.882,1163110338,157882,2,0.10889,0.68701,0.71582,1.527,-16.565,7.244
2026-05-20 12:19:31.082,1163110538,158082,1,-0.33496,-0.04712,0.95508,1.977,-22.267,-5.74
2026-05-20 12:19:31.082,1163110538,158082,2,0.18628,0.67993,0.59668,1.779,-16.244,1.908
2026-05-20 12:19:31.282,1163110738,158282,1,-0.28784,-0.04614,0.97363,1.305,5.542,-17.924
2026-05-20 12:19:31.282,1163110738,158282,2,0.21558,0.68481,0.63647,-4.16,-10.145,-8.42
2026-05-20 12:19:31.482,1163110938,158482,1,-0.32397,0.01831,1.10669,6.641,4.42,-6.473
2026-05-20 12:19:31.482,1163110938,158482,2,0.23145,0.72217,0.62134,0.985,-7.611,-5.084
2026-05-20 12:19:31.682,1163111138,158682,1,-0.26709,-0.02783,1.03101,-4.099,-5.145,-9.046
2026-05-20 12:19:31.682,1163111138,158682,2,0.27319,0.65161,0.64551,-4.046,-6.542,0.84
2026-05-20 12:19:31.882,1163111338,158882,1,-0.2666,-0.03271,1.03198,4.427,-1.687,-4.748
2026-05-20 12:19:31.882,1163111338,158882,2,0.26245,0.66797,0.64209,-3.344,-0.573,-5.267
2026-05-20 12:19:32.082,1163111538,159082,1,-0.28833,-0.0061,1.03638,1.908,1.015,-5.298
2026-05-20 12:19:32.082,1163111538,159082,2,0.26489,0.67456,0.64209,-3.29,-2.504,-0.321
2026-05-20 12:19:32.282,1163111738,159282,1,-0.2771,,1.02759,-0.389,1.58,-5.031
2026-05-20 12:19:32.282,1163111738,159282,2,0.27197,0.66846,0.62793,-2.458,-0.977,1.527
2026-05-20 12:19:32.482,1163111938,159482,1,-0.26074,-0.07813,1.01831,-0.282,7.878,-7.481
2026-05-20 12:19:32.482,1163111938,159482,2,0.91479,0.16919,0.31055,-56.351,-30.26,-42.725
2026-05-20 12:19:35.313,1163114769,162313,1,0.64673,0.10327,0.77197,1.084,-5.382,-46.038
2026-05-20 12:19:35.313,1163114769,162313,2,0.8606,0.33081,0.09229,-44.359,-27.26,-6.252
2026-05-20 12:19:35.513,1163114969,162513,1,0.46948,-0.10425,1.29321,-97.168,-22.878,-67.878
2026-05-20 12:19:35.513,1163114969,162513,2,1.04297,0.42285,0.48242,-74.382,-12.779,-24.282
2026-05-20 12:19:35.713,1163115169,162713,1,0.65625,-0.10571,0.71509,-63.114,-26.664,-47.313
2026-05-20 12:19:35.713,1163115169,162713,2,0.82202,-0.06909,0.36963,-69.313,-25.267,8.328
2026-05-20 12:19:35.713,1163115169,162713,2,0.82202,-0.06909,0.36963,-69.313,-25.267,8.328
2026-05-20 12:19:40.831,1163120287,167831,1,-0.51123,0.12354,0.91113,-1.55,1.206,-0.588
2026-05-20 12:19:40.831,1163120287,167831,2,-0.00952,0.7207,0.63086,-2.969,-0.13,-1.183
2026-05-20 12:19:41.031,1163120487,168031,1,-0.50513,0.1062,0.91675,0.092,2.221,-0.565
2026-05-20 12:19:41.031,1163120487,168031,2,-0.31519,0.8291,0.76465,7.427,-34.183,27.229
2026-05-20 12:19:41.281,1163120737,168281,1,-0.78784,0.12964,0.99976,30.847,-107.916,80.664
2026-05-20 12:19:41.281,1163120737,168281,2,0.09375,0.90625,0.47827,41.496,-60.076,68.58
2026-05-20 12:19:41.481,1163120937,168481,1,0.12061,0.20483,0.57544,5.985,-139.023,36.954
2026-05-20 12:19:41.481,1163120937,168481,2,0.40234,0.44751,0.53271,3.603,-64.695,65.985
2026-05-20 12:19:41.681,1163121137,168681,1,0.62549,0.18677,0.75977,-13.038,-34.443,24.992
2026-05-20 12:19:41.681,1163121137,168681,2,0.88428,0.46704,0.34253,-10.351,35.595,14.626
2026-05-20 12:19:42.951,1163122407,168951,1,0.5708,-0.00269,1.02539,-19.504,11.099,12.374
2026-05-20 12:19:42.951,1163122407,168951,2,0.54858,0.66406,0.67334,21.053,22.763,-22.046
2026-05-20 12:19:42.151,1163121607,169151,1,0.37109,0.15356,0.93091,-10.527,7.473,-9.794
2026-05-20 12:19:42.151,1163121607,169151,2,0.49463,0.6665,0.4917,-0.458,2.893,-11.695
2026-05-20 12:19:42.351,1163121807,169351,1,0.47192,0.1272,1.00879,-2.107,2.198,-4.511
2026-05-20 12:19:42.351,1163121807,169351,2,0.54834,0.63721,0.49292,-1.168,0.771,-0.389
2026-05-20 12:19:45.436,1163124892,172435,1,0.42188,0.09814,1.02002,-0.519,0.466,-0.893
2026-05-20 12:19:45.436,1163124892,172435,1,0.42188,0.09814,1.02002,-0.519,0.466,-0.893
2026-05-20 12:19:45.436,1163124892,172435,2,0.52075,0.65942,0.46973,4.038,1.42,1.0
2026-05-20 12:19:53.528,1163132984,180528,1,-0.54834,0.14941,0.8811,-0.092,0.832,-5.771
2026-05-20 12:19:53.528,1163132984,180528,2,-0.01563,0.78369,0.57788,-3.275,-2.427,4.733
2026-05-20 12:19:53.728,1163133184,180728,1,-0.59888,0.13599,0.96387,-5.015,-0.908,8.244
2026-05-20 12:20:53.861,1163193317,240861,1,0.7063,-0.05151,0.854,-0.336,1.702,-0.313
2026-05-20 12:20:53.861,1163193317,240861,1,0.7063,-0.05151,0.854,-0.336,1.702,-0.313
2026-05-20 12:20:53.861,1163193317,240861,2,0.93311,0.30835,0.2356,-0.809,-0.305,0.397
2026-05-20 12:20:59.964,1163199420,245964,1,0.65942,-0.05029,0.90039,-0.84,1.626,-1.092
2026-05-20 12:20:59.964,1163199420,245964,2,0.92944,0.31079,0.23657,-1.702,0.168,0.412
2026-05-20 12:20:59.164,1163198620,246164,1,0.64844,-0.05396,0.8894,-1.466,2.13,-0.588
2026-05-20 12:20:59.164,1163198620,246164,2,0.92749,0.2998,0.2251,-0.809,0.076,0.29
2026-05-20 12:20:59.364,1163198820,246364,1,0.65405,-0.04297,0.90625,-0.366,1.45,-0.901
2026-05-20 12:20:59.364,1163198820,246364,2,0.93091,0.30762,0.24048,-1.977,0.588,0.855
2026-05-20 12:20:59.564,1163199020,246564,1,0.65088,-0.05566,0.89355,-0.389,1.511,-0.649
2026-05-20 12:20:59.564,1163199020,246564,2,0.93433,0.30566,0.23364,-0.847,-0.183,0.687
2026-05-20 12:20:59.764,1163199220,246764,1,0.64258,-0.03857,0.89087,-0.145,1.794,-0.496
2026-05-20 12:20:59.764,1163199220,246764,2,0.92065,0.32813,0.24805,-1.435,0.519,0.244
2026-05-20 12:21:03.033,1163202489,250032,1,0.62915,-0.04028,0.91724,-0.534,2.046,-0.466
2026-05-20 12:21:03.033,1163202489,250032,2,0.92358,0.33057,0.24902,-1.397,0.924,0.321
2026-05-20 12:21:03.232,1163202688,250232,1,0.6377,-0.03857,0.90918,-0.71,0.84,-0.031
2026-05-20 12:21:03.232,1163202688,250232,2,0.9165,0.32715,0.24561,-1.412,1.832,0.725
2026-05-20 12:21:03.432,1163202888,250432,1,0.63696,-0.03882,0.92188,-0.229,1.061,0.359
2026-05-20 12:21:03.432,1163202888,250432,2,0.93018,0.32495,0.26367,-1.71,1.046,1.359
2026-05-20 12:21:03.632,1163203088,250632,1,0.63672,-0.05005,0.91357,1.397,1.321,1.58
2026-05-20 12:21:03.632,1163203088,250632,2,0.90356,0.34033,0.25732,4.496,1.252,1.115
2026-05-20 12:21:03.832,1163203288,250832,1,0.63184,-0.04443,0.90991,1.588,1.473,2.344
2026-05-20 12:21:03.832,1163203288,250832,2,0.91504,0.32837,0.2522,1.29,-0.45,1.527
2026-05-20 12:21:04.032,1163203488,251032,1,0.6416,-0.04224,0.90015,-0.13,0.107,-1.504
2026-05-20 12:21:04.032,1163203488,251032,2,0.92651,0.33154,0.23022,-0.015,-1.931,0.16
2026-05-20 12:21:04.232,1163203688,251232,1,0.64868,-0.0293,0.89648,-1.038,0.863,-4.832
2026-05-20 12:21:04.232,1163203688,251232,2,0.93018,0.3103,0.25024,-5.305,3.924,-6.366
2026-05-20 12:21:07.993,1163207449,253993,1,0.5979,-0.07153,0.8877,6.878,9.962,2.153
2026-05-20 12:21:07.993,1163207449,253993,2,0.8855,0.31982,0.28516,1.069,6.824,-11.878
2026-05-20 12:21:10.964,1163210420,256964,1,0.60645,0.04004,0.94287,-3.435,0.275,-2.038
2026-05-20 12:21:10.964,1163210420,256964,2,0.63037,0.31519,0.57861,-40.328,62.832,-58.969
2026-05-20 12:21:16.086,1163215542,263086,1,-0.50879,0.01318,0.95605,-19.191,20.954,-9.137
2026-05-20 12:21:16.086,1163215542,263086,2,-0.20752,0.69409,0.8728,-14.863,-20.588,31.298
2026-05-20 12:21:16.286,1163215742,263286,1,-0.59082,0.00635,0.97168,-4.641,6.427,-2.588
2026-05-20 12:21:16.286,1163215742,263286,2,-0.30811,0.56055,0.73779,-6.84,-3.076,1.71
2026-05-20 12:21:16.486,1163215942,263486,1,-0.48169,0.01636,0.89624,13.45,-10.267,2.962
2026-05-20 12:21:16.486,1163215942,263486,2,-0.27661,0.51855,0.63208,4.718,0.053,4.534
2026-05-20 12:21:19.248,1163218704,266247,1,0.73047,-0.17871,0.82202,-0.855,-0.84,-0.763
2026-05-20 12:21:19.248,1163218704,266247,2,0.90942,0.22852,0.33716,-2.023,-3.641,2.29
2026-05-20 12:21:19.447,1163218903,266447,1,0.74243,-0.18213,0.81104,-1.496,-2.122,-1.214
2026-05-20 12:21:19.447,1163218903,266447,2,0.93457,0.22217,0.3125,1.779,-5.221,2.427
2026-05-20 12:21:19.647,1163219103,266647,1,0.75488,-0.17358,0.78467,0.618,-1.84,-0.137
2026-05-20 12:21:19.647,1163219103,266647,2,0.94873,0.15039,0.30078,0.321,-1.939,0.427
2026-05-20 12:21:22.299,1163221755,269299,1,0.76001,-0.24585,0.78125,0.267,0.427,-1.565
2026-05-20 12:21:22.299,1163221755,269299,2,0.95215,0.15308,0.28638,-2.374,-2.076,0.183
2026-05-20 12:21:22.499,1163221955,269499,1,0.73267,-0.21606,0.78735,2.573,-0.298,-2.122
2026-05-20 12:21:22.499,1163221955,269499,2,0.94336,0.11597,0.31421,-2.611,3.405,0.664
2026-05-20 12:21:22.699,1163222155,269699,1,0.74951,-0.23389,0.77661,-4.023,-4.649,1.069
2026-05-20 12:21:22.699,1163222155,269699,2,0.9502,0.12305,0.30664,-3.565,-0.237,3.328
2026-05-20 12:21:22.899,1163222355,269899,1,0.76733,-0.26563,0.75464,2.916,1.802,1.023
2026-05-20 12:21:22.899,1163222355,269899,2,0.95459,0.12231,0.29565,0.756,0.328,-0.008
2026-05-20 12:21:23.099,1163222555,270099,1,0.74902,-0.21704,0.76489,15.214,7.779,3.534
2026-05-20 12:21:23.099,1163222555,270099,2,0.94849,0.14795,0.29077,-0.786,0.863,-2.947
2026-05-20 12:21:23.336,1163222792,270336,1,0.74268,-0.18726,0.79712,5.26,11.824,-2.244
2026-05-20 12:21:23.336,1163222792,270336,2,0.95313,0.13574,0.30713,2.809,0.206,-3.099
2026-05-20 12:21:23.536,1163222992,270536,1,0.71484,-0.15845,0.86328,14.229,5.214,7.168
2026-05-20 12:21:23.536,1163222992,270536,2,0.95288,0.19385,0.27588,4.916,3.878,-1.786
2026-05-20 12:21:23.736,1163223192,270736,1,0.70044,-0.15771,0.85205,2.42,5.565,1.481
2026-05-20 12:21:23.736,1163223192,270736,2,0.92285,0.19458,0.30981,1.397,1.366,-1.557
2026-05-20 12:21:24.936,1163224392,270936,1,0.6416,-0.15454,0.91211,2.756,-3.45,-5.282
2026-05-20 12:21:24.936,1163224392,270936,2,0.95605,0.12939,0.34497,11.87,-11.298,3.0
2026-05-20 12:21:24.136,1163223592,271136,1,0.72046,-0.03906,0.81958,12.962,-1.611,0.069
2026-05-20 12:21:24.136,1163223592,271136,2,0.93115,0.18872,0.29126,13.374,3.45,-8.855
2026-05-20 12:21:24.336,1163223792,271336,1,0.70581,-0.12134,0.85693,13.466,4.618,-4.603
2026-05-20 12:21:24.336,1163223792,271336,2,0.96729,0.26245,0.26904,-18.267,1.168,-2.328
2026-05-20 12:21:24.536,1163223992,271536,1,0.69751,-0.03198,0.85449,9.092,3.221,-0.313
2026-05-20 12:21:24.536,1163223992,271536,2,0.927,0.26538,0.27002,2.985,-3.344,-2.672
2026-05-20 12:21:24.736,1163224192,271736,1,0.66431,-0.05249,0.85913,-8.328,1.588,-2.771
2026-05-20 12:21:24.736,1163224192,271736,2,0.271,0.6958,0.59009,3.679,-4.031,-6.015
2026-05-20 12:21:27.471,1163226927,274471,1,-0.15161,0.10767,1.06543,1.893,-3.519,-7.305
2026-05-20 12:21:27.471,1163226927,274471,2,-0.34546,0.55981,0.67554,-3.84,0.015,9.443
2026-05-20 12:21:30.406,1163229862,277406,1,-0.58105,-0.05811,0.85889,-0.389,-2.595,5.382
2026-05-20 12:21:30.406,1163229862,277406,2,0.90601,0.34277,0.29028,-8.397,-2.534,5.328
2026-05-20 12:21:33.679,1163233135,280679,1,0.79541,-0.1377,0.70557,-6.031,19.473,2.565
2026-05-20 12:21:33.679,1163233135,280679,2,0.88403,0.27197,0.34888,-7.053,-3.901,1.504
2026-05-20 12:21:33.879,1163233335,280879,1,0.77686,-0.17212,0.77222,1.198,4.29,-3.954
2026-05-20 12:21:33.879,1163233335,280879,2,0.93213,0.3064,0.30566,-1.725,-2.42,-3.473
2026-05-20 12:21:34.079,1163233535,281079,1,0.75342,-0.05029,0.81665,-19.885,-3.489,4.168
2026-05-20 12:21:34.079,1163233535,281079,2,0.92798,0.30859,0.25708,1.672,-2.71,5.275
2026-05-20 12:21:34.300,1163233756,281300,1,0.83765,-0.09082,0.70728,-7.794,-1.145,-3.45
2026-05-20 12:21:34.300,1163233756,281300,2,0.92554,0.27466,0.25586,-2.382,6.817,2.16
2026-05-20 12:21:34.500,1163233956,281500,1,0.85425,-0.09619,0.75806,-10.137,-7.42,-6.87
2026-05-20 12:21:34.500,1163233956,281500,2,0.93848,0.31299,0.32544,-17.267,2.931,7.786
2026-05-20 12:21:34.700,1163234156,281700,1,0.76587,-0.17383,0.7478,-62.053,-0.031,-19.725
2026-05-20 12:21:34.700,1163234156,281700,2,0.87524,0.15552,0.38965,-29.954,-4.053,14.473
2026-05-20 12:21:34.923,1163234379,281923,1,0.84082,-0.26538,0.62207,6.885,-25.237,11.427
2026-05-20 12:21:34.923,1163234379,281923,2,1.01099,0.14014,0.2583,20.115,-14.649,-3.282
2026-05-20 12:21:35.123,1163234579,282123,1,0.58496,-0.55591,0.75464,14.252,-34.511,-21.397
2026-05-20 12:21:35.123,1163234579,282123,2,0.979,0.26343,0.24976,3.595,2.046,20.015
2026-05-20 12:21:35.323,1163234779,282323,1,0.91089,-0.27881,0.56836,-14.771,19.145,-19.702
2026-05-20 12:21:35.323,1163234779,282323,2,0.9751,0.11646,0.28418,-24.145,10.496,0.794
2026-05-20 12:21:35.523,1163234979,282523,1,0.86694,-0.25488,0.64795,-24.771,16.878,-18.061
2026-05-20 12:21:35.523,1163234979,282523,2,0.94653,0.11279,0.36108,-8.672,1.527,-3.046
2026-05-20 12:21:35.723,1163235179,282723,1,0.8252,-0.25049,0.66089,15.634,12.771,3.061
2026-05-20 12:21:35.723,1163235179,282723,2,0.42236,0.67969,0.55151,-8.534,15.435,-11.656
2026-05-20 12:21:38.698,1163238154,285698,1,0.10547,0.03564,1.1814,-2.221,17.527,4.756
2026-05-20 12:21:38.698,1163238154,285698,2,0.39307,0.7063,0.50098,-7.954,7.649,-4.817
2026-05-20 12:21:38.898,1163238354,285898,1,0.0957,-0.01318,1.19189,4.794,-29.977,6.137
2026-05-20 12:21:38.898,1163238354,285898,2,0.41309,0.67236,0.51001,-1.084,-14.641,13.092
2026-05-20 12:21:39.098,1163238554,286098,1,0.24902,0.00415,1.0166,-2.321,-33.206,-11.382
2026-05-20 12:21:39.098,1163238554,286098,2,0.47314,0.62256,0.5769,8.55,-9.046,11.206
2026-05-20 12:21:42.189,1163241645,289189,1,-0.21582,-0.03345,1.01367,11.679,-28.939,-10.16
2026-05-20 12:21:42.189,1163241645,289189,2,0.26025,0.71387,0.58911,0.473,-23.779,8.374
2026-05-20 12:21:42.389,1163241845,289389,1,-0.11401,-0.0188,1.06689,6.641,-14.672,-16.412
2026-05-20 12:21:42.389,1163241845,289389,2,0.33179,0.69287,0.59033,0.496,-22.267,5.412
2026-05-20 12:21:42.589,1163242045,289589,1,-0.04297,0.03394,1.12305,-0.718,-14.191,-21.962
2026-05-20 12:21:42.589,1163242045,289589,2,0.43188,0.67188,0.56641,-6.885,-23.206,5.649
2026-05-20 12:21:42.789,1163242245,289789,1,0.01538,-0.03613,1.24756,-12.267,-43.824,-22.168
2026-05-20 12:21:42.789,1163242245,289789,2,0.50391,0.65796,0.54736,-8.137,-34.397,12.55
2026-05-20 12:21:43.989,1163243445,289989,1,0.19873,-0.00073,1.10327,-25.58,-72.282,-38.481
2026-05-20 12:21:43.989,1163243445,289989,2,0.70874,0.46484,0.43726,-37.695,-57.733,36.962
2026-05-20 12:21:43.189,1163242645,290189,1,0.4873,-0.09082,0.86182,-15.794,-54.74,-33.45
2026-05-20 12:21:43.189,1163242645,290189,2,0.79639,0.40845,0.40381,-23.427,-39.641,15.183
2026-05-20 12:21:43.389,1163242845,290389,1,0.62354,-0.08618,0.86743,-5.573,-13.458,-15.527
2026-05-20 12:21:43.389,1163242845,290389,2,0.83325,0.37085,0.40845,-10.061,-16.313,3.496
2026-05-20 12:21:43.589,1163243045,290589,1,0.625,-0.08301,0.85034,24.305,18.13,11.45
2026-05-20 12:21:43.589,1163243045,290589,2,0.89429,0.33838,0.25928,-11.878,7.443,-13.084
2026-05-20 12:21:46.340,1163245796,293340,1,0.73779,0.03491,0.79858,-9.527,7.435,-7.771
2026-05-20 12:21:46.340,1163245796,293340,2,0.84375,0.34424,0.33496,17.252,8.031,-9.656
2026-05-20 12:21:46.540,1163245996,293540,1,0.76367,0.08447,0.85181,18.916,-7.817,-1.771
2026-05-20 12:21:46.540,1163245996,293540,2,0.86597,0.39307,0.21558,18.336,1.237,2.061
2026-05-20 12:21:46.740,1163246196,293740,1,0.77686,0.04102,0.82544,-15.489,-30.84,3.412
2026-05-20 12:21:46.740,1163246196,293740,2,0.96582,0.34399,0.22485,-8.336,-20.29,28.031
2026-05-20 12:21:47.940,1163247396,293940,1,0.81763,-0.03442,0.62036,-0.58,-5.496,1.183
2026-05-20 12:21:47.940,1163247396,293940,2,1.00659,0.33008,0.13989,3.969,2.641,7.641
2026-05-20 12:21:47.140,1163246596,294140,1,0.86499,0.04688,0.67773,9.679,12.076,0.74
2026-05-20 12:21:47.140,1163246596,294140,2,0.95605,0.32715,0.16479,-11.031,8.954,4.244
2026-05-20 12:21:47.340,1163246796,294340,1,0.87451,0.09888,0.74609,7.489,23.466,10.809
2026-05-20 12:21:47.340,1163246796,294340,2,0.70898,0.33813,0.46582,-8.908,49.771,-38.176
2026-05-20 12:21:47.847,1163247303,294847,1,0.38257,-0.26807,1.09058,-14.176,51.733,-6.176
2026-05-20 12:21:47.847,1163247303,294847,2,0.70215,0.37109,0.59619,11.336,29.634,-37.931
2026-05-20 12:21:48.133,1163247589,295133,1,0.14038,-0.13232,1.20093,10.74,21.786,-1.282
2026-05-20 12:21:48.133,1163247589,295133,2,0.5188,0.64014,0.62231,9.473,0.847,-4.473
2026-05-20 12:21:48.333,1163247789,295333,1,0.21362,-0.05713,1.33936,5.29,-20.206,-2.29
2026-05-20 12:21:48.333,1163247789,295333,2,0.52368,0.62769,0.54028,3.885,-21.023,25.489
2026-05-20 12:21:48.533,1163247989,295533,1,0.33154,-0.14038,1.00293,-2.702,-86.008,-14.313
2026-05-20 12:21:48.533,1163247989,295533,2,0.48901,0.32642,0.27319,14.198,-57.389,49.321
2026-05-20 12:21:48.733,1163248189,295733,1,0.53174,-0.06348,0.60083,28.206,-102.718,-11.473
2026-05-20 12:21:48.733,1163248189,295733,2,0.86035,0.35376,0.23584,-10.061,-34.29,38.252
2026-05-20 12:21:49.933,1163249389,295933,1,0.93823,-0.02002,0.51001,-11.031,-40.794,0.168
2026-05-20 12:21:49.933,1163249389,295933,2,1.01147,0.25195,0.20581,-5.145,-16.817,19.885
2026-05-20 12:21:49.133,1163248589,296133,1,0.88916,-0.02783,0.58521,1.046,1.779,13.183
2026-05-20 12:21:49.133,1163248589,296133,2,0.96631,0.21094,0.17505,-2.763,8.229,5.824
2026-05-20 12:21:49.333,1163248789,296333,1,0.9187,-0.07666,0.60669,-1.298,12.305,0.634
2026-05-20 12:21:49.333,1163248789,296333,2,0.99194,0.21143,0.17188,-3.282,5.389,-3.611
2026-05-20 12:21:49.533,1163248989,296533,1,0.8396,-0.08008,0.63916,-4.901,34.45,-6.954
2026-05-20 12:21:49.533,1163248989,296533,2,0.88818,0.30127,0.24634,-16.725,19.344,-28.328
2026-05-20 12:21:49.740,1163249196,296740,1,0.77539,-0.10693,0.74731,-16.977,51.595,-14.565
2026-05-20 12:21:49.740,1163249196,296740,2,0.87671,0.32056,0.2666,0.84,25.748,-33.603
2026-05-20 12:21:50.940,1163250396,296940,1,0.43188,-0.01587,0.75293,-0.359,36.046,-9.901
2026-05-20 12:21:50.940,1163250396,296940,2,0.60938,0.36011,0.27393,-18.664,10.496,-23.763
2026-05-20 12:21:50.140,1163249596,297140,1,0.57202,-0.12451,0.79443,-11.382,25.557,-14.939
2026-05-20 12:21:50.140,1163249596,297140,2,0.7229,0.53638,0.39063,-0.427,11.359,-0.29
2026-05-20 12:21:50.398,1163249854,297398,1,0.52344,-0.03735,1.04004,4.763,-5.687,-0.366
2026-05-20 12:21:50.398,1163249854,297398,2,0.7522,0.45898,0.37329,7.74,-7.641,13.702
2026-05-20 12:21:50.598,1163250054,297598,1,0.68115,-0.06543,1.09888,6.634,-35.13,14.321
2026-05-20 12:21:50.598,1163250054,297598,2,1.00659,0.53833,0.36499,1.008,-35.458,36.458
2026-05-20 12:21:50.798,1163250254,297798,1,0.99072,0.04565,0.88037,9.687,-17.191,-0.198
2026-05-20 12:21:50.798,1163250254,297798,2,0.89087,0.42822,0.17261,-6.832,7.473,8.137
2026-05-20 12:21:51.042,1163250498,298042,1,0.74585,-0.0144,0.80298,-6.55,-9.954,3.374
2026-05-20 12:21:51.042,1163250498,298042,2,0.8999,0.38916,0.2522,-10.977,-0.206,0.847
2026-05-20 12:21:51.242,1163250698,298242,1,0.86011,-0.13647,0.69678,-42.847,3.962,-13.847
2026-05-20 12:21:51.242,1163250698,298242,2,0.97241,0.20386,0.27124,-17.969,0.962,1.84
2026-05-20 12:21:51.442,1163250898,298442,1,0.77856,-0.07666,0.76685,-6.137,1.649,4.878
2026-05-20 12:21:51.442,1163250898,298442,2,0.9856,0.23193,0.23853,-6.282,3.672,13.626
2026-05-20 12:21:51.642,1163251098,298642,1,0.78516,-0.16895,0.7793,-14.87,4.336,1.321
2026-05-20 12:21:51.642,1163251098,298642,2,0.9436,0.2561,0.23462,-7.756,3.725,1.237
2026-05-20 12:21:51.842,1163251298,298842,1,0.74561,-0.17798,0.79053,-9.557,6.977,-5.168
2026-05-20 12:21:51.842,1163251298,298842,2,0.97192,0.20825,0.27759,-9.748,2.939,-1.878
2026-05-20 12:21:52.042,1163251498,299042,1,0.74023,-0.16772,0.81348,6.13,2.924,-0.076
2026-05-20 12:21:52.042,1163251498,299042,2,0.92578,0.22461,0.28931,1.71,2.023,0.802
2026-05-20 12:21:52.242,1163251698,299242,1,0.73096,-0.15063,0.81885,7.656,2.366,-1.191
2026-05-20 12:21:52.242,1163251698,299242,2,0.9397,0.21851,0.29565,-4.183,-0.969,1.794
2026-05-20 12:21:57.312,1163256768,304312,1,0.42065,-0.12988,1.0376,-1.985,51.939,-18.74
2026-05-20 12:21:57.312,1163256768,304312,2,0.74585,0.39453,0.48511,-15.481,39.664,-29.466
2026-05-20 12:21:57.512,1163256968,304512,1,0.34351,-0.16309,1.12256,-20.84,10.687,-6.412
2026-05-20 12:21:57.512,1163256968,304512,2,0.61304,0.56836,0.59229,21.748,10.885,-18.893
2026-05-20 12:21:57.712,1163257168,304712,1,0.32153,-0.05151,1.24731,19.267,3.695,-1.107
2026-05-20 12:21:57.712,1163257168,304712,2,0.65161,0.63574,0.58716,15.473,3.924,-5.664
2026-05-20 12:21:57.912,1163257368,304912,1,0.26367,-0.01538,1.0791,4.405,-13.008,-13.053
2026-05-20 12:21:57.912,1163257368,304912,2,0.33691,0.42627,0.34204,31.893,-22.603,23.855
2026-05-20 12:21:58.112,1163257568,305112,1,0.37549,0.01758,0.85034,22.153,-86.649,-15.489
2026-05-20 12:21:58.112,1163257568,305112,2,0.88989,0.58008,0.05322,9.893,-53.412,64.366
2026-05-20 12:21:58.312,1163257768,305312,1,0.73682,0.09961,0.80786,-29.099,-52.763,0.382
2026-05-20 12:21:58.312,1163257768,305312,2,0.96606,0.31079,0.26978,-12.26,-16.099,22.718
2026-05-20 12:21:58.533,1163257989,305532,1,0.81836,-0.08154,0.75146,-7.771,-21.603,2.916
2026-05-20 12:21:58.533,1163257989,305532,2,1.08325,0.22876,0.13379,-4.977,-8.366,18.122
2026-05-20 12:21:58.732,1163258188,305732,1,0.84351,-0.06445,0.58813,18.0,16.916,-7.13
2026-05-20 12:21:58.732,1163258188,305732,2,0.90161,0.34277,0.12988,8.496,20.969,-23.053
2026-05-20 12:21:59.932,1163259388,305932,1,0.53516,-0.05664,0.65234,-7.122,34.237,-10.504
2026-05-20 12:21:59.932,1163259388,305932,2,0.86792,0.39844,0.01489,-17.527,-6.412,5.221
2026-05-20 12:21:59.155,1163258611,306155,1,0.62671,-0.20215,0.95142,-22.794,17.573,-26.328
2026-05-20 12:21:59.155,1163258611,306155,2,0.92505,0.28149,0.25562,-11.954,-17.504,25.611
2026-05-20 12:21:59.355,1163258811,306355,1,0.7207,-0.09058,0.82593,-7.519,-34.603,-4.099
2026-05-20 12:21:59.355,1163258811,306355,2,0.95142,0.25854,0.16724,-5.916,-21.244,22.344
2026-05-20 12:21:59.555,1163259011,306555,1,0.74438,-0.0835,0.79858,-25.206,-3.84,-38.382
2026-05-20 12:21:59.555,1163259011,306555,2,0.8479,0.14917,0.29907,-47.321,-9.908,-0.992
2026-05-20 12:22:02.311,1163261767,309311,1,0.91406,-0.01929,0.67261,60.405,19.031,47.405
2026-05-20 12:22:02.311,1163261767,309311,2,1.01343,0.14575,-0.06714,52.084,13.588,-2.389
2026-05-20 12:22:02.511,1163261967,309511,1,0.74731,-0.0957,0.76733,-4.382,22.351,9.069
2026-05-20 12:22:02.511,1163261967,309511,2,0.97461,0.15405,0.2771,7.695,-8.786,1.84
2026-05-20 12:22:05.424,1163264880,312424,1,0.75879,-0.16919,0.78735,4.29,-5.527,5.405
2026-05-20 12:22:05.424,1163264880,312424,2,0.96753,0.19434,0.23633,4.603,-0.626,2.771
2026-05-20 12:22:05.624,1163265080,312624,1,0.75146,-0.17236,0.81787,0.511,-3.534,0.252
2026-05-20 12:22:05.624,1163265080,312624,2,0.95728,0.15186,0.24316,-1.863,-3.542,4.74
2026-05-20 12:22:05.824,1163265280,312824,1,0.7644,-0.18701,0.7749,-0.061,-8.183,-1.244
2026-05-20 12:22:05.824,1163265280,312824,2,0.979,0.13843,0.23413,-0.702,-5.038,6.214
2026-05-20 12:22:06.024,1163265480,313024,1,0.7998,-0.15942,0.73364,0.924,-6.351,0.611
2026-05-20 12:22:06.024,1163265480,313024,2,0.97949,0.11108,0.22217,2.878,1.664,5.656
2026-05-20 12:22:06.224,1163265680,313224,1,0.89844,-0.0769,0.75659,4.756,9.26,12.656
2026-05-20 12:22:06.224,1163265680,313224,2,0.93555,0.28369,0.17993,-4.58,4.137,1.656
2026-05-20 12:22:09.978,1163269434,315978,1,0.70068,-0.15063,0.87866,-8.412,-12.435,-7.061
2026-05-20 12:22:09.978,1163269434,315978,2,0.94507,0.22339,0.20776,-5.206,-12.725,7.557
2026-05-20 12:22:09.178,1163268634,316178,1,0.7666,-0.07495,0.75269,-35.061,-25.71,-22.733
2026-05-20 12:22:09.178,1163268634,316178,2,0.98267,0.13818,0.20215,-0.885,0.275,0.939
2026-05-20 12:22:12.012,1163271468,319012,1,0.76782,-0.11865,0.78467,2.496,2.565,1.908
2026-05-20 12:22:12.012,1163271468,319012,2,0.50439,0.69629,0.47803,-2.695,8.679,-4.031
2026-05-20 12:22:15.230,1163274686,322230,1,0.16626,-0.02271,1.12915,-9.122,-18.13,3.985
2026-05-20 12:22:15.230,1163274686,322230,2,0.41138,0.69092,0.52173,2.649,-0.809,-4.023
2026-05-20 12:22:15.430,1163274886,322430,1,0.33398,0.02393,0.99878,11.435,-37.366,8.496
2026-05-20 12:22:15.430,1163274886,322430,2,0.43848,0.64575,0.52466,-5.069,-0.641,-8.824
2026-05-20 12:22:15.630,1163275086,322630,1,0.4458,-0.09937,1.0542,-13.504,-27.214,6.206
2026-05-20 12:22:15.630,1163275086,322630,2,0.45996,0.71216,0.55103,8.115,-26.779,33.16
2026-05-20 12:22:16.931,1163276387,322931,1,0.4563,-0.09473,1.07861,2.153,-50.496,6.031
2026-05-20 12:22:16.931,1163276387,322931,2,0.58398,0.61206,0.44214,2.328,-40.267,56.733
2026-05-20 12:22:16.131,1163275587,323131,1,0.55762,-0.03418,0.93408,-0.855,-72.305,-7.458
2026-05-20 12:22:16.131,1163275587,323131,2,0.70508,0.49292,0.32739,-14.466,-45.534,63.29
2026-05-20 12:22:16.331,1163275787,323331,1,0.83765,0.0564,0.59692,-30.389,-52.252,-13.519
2026-05-20 12:22:16.331,1163275787,323331,2,0.91431,0.17456,0.2019,-67.931,-52.595,70.924
2026-05-20 12:22:16.331,1163275787,323331,2,0.91431,0.17456,0.2019,-67.931,-52.595,70.924
2026-05-20 12:22:21.430,1163280886,328430,1,-0.07153,0.09961,1.07764,1.695,0.656,1.702
2026-05-20 12:22:21.430,1163280886,328430,2,0.34302,0.77295,0.49121,-3.344,0.863,0.55
2026-05-20 12:22:21.630,1163281086,328630,1,-0.06958,0.10132,1.07397,3.718,2.542,0.588
2026-05-20 12:22:21.630,1163281086,328630,2,0.34375,0.76343,0.49268,-0.107,0.802,1.748
2026-05-20 12:22:22.948,1163282404,328948,1,-0.08716,0.15186,1.01367,4.198,13.656,3.221
2026-05-20 12:22:22.948,1163282404,328948,2,0.35449,0.78638,0.45679,5.626,7.229,-2.794
2026-05-20 12:22:22.148,1163281604,329148,1,-0.13721,0.13379,1.08325,-5.015,8.756,3.573
2026-05-20 12:22:22.148,1163281604,329148,2,0.30566,0.7688,0.47168,-11.031,-0.786,-4.977
2026-05-20 12:22:22.419,1163281875,329419,1,-0.13135,0.08716,0.79761,-1.191,-36.458,-6.435
2026-05-20 12:22:22.419,1163281875,329419,2,0.34277,0.53955,0.35864,5.573,-35.328,35.328
2026-05-20 12:22:22.619,1163282075,329619,1,0.02637,0.09155,0.94336,-10.489,-51.412,5.412
2026-05-20 12:22:22.619,1163282075,329619,2,0.50513,0.61084,0.4126,1.443,-32.198,41.176
2026-05-20 12:22:22.819,1163282275,329819,1,0.20459,0.10962,1.19629,-15.076,-59.893,7.939
2026-05-20 12:22:22.819,1163282275,329819,2,0.80005,0.60889,0.50659,-19.336,-41.481,50.229
2026-05-20 12:22:23.019,1163282475,330019,1,0.52393,-0.09741,1.19165,-7.198,-68.901,-1.191
2026-05-20 12:22:23.019,1163282475,330019,2,1.20605,0.49219,0.55298,24.786,-13.344,32.16
2026-05-20 12:22:23.219,1163282675,330219,1,0.58496,-0.05957,0.95288,0.427,-9.153,2.206
2026-05-20 12:22:23.219,1163282675,330219,2,0.76587,0.35889,0.23169,-9.573,10.573,-0.282
2026-05-20 12:22:23.419,1163282875,330419,1,0.6062,0.01416,0.93701,7.015,-13.725,4.115
2026-05-20 12:22:23.419,1163282875,330419,2,0.89673,0.45532,0.26392,11.824,-9.053,11.466
2026-05-20 12:22:23.619,1163283075,330619,1,0.59521,0.05957,0.88184,-3.527,-13.626,-0.183
2026-05-20 12:22:23.619,1163283075,330619,2,0.8396,0.45654,0.23877,-11.519,-0.107,0.137
2026-05-20 12:22:23.819,1163283275,330819,1,0.69067,-0.06665,0.88721,-17.733,-22.664,4.702
2026-05-20 12:22:23.819,1163283275,330819,2,0.93018,0.46533,0.30981,8.481,-2.565,14.458
2026-05-20 12:22:24.259,1163283715,331259,1,0.8418,-0.11572,0.75146,14.458,12.58,13.786
2026-05-20 12:22:24.259,1163283715,331259,2,0.92212,0.43188,0.23145,-3.244,-8.809,2.084
2026-05-20 12:22:24.459,1163283915,331459,1,0.91797,-0.25415,0.87891,-4.725,43.855,-16.672
