datetime,epoch_ms,ts_millis,mpu_id,ax,ay,az,gx,gy,gz
2026-05-20 12:36:41.712,1164141168,7712,1,0.43848,-0.77295,-0.39551,-10.931,-3.046,-6.061
2026-05-20 12:36:41.712,1164141168,7712,2,-0.10474,-0.9873,0.15112,-0.832,-1.962,-2.26
2026-05-20 12:36:41.917,1164141373,7917,1,0.42456,-0.7688,-0.44922,-0.641,10.359,4.42
2026-05-20 12:36:41.917,1164141373,7917,2,-0.12939,-1.00854,0.05664,9.802,16.023,-10.412
2026-05-20 12:36:41.117,1164140573,8117,1,0.44775,-0.76489,-0.41016,-2.618,-0.695,-0.366
2026-05-20 12:36:41.117,1164140573,8117,2,-0.09937,-0.97363,0.12866,-1.542,1.824,14.221
2026-05-20 12:36:41.317,1164140773,8317,1,0.59399,-0.74829,-0.37427,-15.504,-6.389,-12.725
2026-05-20 12:36:41.317,1164140773,8317,2,-0.24268,-0.95288,0.18384,-3.221,1.397,6.229
2026-05-20 12:36:42.517,1164141973,8517,1,0.43945,-0.97485,-0.35669,34.863,1.893,10.214
2026-05-20 12:36:42.517,1164141973,8517,2,-0.09717,-0.95142,0.11157,-7.489,2.336,-11.29
2026-05-20 12:36:42.717,1164142173,8717,1,0.44727,-0.79565,-0.40356,-5.008,-5.16,2.901
2026-05-20 12:36:42.717,1164142173,8717,2,-0.12671,-0.96753,0.15601,-2.611,1.656,-4.374
2026-05-20 12:36:42.917,1164142373,8917,1,0.43457,-0.78955,-0.40601,-7.504,0.412,-6.42
2026-05-20 12:36:42.917,1164142373,8917,2,-0.13721,-0.96826,0.16553,-0.84,4.74,-1.206
2026-05-20 12:36:42.117,1164141573,9117,1,0.44287,-0.83423,-0.39966,1.031,2.183,2.435
2026-05-20 12:36:42.117,1164141573,9117,2,-0.13257,-0.97046,0.15283,-3.855,0.16,-1.626
2026-05-20 12:36:42.317,1164141773,9317,1,0.45166,-0.77856,-0.43066,-2.374,5.802,-3.977
2026-05-20 12:36:42.317,1164141773,9317,2,-0.13086,-0.96582,0.16431,-5.282,-0.031,-1.481
2026-05-20 12:36:43.517,1164142973,9517,1,0.42822,-0.83521,-0.42188,-1.344,9.298,-4.397
2026-05-20 12:36:43.517,1164142973,9517,2,-0.13574,-0.96875,0.14722,-3.817,-0.916,7.0
2026-05-20 12:36:43.717,1164143173,9717,1,0.43994,-0.80127,-0.41284,-2.237,0.824,-1.267
2026-05-20 12:36:43.717,1164143173,9717,2,-0.12695,-0.97412,0.1665,0.939,2.511,-0.069
2026-05-20 12:36:43.917,1164143373,9917,1,0.42285,-0.82349,-0.41479,-5.58,-0.779,3.137
2026-05-20 12:36:43.917,1164143373,9917,2,-0.14771,-0.98584,0.15649,9.824,4.771,-17.466
2026-05-20 12:36:43.117,1164142573,10117,1,0.43164,-0.77441,-0.43115,-7.656,4.153,-5.695
2026-05-20 12:36:43.117,1164142573,10117,2,-0.17896,-0.98779,0.19971,-15.267,-6.214,-2.718
2026-05-20 12:36:43.317,1164142773,10317,1,0.47607,-0.72705,-0.43701,-6.756,-4.534,-12.26
2026-05-20 12:36:43.317,1164142773,10317,2,-0.12793,-1.00098,0.11572,-20.321,-5.069,4.534
2026-05-20 12:36:44.517,1164143973,10517,1,0.48242,-0.75732,-0.51929,-9.641,-5.931,-9.336
2026-05-20 12:36:44.517,1164143973,10517,2,-0.01831,-0.95898,-0.06274,3.702,7.87,2.366
2026-05-20 12:36:44.735,1164144191,10735,1,0.48193,-0.68726,-0.53662,-16.763,3.519,-14.42
2026-05-20 12:36:44.735,1164144191,10735,2,-0.20752,-0.95581,-0.08179,-7.786,7.87,5.931
2026-05-20 12:36:44.935,1164144391,10935,1,0.48535,-0.67407,-0.53882,10.718,-0.237,19.305
2026-05-20 12:36:44.935,1164144391,10935,2,-0.20581,-1.00903,0.02686,4.382,-1.229,-8.573
2026-05-20 12:36:44.135,1164143591,11135,1,0.47632,-0.67749,-0.61768,16.977,24.87,5.954
2026-05-20 12:36:44.135,1164143591,11135,2,-0.09961,-0.99609,-0.00439,0.588,-4.924,0.481
2026-05-20 12:36:45.399,1164144855,11399,1,0.51636,-0.70605,-0.60815,1.145,5.641,-20.008
2026-05-20 12:36:45.399,1164144855,11399,2,-0.17603,-0.99756,-0.01636,-24.931,-4.878,5.282
2026-05-20 12:36:45.599,1164145055,11599,1,0.52515,-0.50293,-0.51685,-2.863,5.29,-9.191
2026-05-20 12:36:45.599,1164145055,11599,2,-0.17578,-0.98242,-0.05273,9.45,10.427,2.107
2026-05-20 12:36:45.799,1164145255,11799,1,0.51855,-0.55542,-0.58594,-7.656,4.901,-1.718
2026-05-20 12:36:45.799,1164145255,11799,2,-0.2063,-0.96216,-0.0188,-7.649,-0.725,10.16
2026-05-20 12:36:45.999,1164145455,11999,1,0.52173,-0.62646,-0.60205,11.84,6.947,5.229
2026-05-20 12:36:45.999,1164145455,11999,2,-0.20679,-0.98218,-0.0271,1.443,1.847,0.321
2026-05-20 12:36:45.199,1164144655,12199,1,0.52368,-0.64966,-0.59277,-10.046,-4.71,-15.168
2026-05-20 12:36:45.199,1164144655,12199,2,-0.19312,-0.99585,-0.05322,-11.656,4.046,8.298
2026-05-20 12:36:46.399,1164145855,12399,1,0.50952,-0.56177,-0.57642,-28.038,-10.244,-23.763
2026-05-20 12:36:46.399,1164145855,12399,2,-0.28687,-1.00171,-0.14893,-14.84,-0.031,25.962
2026-05-20 12:36:46.599,1164146055,12599,1,0.55005,-0.56714,-0.61499,13.901,13.641,18.13
2026-05-20 12:36:46.599,1164146055,12599,2,-0.19141,-0.95166,-0.12134,7.74,-1.756,2.527
2026-05-20 12:36:46.799,1164146255,12799,1,0.51465,-0.59766,-0.53149,23.214,10.672,13.435
2026-05-20 12:36:46.799,1164146255,12799,2,-0.12524,-0.96094,-0.10034,-0.756,-0.282,15.214
2026-05-20 12:36:46.081,1164145537,13081,1,0.45264,-0.60132,-0.52954,-27.794,10.519,-9.397
2026-05-20 12:36:46.081,1164145537,13081,2,-0.12378,-1.05127,0.021,9.237,-13.794,10.817
2026-05-20 12:36:46.281,1164145737,13281,1,0.53101,-0.61206,-0.49878,8.908,30.748,20.321
2026-05-20 12:36:46.281,1164145737,13281,2,-0.20654,-1.05225,0.19604,-0.466,-1.466,-9.427
2026-05-20 12:36:47.481,1164146937,13481,1,0.5083,-0.71875,-0.61768,9.534,13.145,-10.321
2026-05-20 12:36:47.481,1164146937,13481,2,-0.12158,-0.96094,0.14282,-1.473,0.916,0.664
2026-05-20 12:36:49.231,1164148687,16231,1,0.40356,-0.7583,-0.49219,-3.153,-0.824,-1.878
2026-05-20 12:36:49.231,1164148687,16231,2,-0.13184,-0.96802,0.13989,-1.397,-0.183,0.221
2026-05-20 12:36:50.454,1164149910,16454,1,0.41016,-0.75928,-0.50293,0.588,1.557,-0.344
2026-05-20 12:36:50.454,1164149910,16454,2,-0.12793,-0.97168,0.15308,-1.435,0.473,1.45
2026-05-20 12:36:50.654,1164150110,16654,1,0.41357,-0.75488,-0.48413,-0.206,1.153,-0.023
2026-05-20 12:36:50.654,1164150110,16654,2,-0.12573,-0.96924,0.15015,-1.786,0.557,0.908
2026-05-20 12:36:50.854,1164150310,16854,1,0.41382,-0.76807,-0.49756,-0.611,1.069,-1.0
2026-05-20 12:36:50.854,1164150310,16854,2,-0.12305,-0.97314,0.14893,-1.275,0.832,0.267
2026-05-20 12:36:50.054,1164149510,17054,1,0.41504,-0.75757,-0.50439,-1.015,0.336,-1.695
2026-05-20 12:36:50.054,1164149510,17054,2,-0.12915,-0.95557,0.14893,-2.611,0.511,-0.794
2026-05-20 12:36:50.254,1164149710,17254,1,0.41431,-0.74829,-0.50415,3.435,4.275,-0.198
2026-05-20 12:36:50.254,1164149710,17254,2,-0.1377,-0.9751,0.1499,-2.0,2.679,2.29
2026-05-20 12:36:51.454,1164150910,17454,1,0.40405,-0.74683,-0.49146,-1.344,3.42,-2.679
2026-05-20 12:36:51.454,1164150910,17454,2,-0.16528,-1.00879,0.23657,1.756,4.626,-4.641
2026-05-20 12:36:51.654,1164151110,17654,1,0.43091,-0.70483,-0.59961,-14.733,21.42,-0.458
2026-05-20 12:36:51.654,1164151110,17654,2,-0.07959,-0.9353,0.0188,-40.374,10.046,-6.595
2026-05-20 12:36:51.854,1164151310,17854,1,0.45801,-0.46045,-0.63599,20.542,19.275,-2.718
2026-05-20 12:36:51.854,1164151310,17854,2,-0.20483,-1.04224,-0.05493,23.748,0.29,-36.366
2026-05-20 12:36:51.054,1164150510,18054,1,0.43481,-0.66968,-0.52783,7.336,-11.626,-8.435
2026-05-20 12:36:51.054,1164150510,18054,2,-0.10962,-1.00269,0.05664,-56.939,24.626,18.458
2026-05-20 12:36:51.054,1164150510,18054,2,-0.10962,-1.00269,0.05664,-56.939,24.626,18.458
2026-05-20 12:36:56.227,1164155683,23227,1,0.91406,0.66602,0.13989,66.748,47.924,51.748
2026-05-20 12:36:56.227,1164155683,23227,2,0.6438,-0.71948,0.05957,70.13,-92.443,-14.618
2026-05-20 12:36:57.427,1164156883,23427,1,0.88452,0.35425,0.58545,-250.137,-172.786,85.099
2026-05-20 12:36:57.427,1164156883,23427,2,0.79443,-0.71338,0.11523,71.305,-55.099,-7.382
2026-05-20 12:36:57.627,1164157083,23627,1,0.83374,-0.08936,0.33618,138.672,-23.359,64.42
2026-05-20 12:36:57.627,1164157083,23627,2,0.69678,-0.58154,-0.15186,30.061,8.214,12.84
2026-05-20 12:36:57.827,1164157283,23827,1,0.92847,-0.03979,0.53027,27.504,48.046,95.565
2026-05-20 12:36:57.827,1164157283,23827,2,0.01636,-0.32349,0.87524,-2.687,0.794,-10.198
2026-05-20 12:37:00.938,1164160394,26938,1,0.66162,-0.88477,-0.04639,-7.328,-10.473,12.45
2026-05-20 12:37:00.938,1164160394,26938,2,-0.01099,-0.33154,0.91479,7.206,-10.977,-4.763
2026-05-20 12:37:00.138,1164159594,27138,1,0.41504,-0.96191,-0.06323,78.511,72.0,40.763
2026-05-20 12:37:00.138,1164159594,27138,2,0.19897,-0.31885,0.95947,-7.397,-22.962,1.328
2026-05-20 12:37:00.338,1164159794,27338,1,0.64014,-1.00366,0.08911,46.931,-43.985,-8.679
2026-05-20 12:37:00.338,1164159794,27338,2,0.11816,-0.27808,0.63672,49.412,31.305,-31.855
2026-05-20 12:37:01.538,1164160994,27538,1,0.92065,-0.73145,0.08545,48.397,-214.183,-2.641
2026-05-20 12:37:01.538,1164160994,27538,2,-0.00146,-0.08521,0.66431,1.519,-1.099,-32.061
2026-05-20 12:37:01.738,1164161194,27738,1,1.02026,-0.27783,0.04224,27.099,-22.351,-97.817
2026-05-20 12:37:01.738,1164161194,27738,2,0.07471,-0.02539,0.84668,28.71,-83.458,-13.336
2026-05-20 12:37:01.938,1164161394,27938,1,0.93164,-0.4668,0.04492,-6.397,1.672,0.885
2026-05-20 12:37:01.938,1164161394,27938,2,0.14697,-0.05151,0.98022,1.267,41.0,17.374
2026-05-20 12:37:04.327,1164163783,31327,1,-0.32715,-0.49097,0.854,-1.779,11.542,2.58
2026-05-20 12:37:04.327,1164163783,31327,2,-0.58423,-0.46826,0.59009,-1.115,1.176,0.336
2026-05-20 12:37:05.527,1164164983,31527,1,-0.43994,-0.50171,0.87329,-7.771,-4.122,0.084
2026-05-20 12:37:05.527,1164164983,31527,2,-0.57886,-0.46899,0.59766,-0.962,0.031,-0.008
2026-05-20 12:37:05.727,1164165183,31727,1,-0.41675,-0.45874,0.81616,2.107,4.099,0.42
2026-05-20 12:37:05.727,1164165183,31727,2,-0.5813,-0.46606,0.59326,-0.71,0.412,-0.267
2026-05-20 12:37:05.927,1164165383,31927,1,-0.46167,-0.479,0.88721,1.603,5.939,-7.832
2026-05-20 12:37:05.927,1164165383,31927,2,-0.58936,-0.4541,0.58887,-2.191,0.672,1.473
2026-05-20 12:37:05.127,1164164583,32127,1,-0.47046,-0.4519,0.81421,2.389,6.244,4.847
2026-05-20 12:37:05.127,1164164583,32127,2,-0.58447,-0.46655,0.58936,-1.008,0.733,-0.076
2026-05-20 12:37:05.327,1164164783,32327,1,-0.46143,-0.44922,0.81421,0.687,2.458,1.382
2026-05-20 12:37:05.327,1164164783,32327,2,-0.5813,-0.46997,0.58984,-1.267,0.191,0.527
2026-05-20 12:37:08.108,1164167564,35108,1,-0.46997,-0.44043,0.82349,0.252,0.679,-0.618
2026-05-20 12:37:08.108,1164167564,35108,2,-0.58374,-0.46606,0.59448,-1.466,0.84,0.389
2026-05-20 12:37:08.308,1164167764,35308,1,-0.4563,-0.42456,0.83105,-2.275,-0.099,-4.359
2026-05-20 12:37:08.308,1164167764,35308,2,-0.57739,-0.46338,0.59961,-1.45,0.679,0.611
2026-05-20 12:37:09.508,1164168964,35508,1,-0.4541,-0.45825,0.83618,0.267,-0.519,-5.496
2026-05-20 12:37:09.508,1164168964,35508,2,-0.58423,-0.46411,0.59448,-1.244,0.489,0.313
2026-05-20 12:37:11.220,1164170676,38220,1,-0.44678,-0.43896,0.84741,-2.244,-1.237,-1.794
2026-05-20 12:37:11.220,1164170676,38220,2,-0.58496,-0.46826,0.59863,-1.153,0.634,0.198
2026-05-20 12:37:12.420,1164171876,38420,1,-0.45776,-0.4375,0.85229,0.008,0.031,-1.122
2026-05-20 12:37:12.420,1164171876,38420,2,-0.57544,-0.46582,0.60083,-1.298,0.672,0.389
2026-05-20 12:37:12.652,1164172108,38652,1,-0.45068,-0.43237,0.84253,0.313,2.687,0.137
2026-05-20 12:37:12.652,1164172108,38652,2,-0.57349,-0.46338,0.60596,-1.672,0.779,0.176
2026-05-20 12:37:12.852,1164172308,38852,1,-0.45239,-0.44238,0.82471,-1.939,-0.267,3.282
2026-05-20 12:37:12.852,1164172308,38852,2,-0.58179,-0.47949,0.60205,-1.13,-0.198,-1.389
2026-05-20 12:37:12.118,1164171574,39118,1,-0.58203,-0.34497,0.92383,-19.191,-5.015,3.733
2026-05-20 12:37:12.118,1164171574,39118,2,-0.56787,-0.49243,0.61792,-0.84,-2.458,-6.183
2026-05-20 12:37:12.318,1164171774,39318,1,-0.34644,-0.41284,0.91919,-20.519,-38.061,-16.107
2026-05-20 12:37:12.318,1164171774,39318,2,-0.52393,-0.45239,0.67212,32.588,-33.786,-9.809
2026-05-20 12:37:13.518,1164172974,39518,1,-0.33789,-0.4646,0.88867,55.107,-21.603,22.145
2026-05-20 12:37:13.518,1164172974,39518,2,-0.64819,-0.47632,0.7981,18.748,32.206,-22.992
2026-05-20 12:37:13.718,1164173174,39718,1,-0.3501,-0.14282,1.28125,137.924,-23.847,17.878
2026-05-20 12:37:13.718,1164173174,39718,2,-0.63208,-0.66699,0.94629,128.832,145.924,-95.931
2026-05-20 12:37:13.918,1164173374,39918,1,-0.14697,0.01196,0.89478,-73.198,75.809,-4.084
2026-05-20 12:37:13.918,1164173374,39918,2,-0.88013,-0.70483,0.90259,-57.595,-119.107,-123.534
2026-05-20 12:37:19.831,1164179287,45830,1,0.52539,0.69312,0.13135,227.389,36.206,193.534
2026-05-20 12:37:19.831,1164179287,45830,2,0.57788,-1.13354,0.0686,8.137,17.374,-10.122
2026-05-20 12:37:19.030,1164178486,46030,1,0.64038,0.81689,0.20947,32.183,21.412,-4.29
2026-05-20 12:37:19.030,1164178486,46030,2,0.66455,-0.91772,-0.04028,18.878,-35.443,-32.366
2026-05-20 12:37:19.230,1164178686,46230,1,0.56787,0.79297,0.19751,1.221,10.244,3.824
2026-05-20 12:37:19.230,1164178686,46230,2,0.49219,-0.86792,0.17603,3.962,-74.84,20.344
2026-05-20 12:37:22.955,1164182411,48955,1,0.49072,0.82764,0.23193,-11.076,-17.092,6.137
2026-05-20 12:37:22.955,1164182411,48955,2,0.44434,-0.54126,-0.15747,-36.412,37.069,35.748
2026-05-20 12:37:22.155,1164181611,49155,1,0.49683,0.86328,0.14087,-39.237,-23.305,-44.863
2026-05-20 12:37:22.155,1164181611,49155,2,0.53662,-0.75781,0.0459,10.092,-8.26,5.145
2026-05-20 12:37:22.355,1164181811,49355,1,0.33374,0.97241,0.29492,-28.382,-17.84,-28.672
2026-05-20 12:37:22.355,1164181811,49355,2,0.71143,-0.73242,0.18774,-29.16,-18.435,-17.733
2026-05-20 12:37:25.016,1164184472,52016,1,0.77734,0.56934,0.09229,17.924,11.374,15.969
2026-05-20 12:37:25.016,1164184472,52016,2,0.83301,-0.57935,-0.04346,-26.336,9.427,-12.603
2026-05-20 12:37:30.146,1164189602,57146,1,0.75952,0.6897,0.0835,33.046,4.969,11.244
2026-05-20 12:37:30.146,1164189602,57146,2,0.5835,-0.7644,0.11938,26.26,-2.489,12.687
2026-05-20 12:37:34.430,1164193886,60430,1,0.08765,0.67896,0.62646,-185.885,-66.183,22.847
2026-05-20 12:37:34.430,1164193886,60430,2,-0.14697,-1.23926,0.37158,39.985,-55.183,46.969
2026-05-20 12:37:34.630,1164194086,60630,1,-0.00171,0.7334,1.75024,189.397,250.13,249.718
2026-05-20 12:37:34.630,1164194086,60630,2,-0.34155,-0.42847,0.29053,-250.137,-171.519,27.855
2026-05-20 12:37:34.830,1164194286,60830,1,-0.49951,-1.16992,0.25415,97.74,250.13,250.13
2026-05-20 12:37:34.830,1164194286,60830,2,-1.18921,-1.08301,-0.06494,4.069,-236.191,116.084
2026-05-20 12:37:34.030,1164193486,61030,1,-0.42749,-0.00806,0.72461,-26.847,-34.962,-154.687
2026-05-20 12:37:34.030,1164193486,61030,2,-1.14868,-0.19165,0.30029,42.695,-25.725,32.603
2026-05-20 12:37:34.254,1164193710,61254,1,-0.71973,-0.27759,1.11475,-34.725,94.565,-63.962
2026-05-20 12:37:34.254,1164193710,61254,2,-0.77563,-0.09448,0.3313,47.183,72.893,46.634
2026-05-20 12:37:35.454,1164194910,61454,1,-0.42847,-0.64526,0.98584,-154.58,-250.137,-138.702
2026-05-20 12:37:35.454,1164194910,61454,2,-1.00122,-0.31958,0.14038,30.901,-137.649,-33.687
2026-05-20 12:37:35.654,1164195110,61654,1,0.92749,-0.64722,0.21997,-3.496,-160.015,-63.008
2026-05-20 12:37:35.654,1164195110,61654,2,-0.68091,0.02539,0.05664,45.122,115.412,3.779
2026-05-20 12:37:35.854,1164195310,61854,1,0.82837,-0.4873,0.11279,-11.45,114.725,0.229
2026-05-20 12:37:35.854,1164195310,61854,2,-0.49365,-0.27661,0.25781,52.198,221.588,-230.313
2026-05-20 12:37:35.054,1164194510,62054,1,0.63184,-0.64502,0.56348,98.74,29.214,-112.214
2026-05-20 12:37:35.054,1164194510,62054,2,-0.23071,-0.9939,0.15576,-76.198,-184.344,21.267
2026-05-20 12:37:35.254,1164194710,62254,1,0.6355,-0.31494,0.66846,17.115,7.359,4.26
2026-05-20 12:37:35.254,1164194710,62254,2,-0.86426,-0.84814,0.3606,5.847,237.611,108.511
2026-05-20 12:37:38.309,1164197765,65309,1,0.78223,0.72925,0.6499,-77.328,-5.313,9.908
2026-05-20 12:37:38.309,1164197765,65309,2,-0.02051,-1.14233,-0.34839,-83.244,-96.252,18.908
2026-05-20 12:37:39.509,1164198965,65509,1,0.7832,0.33765,0.49292,-32.29,15.794,-15.061
2026-05-20 12:37:39.509,1164198965,65509,2,-0.25415,-0.62891,-0.39551,-35.687,24.855,38.099
2026-05-20 12:37:39.709,1164199165,65709,1,0.64771,0.34229,0.55664,-0.74,-4.145,15.634
2026-05-20 12:37:39.709,1164199165,65709,2,-0.23706,-0.55225,-0.57446,-20.275,52.939,2.58
2026-05-20 12:37:39.909,1164199365,65909,1,0.66699,0.39209,0.65552,-61.244,-30.107,-66.985
2026-05-20 12:37:39.909,1164199365,65909,2,0.01367,-0.99072,-0.49878,134.137,20.908,17.649
2026-05-20 12:37:40.393,1164199849,66393,1,0.27881,0.06323,1.24902,-18.954,-19.626,-28.443
2026-05-20 12:37:40.393,1164199849,66393,2,-0.06982,-1.19824,0.36987,233.038,-83.641,66.183
2026-05-20 12:37:40.593,1164200049,66593,1,0.25928,-0.00732,1.20654,-193.527,207.275,-152.321
2026-05-20 12:37:40.593,1164200049,66593,2,-0.38428,-0.29736,-0.05884,-151.206,26.092,90.672
2026-05-20 12:37:40.832,1164200288,66832,1,0.16626,-0.18677,1.18872,68.298,-77.183,-11.435
2026-05-20 12:37:40.832,1164200288,66832,2,-0.77783,-0.92993,0.35107,-15.557,125.618,-17.015
2026-05-20 12:37:40.032,1164199488,67032,1,0.25757,-0.29004,1.06763,-64.641,-13.969,-2.145
2026-05-20 12:37:40.032,1164199488,67032,2,-0.5166,-0.75195,0.3894,-9.069,54.901,26.977
2026-05-20 12:37:40.232,1164199688,67232,1,0.34424,-0.65332,0.81006,-82.046,-30.733,-26.137
2026-05-20 12:37:40.232,1164199688,67232,2,-0.50928,-0.97461,0.31104,66.183,-191.893,52.115
2026-05-20 12:37:41.432,1164200888,67432,1,0.271,-0.39795,1.50928,250.13,-171.26,56.183
2026-05-20 12:37:41.432,1164200888,67432,2,-0.41284,-0.97363,0.34863,49.473,154.916,-138.969
2026-05-20 12:37:41.632,1164201088,67632,1,0.6853,0.53394,0.62109,-24.16,-57.618,-3.939
2026-05-20 12:37:41.632,1164201088,67632,2,0.07446,-0.83691,0.66357,-9.565,1.405,3.168
2026-05-20 12:37:44.448,1164203904,70448,1,0.30518,-0.81006,0.64185,58.13,-73.878,-45.298
2026-05-20 12:37:44.448,1164203904,70448,2,-0.74292,-1.44971,0.38647,81.626,-31.618,16.336
2026-05-20 12:37:47.511,1164206967,73511,1,0.60303,0.92993,1.22339,-118.542,-75.053,40.641
2026-05-20 12:37:47.511,1164206967,73511,2,-0.12842,-0.84204,0.2373,1.344,-23.595,15.008
2026-05-20 12:37:47.711,1164207167,73711,1,0.50342,-0.51099,0.58838,-250.137,79.969,-172.893
2026-05-20 12:37:47.711,1164207167,73711,2,-0.49243,-1.19165,0.53418,1.542,37.344,27.214
2026-05-20 12:37:47.911,1164207367,73911,1,0.26978,-0.86865,1.06299,-210.214,114.847,81.71
2026-05-20 12:37:47.911,1164207367,73911,2,-0.34375,-0.80029,0.36377,6.389,20.061,70.496
2026-05-20 12:37:47.911,1164207367,73911,2,-0.34375,-0.80029,0.36377,6.389,20.061,70.496
2026-05-20 12:37:52.012,1164211468,79012,1,0.16821,-0.74854,0.68677,23.145,-14.618,3.802
2026-05-20 12:37:52.012,1164211468,79012,2,0.00122,-0.99292,-0.07324,-4.84,-5.878,21.611
2026-05-20 12:37:52.212,1164211668,79212,1,0.27368,-1.06104,0.66333,-50.008,-30.664,-18.534
2026-05-20 12:37:52.212,1164211668,79212,2,0.05688,-1.03809,0.1189,15.702,-85.145,-6.466
2026-05-20 12:37:53.547,1164213003,79546,1,0.22388,-0.74829,0.70337,-11.244,12.809,10.168
2026-05-20 12:37:53.547,1164213003,79546,2,-0.01807,-1.04053,0.11597,7.321,-46.649,2.42
2026-05-20 12:37:53.746,1164213202,79746,1,0.09961,-0.76343,0.70435,17.695,-3.061,4.267
2026-05-20 12:37:53.746,1164213202,79746,2,-0.03296,-1.0271,0.13403,-27.0,127.733,-13.824
2026-05-20 12:37:53.026,1164212482,80026,1,0.13672,-0.83618,0.69043,21.137,1.221,7.382
2026-05-20 12:37:53.026,1164212482,80026,2,-0.02759,-1.0564,0.00732,-0.748,53.153,7.534
2026-05-20 12:37:53.226,1164212682,80226,1,-0.02905,-0.60327,0.83105,-11.855,19.275,2.214
2026-05-20 12:37:53.226,1164212682,80226,2,-0.06543,-0.98657,0.06226,9.847,-11.924,3.702
2026-05-20 12:37:54.426,1164213882,80426,1,0.12646,-0.74658,0.79858,19.824,-3.855,4.42
2026-05-20 12:37:54.426,1164213882,80426,2,-0.07837,-0.95874,0.0708,2.786,-38.588,-1.198
2026-05-20 12:37:54.626,1164214082,80626,1,0.03101,-0.72632,0.79077,3.695,6.275,-1.344
2026-05-20 12:37:54.626,1164214082,80626,2,0.10791,-1.02319,0.26807,65.489,15.649,-9.115
2026-05-20 12:37:54.826,1164214282,80826,1,-0.00293,-0.73779,0.74609,4.58,-9.191,-3.031
2026-05-20 12:37:54.826,1164214282,80826,2,0.01196,-0.93433,0.08789,-14.947,22.061,-5.084
2026-05-20 12:37:54.032,1164213488,81032,1,0.04077,-0.84424,0.72388,-9.313,1.206,4.412
2026-05-20 12:37:54.032,1164213488,81032,2,-0.06323,-0.98364,0.0481,4.992,4.115,-0.458
2026-05-20 12:37:54.232,1164213688,81232,1,0.01636,-0.62671,0.83813,19.061,-33.221,-21.397
2026-05-20 12:37:54.232,1164213688,81232,2,-0.07422,-1.02319,0.19043,1.107,-60.924,-0.962
2026-05-20 12:37:55.432,1164214888,81432,1,0.3833,-0.91479,1.12939,-114.695,178.656,-10.29
2026-05-20 12:37:55.432,1164214888,81432,2,0.01855,-0.99487,0.26489,-8.969,-0.237,1.557
2026-05-20 12:37:57.193,1164216649,84193,1,-0.00049,-0.61792,0.81201,-1.527,8.519,0.58
2026-05-20 12:37:57.193,1164216649,84193,2,-0.03833,-0.97217,-0.04541,-3.168,12.901,0.649
2026-05-20 12:38:05.184,1164224640,92184,1,0.30322,-0.77759,0.59644,-13.176,-7.557,-1.817
2026-05-20 12:38:05.184,1164224640,92184,2,-0.08203,-1.021,-0.03589,-7.015,-3.084,-0.611
2026-05-20 12:38:08.978,1164228434,94978,1,-0.08936,-0.61304,1.0415,28.214,4.832,-28.527
2026-05-20 12:38:08.978,1164228434,94978,2,-0.04224,-0.92065,0.33911,-2.863,32.237,-15.519
2026-05-20 12:38:08.178,1164227634,95178,1,-0.01172,-0.41479,0.80225,-8.107,-3.0,-66.763
2026-05-20 12:38:08.178,1164227634,95178,2,-0.01904,-0.7771,0.20117,-24.092,99.336,-35.802
2026-05-20 12:38:09.378,1164228834,95378,1,0.10815,-0.70435,0.90723,-41.481,0.13,-57.511
2026-05-20 12:38:09.378,1164228834,95378,2,0.10522,-1.20239,0.16626,-38.916,20.779,-9.977
2026-05-20 12:38:09.608,1164229064,95607,1,0.75732,-0.77441,1.18164,24.153,32.511,-87.603
2026-05-20 12:38:09.608,1164229064,95607,2,0.32983,-1.2085,0.23975,8.023,128.71,-58.107
2026-05-20 12:38:09.807,1164229263,95807,1,0.31445,-0.29712,1.00488,-16.672,91.382,-50.992
2026-05-20 12:38:09.807,1164229263,95807,2,0.36597,-0.91309,0.34009,6.802,84.496,-25.664
2026-05-20 12:38:12.504,1164231960,98503,1,-0.30835,0.16479,1.15039,59.321,-47.573,69.473
2026-05-20 12:38:12.504,1164231960,98503,2,0.44141,-0.45288,0.72144,52.893,-39.649,-2.015
2026-05-20 12:38:12.703,1164232159,98703,1,-0.00488,0.27783,1.02954,20.588,29.168,6.397
2026-05-20 12:38:12.703,1164232159,98703,2,0.302,-0.30737,0.80225,43.214,11.481,11.679
2026-05-20 12:38:12.903,1164232359,98903,1,0.01587,0.29419,1.04565,14.252,8.55,5.802
2026-05-20 12:38:12.903,1164232359,98903,2,0.25415,-0.25269,0.86475,25.282,10.641,-8.42
2026-05-20 12:38:12.103,1164231559,99103,1,-0.06128,0.33252,1.02881,8.0,5.992,0.031
2026-05-20 12:38:12.103,1164231559,99103,2,0.18115,-0.15674,0.96924,26.634,-0.534,-3.74
2026-05-20 12:38:12.303,1164231759,99303,1,-0.0415,0.39111,1.0896,10.863,-4.969,3.466
2026-05-20 12:38:12.303,1164231759,99303,2,0.21362,-0.13013,0.94409,1.13,0.16,0.275
2026-05-20 12:38:13.503,1164232959,99503,1,-0.0354,0.35938,0.99365,0.305,1.45,0.924
2026-05-20 12:38:13.503,1164232959,99503,2,0.20654,-0.11084,0.92017,1.786,-0.344,1.275
2026-05-20 12:38:13.703,1164233159,99703,1,-0.04321,0.38379,1.01538,2.107,0.176,-0.832
2026-05-20 12:38:13.703,1164233159,99703,2,0.21704,-0.12402,0.9165,-1.351,0.55,-1.374
2026-05-20 12:38:13.908,1164233364,99908,1,-0.03735,0.37939,0.99731,0.382,1.328,-3.672
2026-05-20 12:38:13.908,1164233364,99908,2,0.2312,-0.13159,0.92114,0.031,5.366,-2.176
2026-05-20 12:38:13.108,1164232564,100108,1,-0.15381,0.35034,1.04761,4.229,9.702,-17.183
2026-05-20 12:38:13.108,1164232564,100108,2,0.16138,-0.11279,0.95605,-2.305,-0.763,-9.26
2026-05-20 12:38:13.308,1164232764,100308,1,0.01294,0.39648,0.98413,0.695,-9.847,-0.87
2026-05-20 12:38:13.308,1164232764,100308,2,-0.14526,-0.87866,0.27246,12.588,69.084,-3.924
2026-05-20 12:38:24.386,1164243842,110386,1,0.06445,-0.14746,1.04492,-85.26,-15.015,1.069
2026-05-20 12:38:24.386,1164243842,110386,2,0.2793,-0.75708,0.53833,-68.183,-27.069,27.313
2026-05-20 12:38:24.586,1164244042,110586,1,0.19458,-0.44263,0.81982,-63.962,-25.733,-4.252
2026-05-20 12:38:24.586,1164244042,110586,2,0.13672,-0.8667,0.37891,-56.55,-19.382,24.924
2026-05-20 12:38:24.786,1164244242,110786,1,0.20923,-0.65698,0.81348,16.397,-14.565,10.893
2026-05-20 12:38:24.786,1164244242,110786,2,0.32788,-0.87354,0.2937,44.519,15.13,-25.557
2026-05-20 12:38:24.986,1164244442,110986,1,0.0791,-0.22827,0.82861,107.855,4.885,-15.977
2026-05-20 12:38:24.986,1164244442,110986,2,0.30298,-0.78931,0.26294,80.786,17.87,-57.16
2026-05-20 12:38:24.186,1164243642,111186,1,0.12842,0.13794,1.27368,70.519,1.282,-10.733
2026-05-20 12:38:24.186,1164243642,111186,2,0.18628,-0.5686,0.75928,24.26,3.405,-6.702
2026-05-20 12:38:25.386,1164244842,111386,1,0.21851,0.2334,1.13379,14.885,-8.321,-2.725
2026-05-20 12:38:25.386,1164244842,111386,2,0.2439,-0.53516,0.76929,-5.115,2.321,-4.962
2026-05-20 12:38:25.586,1164245042,111586,1,0.16235,0.19019,1.05151,-4.0,6.122,-13.786
2026-05-20 12:38:25.586,1164245042,111586,2,0.27783,-0.56665,0.78662,-1.794,5.954,-13.466
2026-05-20 12:38:25.786,1164245242,111786,1,0.24561,0.19604,1.05493,-0.634,3.649,-7.397
2026-05-20 12:38:25.786,1164245242,111786,2,0.25928,-0.53369,0.75903,-3.565,7.16,-4.641
2026-05-20 12:38:25.986,1164245442,111986,1,0.17651,0.14941,1.05713,-9.939,9.977,-3.16
2026-05-20 12:38:25.986,1164245442,111986,2,0.2688,-0.52686,0.76025,-2.344,1.969,-0.061
2026-05-20 12:38:25.221,1164244677,112221,1,0.09473,0.21875,1.12964,-5.527,5.802,-13.55
2026-05-20 12:38:25.221,1164244677,112221,2,0.2312,-0.53833,0.7478,-14.168,-4.489,2.603
2026-05-20 12:38:26.421,1164245877,112421,1,0.0603,0.18823,1.26172,-66.237,14.046,-9.885
2026-05-20 12:38:26.421,1164245877,112421,2,0.21094,-0.6604,0.68677,-57.878,-8.969,23.969
2026-05-20 12:38:26.621,1164246077,112621,1,0.00122,-0.13599,1.02295,-125.244,-1.29,-13.046
2026-05-20 12:38:26.621,1164246077,112621,2,0.13477,-0.84424,0.44824,-97.519,-20.817,37.137
2026-05-20 12:38:28.355,1164247811,115355,1,0.31787,-0.81592,0.64771,-1.237,0.435,1.092
2026-05-20 12:38:28.355,1164247811,115355,2,-0.03125,-0.98218,-0.27612,-1.099,0.405,1.298
2026-05-20 12:38:29.555,1164249011,115555,1,0.31226,-0.81689,0.63672,-1.061,1.053,-0.244
2026-05-20 12:38:29.555,1164249011,115555,2,-0.04077,-0.97681,-0.27051,-1.802,2.015,1.244
2026-05-20 12:38:29.755,1164249211,115755,1,0.31055,-0.82813,0.63281,-0.26,0.031,0.229
2026-05-20 12:38:29.755,1164249211,115755,2,-0.02466,-0.99048,-0.25781,0.87,2.0,1.733
2026-05-20 12:38:29.204,1164248660,116204,1,0.323,-0.82007,0.64136,-1.855,7.977,-1.656
2026-05-20 12:38:29.204,1164248660,116204,2,-0.04297,-0.9751,-0.25757,-2.336,9.099,5.305
2026-05-20 12:38:30.404,1164249860,116404,1,0.28174,-0.82593,0.63037,-5.374,7.008,0.405
2026-05-20 12:38:30.404,1164249860,116404,2,-0.09717,-0.97119,-0.26904,-2.237,-0.153,0.855
2026-05-20 12:38:33.507,1164252963,119507,1,0.24854,-0.8728,0.5896,-1.45,2.725,-1.58
2026-05-20 12:38:33.507,1164252963,119507,2,-0.10327,-0.96997,-0.27173,-1.733,0.55,0.908
2026-05-20 12:38:33.707,1164253163,119707,1,0.25562,-0.86963,0.58643,-1.603,2.802,-1.29
2026-05-20 12:38:33.707,1164253163,119707,2,-0.10767,-0.97046,-0.27832,-2.504,0.855,1.786
2026-05-20 12:38:33.907,1164253363,119907,1,0.2439,-0.87378,0.57568,-1.573,2.672,-0.718
2026-05-20 12:38:33.907,1164253363,119907,2,-0.10864,-0.96216,-0.26782,-0.878,-0.244,1.008
2026-05-20 12:38:36.933,1164256389,122933,1,0.23682,-0.88086,0.58032,-0.16,1.901,2.313
2026-05-20 12:38:36.933,1164256389,122933,2,-0.11304,-0.96484,-0.27124,-0.137,-1.321,1.061
2026-05-20 12:38:36.133,1164255589,123133,1,0.23535,-0.88428,0.57837,-0.145,0.809,0.221
2026-05-20 12:38:36.133,1164255589,123133,2,-0.12158,-0.96411,-0.27808,-1.275,-0.565,0.725
2026-05-20 12:38:36.333,1164255789,123333,1,0.22681,-0.87012,0.58325,-0.656,1.305,-0.985
2026-05-20 12:38:36.333,1164255789,123333,2,-0.10791,-0.96753,-0.26343,-2.489,-0.176,0.924
2026-05-20 12:38:37.533,1164256989,123533,1,0.23511,-0.87354,0.5835,-1.168,0.435,-0.031
2026-05-20 12:38:37.533,1164256989,123533,2,-0.11938,-0.97021,-0.26978,-1.557,-1.061,0.977
2026-05-20 12:38:37.733,1164257189,123733,1,0.22729,-0.88647,0.57227,-1.099,2.275,-0.748
2026-05-20 12:38:37.733,1164257189,123733,2,0.14038,-0.97266,0.15503,-5.817,4.275,-1.397
2026-05-20 12:38:43.636,1164263092,129636,1,0.3125,-0.67017,0.81543,-9.985,-13.511,28.26
2026-05-20 12:38:43.636,1164263092,129636,2,0.04175,-1.03247,0.12476,84.366,18.275,-53.244
2026-05-20 12:38:46.745,1164266201,132745,1,0.18384,-0.55664,0.73486,93.267,-1.267,3.473
2026-05-20 12:38:46.745,1164266201,132745,2,0.17822,-0.91895,0.26953,74.145,-12.565,-38.611
2026-05-20 12:38:46.945,1164266401,132945,1,0.14282,-0.31152,0.87207,122.344,25.885,18.42
2026-05-20 12:38:46.945,1164266401,132945,2,0.19604,-0.69214,0.25635,84.977,45.817,-40.802
2026-05-20 12:38:46.945,1164266401,132945,2,0.19604,-0.69214,0.25635,84.977,45.817,-40.802
2026-05-20 12:38:51.053,1164270509,138052,1,0.13623,0.23315,1.05908,-1.015,0.42,-0.679
2026-05-20 12:38:51.053,1164270509,138052,2,0.18604,-0.57129,0.75293,-1.916,1.031,0.16
2026-05-20 12:38:51.252,1164270708,138252,1,0.13257,0.2356,1.07007,0.084,0.687,0.519
2026-05-20 12:38:51.252,1164270708,138252,2,0.17554,-0.56543,0.76611,-1.221,-0.679,0.885
2026-05-20 12:38:52.672,1164272128,138672,1,0.14136,0.22241,1.06104,-1.214,1.55,0.542
2026-05-20 12:38:52.672,1164272128,138672,2,0.18262,-0.57642,0.75122,-1.695,0.023,0.679
2026-05-20 12:38:52.872,1164272328,138872,1,0.14868,0.22559,1.06714,0.595,0.656,-0.26
2026-05-20 12:38:52.872,1164272328,138872,2,0.18579,-0.57764,0.74268,-1.664,-0.321,0.45
2026-05-20 12:38:52.072,1164271528,139072,1,0.14868,0.22852,1.05273,-1.023,0.084,0.542
2026-05-20 12:38:52.072,1164271528,139072,2,0.17529,-0.58154,0.75146,-1.115,1.092,1.573
2026-05-20 12:38:55.848,1164275304,141847,1,0.1499,0.22266,1.06738,0.084,2.351,0.626
2026-05-20 12:38:55.848,1164275304,141847,2,0.16772,-0.58545,0.7522,-2.489,-0.779,2.786
2026-05-20 12:38:56.389,1164275845,142389,1,0.13672,0.21729,1.05078,-1.061,1.695,1.466
2026-05-20 12:38:56.389,1164275845,142389,2,0.17261,-0.58545,0.7522,-2.618,-0.191,1.71
2026-05-20 12:38:56.589,1164276045,142589,1,0.14551,0.21313,1.05322,-1.733,1.168,-1.397
2026-05-20 12:38:56.589,1164276045,142589,2,0.16919,-0.58789,0.74902,-1.794,1.168,0.153
2026-05-20 12:38:56.789,1164276245,142789,1,0.13721,0.2146,1.06885,-0.405,0.733,-0.916
2026-05-20 12:38:56.789,1164276245,142789,2,0.16089,-0.59082,0.74561,-1.305,-0.366,0.763
2026-05-20 12:38:56.989,1164276445,142989,1,0.14355,0.22119,1.07275,-0.924,-0.145,2.122
2026-05-20 12:38:56.989,1164276445,142989,2,0.17114,-0.58813,0.75415,-1.206,-1.427,1.809
2026-05-20 12:38:56.189,1164275645,143189,1,0.14502,0.21362,1.07324,-1.725,0.878,0.191
2026-05-20 12:38:56.189,1164275645,143189,2,0.18311,-0.58521,0.75952,-1.893,-0.702,0.634
2026-05-20 12:38:57.389,1164276845,143389,1,0.16748,0.24585,1.11963,-1.71,-0.13,1.0
2026-05-20 12:38:57.389,1164276845,143389,2,0.18701,-0.5874,0.74976,-10.992,-13.641,3.45
2026-05-20 12:38:57.589,1164277045,143589,1,0.22241,0.16504,1.19482,-47.298,2.389,13.901
2026-05-20 12:38:57.589,1164277045,143589,2,0.198,-0.70459,0.64087,-34.649,-10.038,22.71
2026-05-20 12:38:57.789,1164277245,143789,1,0.13696,-0.10303,1.03906,-62.74,18.939,30.573
2026-05-20 12:38:57.789,1164277245,143789,2,0.18555,-0.75977,0.53638,-35.122,-20.84,37.42
2026-05-20 12:38:57.989,1164277445,143989,1,-0.01709,-0.25928,1.0083,-66.13,-2.687,35.282
2026-05-20 12:38:57.989,1164277445,143989,2,0.04907,-0.88599,0.51318,-45.672,-43.595,41.893
2026-05-20 12:39:03.403,1164282859,149403,1,0.57983,0.1687,0.92407,-1.595,0.328,1.115
2026-05-20 12:39:03.403,1164282859,149403,2,0.53564,-0.63135,0.53784,-2.542,-0.267,1.802
2026-05-20 12:39:03.603,1164283059,149603,1,0.57031,0.16431,0.92749,-1.046,2.969,-0.351
2026-05-20 12:39:03.603,1164283059,149603,2,0.53638,-0.61377,0.53833,-2.0,0.122,1.718
2026-05-20 12:39:03.803,1164283259,149803,1,0.55615,0.15991,0.92798,0.733,1.214,1.008
2026-05-20 12:39:03.803,1164283259,149803,2,0.53613,-0.65015,0.53442,-0.366,2.763,2.305
2026-05-20 12:39:03.212,1164282668,150212,1,0.57739,0.13257,0.92334,-1.954,3.55,-3.489
2026-05-20 12:39:03.212,1164282668,150212,2,0.52979,-0.64404,0.53223,-1.435,1.542,0.221
2026-05-20 12:39:04.412,1164283868,150412,1,0.54541,0.1687,0.94434,-0.565,2.939,-3.458
2026-05-20 12:39:04.412,1164283868,150412,2,0.53687,-0.62769,0.54639,-1.0,1.802,-1.031
2026-05-20 12:39:04.612,1164284068,150612,1,0.57837,0.16797,0.9375,2.221,0.473,0.16
2026-05-20 12:39:04.612,1164284068,150612,2,0.52222,-0.63403,0.53491,1.969,-1.947,2.824
2026-05-20 12:39:04.812,1164284268,150812,1,0.49316,0.21875,0.98364,-0.489,3.634,5.038
2026-05-20 12:39:04.812,1164284268,150812,2,0.51709,-0.61865,0.54956,-4.71,-1.168,0.794
2026-05-20 12:39:04.012,1164283468,151012,1,0.56689,0.16211,0.94946,-2.023,2.893,0.023
2026-05-20 12:39:04.012,1164283468,151012,2,0.52295,-0.64746,0.54272,-1.237,-1.198,4.229
2026-05-20 12:39:04.212,1164283668,151212,1,0.53076,0.16064,0.9563,4.244,4.405,1.977
2026-05-20 12:39:04.212,1164283668,151212,2,0.52148,-0.64624,0.5459,3.977,-2.321,2.221
2026-05-20 12:38:57.989,1164277445,143989,2,0.04907,-0.88599,0.51318,-45.672,-43.595,41.893
2026-05-20 12:39:05.412,1164284868,151412,1,0.53418,0.16968,0.96826,2.061,3.344,2.412
2026-05-20 12:39:05.412,1164284868,151412,2,0.52075,-0.63037,0.55322,0.695,0.427,1.824
2026-05-20 12:39:05.712,1164285168,151712,1,0.50562,0.19287,0.97217,-1.435,3.412,-2.298
2026-05-20 12:39:05.712,1164285168,151712,2,0.51611,-0.61621,0.55273,-2.084,2.023,-0.542
2026-05-20 12:39:05.912,1164285368,151912,1,0.51563,0.177,0.96606,-1.168,1.038,-1.527
2026-05-20 12:39:05.912,1164285368,151912,2,0.51172,-0.63135,0.55493,-1.534,1.954,0.359
2026-05-20 12:39:05.112,1164284568,152112,1,0.51392,0.19189,0.97754,-0.046,0.252,0.611
2026-05-20 12:39:05.112,1164284568,152112,2,0.49512,-0.84521,0.11646,-56.985,-47.137,36.87
2026-05-20 12:39:06.656,1164286112,152656,1,0.65308,-0.25293,0.75146,-54.847,-9.71,34.832
2026-05-20 12:39:06.656,1164286112,152656,2,0.4707,-0.86987,0.02393,-62.969,-24.122,44.176
2026-05-20 12:39:06.856,1164286312,152856,1,0.6377,-0.48682,0.75854,-53.58,29.618,14.725
2026-05-20 12:39:06.856,1164286312,152856,2,0.40601,-0.91748,-0.11206,-24.137,4.573,42.565
2026-05-20 12:39:06.056,1164285512,153056,1,0.52197,-0.55957,0.75708,-31.908,25.939,2.336
2026-05-20 12:39:06.056,1164285512,153056,2,0.43237,-1.00952,-0.13062,-1.305,27.0,7.924
2026-05-20 12:39:06.256,1164285712,153256,1,0.53491,-0.47119,0.78857,-3.542,40.702,-50.267
2026-05-20 12:39:06.256,1164285712,153256,2,0.40063,-0.91284,-0.08838,17.053,69.084,-18.725
2026-05-20 12:39:07.456,1164286912,153456,1,0.58008,-0.51611,0.73486,21.115,54.626,-79.916
2026-05-20 12:39:07.456,1164286912,153456,2,0.25073,-0.96802,0.14551,52.221,101.107,-39.878
2026-05-20 12:39:07.656,1164287112,153656,1,0.4502,-0.32861,1.01855,78.939,-7.42,-31.313
2026-05-20 12:39:07.656,1164287112,153656,2,0.26953,-0.9209,0.31445,49.878,53.786,-42.809
2026-05-20 12:39:07.856,1164287312,153856,1,0.47168,-0.01294,1.06177,63.466,-0.145,-24.267
2026-05-20 12:39:07.856,1164287312,153856,2,0.27393,-0.74878,0.52148,49.992,31.137,-12.603
2026-05-20 12:39:07.056,1164286512,154056,1,0.43652,0.32031,1.10742,29.802,22.229,-0.092
2026-05-20 12:39:07.056,1164286512,154056,2,0.34814,-0.59204,0.73779,20.427,3.664,7.794
2026-05-20 12:39:07.256,1164286712,154256,1,0.34277,0.30444,1.10596,5.786,4.985,15.084
2026-05-20 12:39:07.256,1164286712,154256,2,0.40674,-0.56104,0.70166,18.328,-14.847,18.87
2026-05-20 12:39:08.714,1164288170,154713,1,0.37183,0.29688,0.95313,21.527,11.252,12.74
2026-05-20 12:39:08.714,1164288170,154713,2,0.45264,-0.51416,0.6687,15.992,-18.924,9.191
2026-05-20 12:39:08.913,1164288369,154913,1,0.44849,0.33569,0.97705,12.542,-4.893,8.969
2026-05-20 12:39:08.913,1164288369,154913,2,0.4541,-0.50317,0.69995,5.863,-7.458,3.504
2026-05-20 12:39:08.113,1164287569,155113,1,0.44971,0.34375,0.948,3.366,1.183,1.992
2026-05-20 12:39:08.113,1164287569,155113,2,0.45313,-0.50806,0.70117,0.092,-1.137,1.0
2026-05-20 12:39:11.278,1164290734,158278,1,0.45654,0.32666,0.94971,0.649,2.817,-0.702
2026-05-20 12:39:11.278,1164290734,158278,2,0.47437,-0.5127,0.68701,-0.947,-0.092,0.145
2026-05-20 12:39:12.478,1164291934,158478,1,0.46143,0.33911,0.94727,0.748,-1.282,0.702
2026-05-20 12:39:12.478,1164291934,158478,2,0.48511,-0.50928,0.68457,-1.969,-0.176,0.931
2026-05-20 12:39:12.678,1164292134,158678,1,0.46167,0.32275,0.93579,-1.87,3.26,-1.084
2026-05-20 12:39:12.678,1164292134,158678,2,0.47803,-0.52466,0.68823,-1.412,3.023,-0.405
2026-05-20 12:39:12.973,1164292429,158973,1,0.45166,0.33154,0.95776,-0.664,3.328,-3.275
2026-05-20 12:39:12.973,1164292429,158973,2,0.46436,-0.52002,0.66382,-2.962,-1.031,0.458
2026-05-20 12:39:12.173,1164291629,159173,1,0.46631,0.34497,0.98926,-13.153,3.366,1.183
2026-05-20 12:39:12.173,1164291629,159173,2,0.49414,-0.52441,0.65942,-16.092,-5.344,8.84
2026-05-20 12:39:12.373,1164291829,159373,1,0.46436,0.23682,0.93286,-12.71,-3.0,12.435
2026-05-20 12:39:12.373,1164291829,159373,2,0.48364,-0.58252,0.61938,-8.809,-6.748,11.237
2026-05-20 12:39:13.573,1164293029,159573,1,0.4292,0.18286,0.95435,-6.389,15.985,7.794
2026-05-20 12:39:13.573,1164293029,159573,2,0.62622,-1.28442,-0.0603,-2.916,-34.679,40.626
2026-05-20 12:39:16.626,1164296082,162626,1,-0.12598,-1.06885,1.10669,3.046,-45.626,17.359
2026-05-20 12:39:16.626,1164296082,162626,2,0.22534,-1.05298,0.03638,9.924,-74.618,-15.87
2026-05-20 12:39:16.826,1164296282,162826,1,0.32593,-0.32617,0.89819,-2.038,-2.718,-14.435
2026-05-20 12:39:16.826,1164296282,162826,2,0.40552,-0.88892,0.13672,-28.42,-40.237,11.733
2026-05-20 12:39:16.026,1164295482,163026,1,0.28223,-0.52246,0.80664,24.977,5.115,48.198
2026-05-20 12:39:16.026,1164295482,163026,1,0.28223,-0.52246,0.80664,24.977,5.115,48.198
2026-05-20 12:39:16.026,1164295482,163026,2,0.28711,-0.45508,0.80762,-3.878,1.374,-0.008
2026-05-20 12:39:21.147,1164300603,168147,1,0.22705,0.31494,1.01514,-1.603,2.252,-2.183
2026-05-20 12:39:21.147,1164300603,168147,2,0.25171,-0.48218,0.79883,-1.183,0.267,0.611
2026-05-20 12:39:24.024,1164303480,171023,1,0.14917,0.27783,1.0542,-0.718,0.603,0.206
2026-05-20 12:39:24.024,1164303480,171023,2,0.25879,-0.48438,0.80176,-1.351,0.809,0.718
2026-05-20 12:39:24.223,1164303679,171223,1,0.14917,0.27612,1.04419,-0.267,-1.252,1.374
2026-05-20 12:39:24.223,1164303679,171223,2,0.46606,-0.72119,0.48462,-33.359,-19.542,17.023
2026-05-20 12:39:30.442,1164309898,176442,1,0.48535,-0.0188,1.02832,-39.695,-6.656,16.702
2026-05-20 12:39:30.442,1164309898,176442,2,0.47632,-0.7583,0.41577,-34.481,-28.176,21.176
2026-05-20 12:39:30.642,1164310098,176642,1,0.4668,-0.1604,1.0022,-74.305,-10.412,35.366
2026-05-20 12:39:30.642,1164310098,176642,2,0.37207,-0.92529,0.14819,-61.046,-32.824,39.29
2026-05-20 12:39:30.842,1164310298,176842,1,0.46533,-0.4729,0.75562,-85.366,-0.29,55.015
2026-05-20 12:39:30.842,1164310298,176842,2,0.22949,-0.95654,-0.00293,-65.977,-24.626,63.481
2026-05-20 12:39:30.084,1164309540,177084,1,0.26147,-0.85645,0.625,-28.87,9.046,48.573
2026-05-20 12:39:30.084,1164309540,177084,2,0.07788,-1.00391,-0.2937,-44.519,-45.573,55.13
2026-05-20 12:39:30.284,1164309740,177284,1,0.24512,-0.91553,0.56787,-10.427,4.992,0.939
2026-05-20 12:39:30.284,1164309740,177284,2,0.00586,-1.03101,-0.20557,-23.015,4.901,30.405
2026-05-20 12:39:31.484,1164310940,177484,1,0.19043,-0.83936,0.6394,15.008,9.603,-21.0
2026-05-20 12:39:31.484,1164310940,177484,2,-0.21582,-0.97192,-0.33984,-15.595,2.908,-1.42
2026-05-20 12:39:31.684,1164311140,177684,1,0.31421,-0.81104,0.7002,6.061,12.588,-28.435
2026-05-20 12:39:31.684,1164311140,177684,2,0.00098,-1.00244,-0.24072,12.321,22.817,-16.092
2026-05-20 12:39:31.884,1164311340,177884,1,0.27881,-0.72241,0.72314,6.458,23.244,-22.786
2026-05-20 12:39:31.884,1164311340,177884,2,0.01001,-1.01001,-0.1416,4.641,32.756,-0.313
2026-05-20 12:39:31.084,1164310540,178084,1,0.3374,-0.76025,0.73145,-7.458,-2.672,-0.168
2026-05-20 12:39:31.084,1164310540,178084,2,-0.0127,-0.98828,-0.13403,3.244,-6.588,-0.344
2026-05-20 12:39:31.284,1164310740,178284,1,0.26563,-0.78027,0.71631,5.313,-21.878,25.992
2026-05-20 12:39:31.284,1164310740,178284,2,-0.01611,-1.0022,-0.15845,6.16,9.947,2.748
2026-05-20 12:39:32.604,1164312060,178604,1,0.33472,-0.69995,0.78052,13.359,-38.916,30.473
2026-05-20 12:39:32.604,1164312060,178604,2,0.11743,-0.95654,-0.13721,-11.252,-54.252,4.176
2026-05-20 12:39:32.804,1164312260,178804,1,0.42432,-0.64014,0.62695,-16.687,-26.939,37.802
2026-05-20 12:39:32.804,1164312260,178804,2,-0.01855,-0.99048,-0.21313,4.084,-36.763,3.924
2026-05-20 12:39:32.004,1164311460,179004,1,0.32178,-0.78809,0.65063,0.496,-8.969,34.176
2026-05-20 12:39:32.004,1164311460,179004,2,0.1167,-0.96948,-0.21606,-13.695,-73.237,18.046
2026-05-20 12:39:32.252,1164311708,179252,1,0.07813,-0.84937,0.62964,51.763,-43.229,60.374
2026-05-20 12:39:32.252,1164311708,179252,2,-0.10034,-0.83203,-0.2937,28.893,-68.656,-18.13
2026-05-20 12:39:33.452,1164312908,179452,1,0.08765,-0.77417,0.70435,22.87,-34.885,35.84
2026-05-20 12:39:33.452,1164312908,179452,2,-0.23779,-0.96021,-0.04541,21.176,-80.893,23.786
2026-05-20 12:39:33.652,1164313108,179652,1,-0.01147,-0.7666,0.78418,19.046,-9.84,7.427
2026-05-20 12:39:33.652,1164313108,179652,2,0.03564,-0.97998,0.01123,5.771,-24.649,-4.763
2026-05-20 12:39:33.852,1164313308,179852,1,0.06494,-0.6936,0.7229,-1.237,-6.313,-20.756
2026-05-20 12:39:33.852,1164313308,179852,2,-0.12744,-1.05103,-0.02368,-26.855,10.756,-4.176
2026-05-20 12:39:33.052,1164312508,180052,1,0.25366,-1.03833,0.89087,-5.031,6.061,-35.122
2026-05-20 12:39:33.052,1164312508,180052,2,-0.18799,-0.98169,-0.00659,-11.588,-4.771,4.092
2026-05-20 12:39:36.852,1164316308,182852,1,0.02051,-0.81104,0.71753,-4.542,-7.893,-4.305
2026-05-20 12:39:36.852,1164316308,182852,2,-0.1582,-0.98389,-0.09619,-7.588,-1.099,2.832
2026-05-20 12:39:36.290,1164315746,183290,1,0.07642,-0.81006,0.69653,-5.023,-4.603,4.0
2026-05-20 12:39:36.290,1164315746,183290,2,-0.17651,-0.98975,-0.09839,-9.313,-1.26,2.855
2026-05-20 12:39:37.490,1164316946,183490,1,0.08374,-0.83423,0.68677,-8.031,4.87,1.092
2026-05-20 12:39:37.490,1164316946,183490,2,-0.19751,-0.9624,-0.23022,-3.802,-0.107,1.931
2026-05-20 12:39:40.541,1164319997,186541,1,0.16479,-0.86841,0.61743,-3.061,1.0,-0.664
2026-05-20 12:39:40.541,1164319997,186541,2,-0.19946,-0.96045,-0.24219,-4.29,1.298,2.908
2026-05-20 12:39:40.758,1164320214,186758,1,0.15942,-0.87573,0.61621,-0.115,1.321,-0.634
2026-05-20 12:39:40.758,1164320214,186758,2,-0.19824,-0.95801,-0.25391,-0.954,2.664,0.206
2026-05-20 12:39:40.958,1164320414,186958,1,0.18188,-0.87354,0.61816,2.328,1.405,-2.061
2026-05-20 12:39:40.958,1164320414,186958,2,-0.16602,-0.95825,-0.24976,2.55,3.237,-3.351
2026-05-20 12:39:40.158,1164319614,187158,1,0.17236,-0.86182,0.62744,-0.008,5.008,-0.527
2026-05-20 12:39:40.158,1164319614,187158,2,-0.17651,-0.97046,-0.22314,3.466,3.977,-1.26
2026-05-20 12:39:41.447,1164320903,187447,1,0.14063,-0.85962,0.61743,1.649,9.046,3.328
2026-05-20 12:39:41.447,1164320903,187447,2,-0.1814,-0.97461,-0.1792,10.718,7.26,-1.145
2026-05-20 12:39:41.647,1164321103,187647,1,0.09106,-0.86426,0.62402,1.817,8.947,-0.115
2026-05-20 12:39:41.647,1164321103,187647,2,-0.19238,-0.97437,-0.17773,3.725,5.344,0.015
2026-05-20 12:39:41.847,1164321303,187847,1,0.09082,-0.8645,0.62451,-0.55,4.481,-2.618
2026-05-20 12:39:41.847,1164321303,187847,2,-0.12036,-1.04004,-0.15503,21.13,9.534,-4.092
2026-05-20 12:39:42.064,1164321520,189064,1,0.25732,-0.89209,0.58203,12.473,31.0,1.198
2026-05-20 12:39:42.064,1164321520,189064,2,-0.07495,-1.0415,-0.03442,67.725,29.229,-13.763
2026-05-20 12:39:42.264,1164321720,189264,1,-0.27368,-0.76245,0.65869,18.084,73.687,-19.366
2026-05-20 12:39:42.264,1164321720,189264,2,-0.34692,-0.89331,0.03418,17.618,61.565,6.634
2026-05-20 12:39:43.464,1164322920,189464,1,-0.22803,-0.81592,0.62451,6.076,25.611,-44.0
2026-05-20 12:39:43.464,1164322920,189464,2,-0.36377,-0.94434,-0.02588,-17.626,62.305,2.481
2026-05-20 12:39:46.630,1164326086,192630,1,0.42065,-0.58154,0.69458,4.916,-39.511,29.748
2026-05-20 12:39:46.630,1164326086,192630,2,0.14087,-0.89087,-0.1228,-31.573,-16.802,21.656
2026-05-20 12:39:46.830,1164326286,192830,1,0.22021,-0.74854,0.65454,-6.412,-16.26,20.939
2026-05-20 12:39:46.830,1164326286,192830,2,0.13013,-0.90894,-0.24097,-1.0,-12.42,3.206
2026-05-20 12:39:46.030,1164325486,193030,1,0.31201,-0.80933,0.66504,-6.374,6.893,-4.382
2026-05-20 12:39:46.030,1164325486,193030,2,0.1958,-0.68701,0.71484,45.473,18.992,-0.504
2026-05-20 12:39:49.846,1164329302,195846,1,-0.12964,-0.09985,1.20215,23.863,6.458,9.344
2026-05-20 12:39:49.846,1164329302,195846,2,0.22583,-0.69067,0.64209,12.0,7.573,-1.496
2026-05-20 12:39:52.749,1164332205,198749,1,-0.04663,-0.05518,1.09814,0.786,2.282,-0.725
2026-05-20 12:39:52.749,1164332205,198749,2,0.16748,-0.63306,0.71362,-0.794,0.053,0.656
2026-05-20 12:39:52.949,1164332405,198949,1,-0.05127,-0.05859,1.09058,-0.176,1.038,-0.489
2026-05-20 12:39:52.949,1164332405,198949,2,0.17822,-0.64746,0.71216,-4.382,1.87,2.779
2026-05-20 12:39:52.149,1164331605,199149,1,-0.04004,-0.04321,1.17822,-20.519,8.603,0.076
2026-05-20 12:39:52.149,1164331605,199149,2,0.12207,-0.64966,0.70361,-15.71,-5.527,14.435
2026-05-20 12:39:52.349,1164331805,199349,1,-0.04761,-0.17676,1.05786,-36.351,2.87,17.611
2026-05-20 12:39:52.349,1164331805,199349,2,0.11743,-0.70166,0.67114,-13.588,-10.229,18.26
2026-05-20 12:39:53.549,1164333005,199549,1,-0.05225,-0.26563,1.01538,-23.595,4.321,23.824
2026-05-20 12:39:53.549,1164333005,199549,2,0.08667,-0.73486,0.54663,-9.374,-11.901,23.664
2026-05-20 12:39:53.046,1164332502,200046,1,-0.20117,-0.30859,0.98926,-15.489,8.695,26.992
2026-05-20 12:39:53.046,1164332502,200046,2,0.05811,-0.78979,0.59741,-3.542,-15.824,21.664
2026-05-20 12:39:53.246,1164332702,200246,1,-0.31128,-0.35205,0.96558,-3.733,14.29,11.382
2026-05-20 12:39:53.246,1164332702,200246,2,0.0061,-0.75537,0.60425,6.206,5.221,1.282
2026-05-20 12:39:54.651,1164334107,200651,1,-0.35205,-0.34644,0.96655,2.313,5.748,-0.084
2026-05-20 12:39:54.651,1164334107,200651,2,-0.00439,-0.74585,0.60083,2.115,1.618,1.985
2026-05-20 12:39:54.851,1164334307,200851,1,-0.35425,-0.33081,0.93994,1.084,2.015,2.458
2026-05-20 12:39:54.851,1164334307,200851,2,-0.01416,-0.73022,0.63013,-0.435,-0.634,2.252
2026-05-20 12:39:54.051,1164333507,201051,1,-0.34741,-0.30127,0.96753,-0.023,-2.153,4.611
2026-05-20 12:39:54.051,1164333507,201051,2,-0.01123,-0.7373,0.61426,-2.336,-1.313,2.534
2026-05-20 12:39:55.554,1164335010,201554,1,-0.42847,-0.28809,1.03516,-4.679,-15.45,17.038
2026-05-20 12:39:55.554,1164335010,201554,2,-0.01514,-0.77686,0.61206,-10.16,-15.115,8.122
2026-05-20 12:39:55.754,1164335210,201754,1,-0.25439,-0.28027,1.03247,-5.641,-49.725,18.74
2026-05-20 12:39:55.754,1164335210,201754,2,-0.15503,-0.93677,-0.39624,-5.046,-1.573,-0.374
2026-05-20 12:39:58.445,1164337901,204445,1,0.1731,-0.91748,0.5271,1.176,-3.832,1.084
2026-05-20 12:39:58.445,1164337901,204445,2,-0.15308,-0.92896,-0.39893,-2.191,0.771,-1.992
2026-05-20 12:39:58.645,1164338101,204645,1,0.18188,-0.91479,0.53979,0.092,-2.267,1.481
2026-05-20 12:39:58.645,1164338101,204645,2,-0.15112,-0.92407,-0.39063,-0.824,-1.84,0.061
2026-05-20 12:39:58.851,1164338307,204851,1,0.17041,-0.91968,0.53052,-1.099,-0.26,1.359
2026-05-20 12:39:58.851,1164338307,204851,2,-0.16284,-0.92871,-0.40845,-2.588,-0.214,1.603
2026-05-20 12:39:58.103,1164337559,205103,1,0.16406,-0.91895,0.52612,-0.908,1.374,0.786
2026-05-20 12:39:58.103,1164337559,205103,2,-0.15967,-0.92163,-0.40698,-2.802,-0.122,1.313
2026-05-20 12:39:58.303,1164337759,205303,1,0.16992,-0.92432,0.52222,0.557,1.252,-0.153
2026-05-20 12:39:58.303,1164337759,205303,2,-0.1709,-0.9231,-0.40088,-0.771,-0.557,-0.015
2026-05-20 12:39:59.503,1164338959,205503,1,0.16162,-0.91455,0.51782,-0.023,0.748,-0.328
2026-05-20 12:39:59.503,1164338959,205503,2,-0.15698,-0.92578,-0.3999,-1.817,2.443,0.763
2026-05-20 12:40:02.560,1164342016,208560,1,0.18701,-0.91333,0.53931,-0.237,1.786,0.084
2026-05-20 12:40:02.560,1164342016,208560,2,-0.15576,-0.92871,-0.40186,-1.466,-1.145,1.053
2026-05-20 12:40:02.760,1164342216,208760,1,0.17139,-0.91333,0.53418,0.313,1.672,0.305
2026-05-20 12:40:02.760,1164342216,208760,2,-0.1521,-0.92896,-0.40234,-0.427,1.427,0.748
2026-05-20 12:40:02.960,1164342416,208960,1,0.1687,-0.91577,0.53638,0.328,0.702,0.969
2026-05-20 12:40:02.960,1164342416,208960,2,-0.16724,-0.93262,-0.39648,0.183,1.252,0.122
2026-05-20 12:40:02.171,1164341627,209171,1,0.16699,-0.90747,0.55249,0.214,0.733,-0.221
2026-05-20 12:40:02.171,1164341627,209171,2,-0.15381,-0.92651,-0.39014,-0.748,1.954,-0.061
2026-05-20 12:40:02.371,1164341827,209371,1,0.15576,-0.90894,0.54102,-0.817,0.458,0.557
2026-05-20 12:40:02.371,1164341827,209371,2,-0.15894,-0.93506,-0.3833,-2.13,-0.282,0.137
2026-05-20 12:40:03.571,1164343027,209571,1,0.16528,-0.91846,0.52344,-0.786,-1.511,1.672
2026-05-20 12:40:03.571,1164343027,209571,2,-0.15405,-0.93018,-0.39502,-2.74,-1.55,-0.237
2026-05-20 12:40:03.771,1164343227,209771,1,0.17651,-0.91113,0.53003,-0.092,1.275,-0.771
2026-05-20 12:40:03.771,1164343227,209771,2,-0.16187,-0.93677,-0.39209,-1.405,-0.443,1.275
2026-05-20 12:40:03.971,1164343427,209971,1,0.1748,-0.9104,0.53076,-1.107,3.389,-1.74
2026-05-20 12:40:03.971,1164343427,209971,2,-0.15918,-0.94189,-0.37598,-0.374,-0.282,-0.076
2026-05-20 12:40:06.025,1164345481,213025,1,0.16431,-0.90479,0.5415,0.053,1.206,-0.275
2026-05-20 12:40:06.025,1164345481,213025,2,-0.15869,-0.9375,-0.38062,-1.282,2.015,
2026-05-20 12:40:06.225,1164345681,213225,1,0.16992,-0.90698,0.53516,0.336,-1.015,
2026-05-20 12:40:06.225,1164345681,213225,2,-0.16431,-0.92407,-0.396,-2.145,-0.649,-0.405
2026-05-20 12:40:07.425,1164346881,213425,1,0.17676,-0.90527,0.53931,-0.267,-0.863,-0.908
2026-05-20 12:40:07.425,1164346881,213425,2,-0.15601,-0.92993,-0.39771,-0.374,0.588,0.313
2026-05-20 12:40:09.045,1164348501,216045,1,0.17554,-0.91284,0.53833,0.977,1.855,0.023
2026-05-20 12:40:09.045,1164348501,216045,2,-0.15259,-0.93115,-0.3772,-0.855,,0.847
2026-05-20 12:40:09.245,1164348701,216245,1,0.16016,-0.91187,0.53369,-0.779,2.008,-0.16
2026-05-20 12:40:09.245,1164348701,216245,2,-0.15796,-0.93335,-0.39331,-1.878,-0.267,0.817
2026-05-20 12:40:10.492,1164349948,216492,1,0.16797,-0.91113,0.52271,-0.076,0.061,0.107
2026-05-20 12:40:10.492,1164349948,216492,2,-0.16162,-0.93604,-0.37695,-0.863,-0.115,0.015
2026-05-20 12:40:10.822,1164350278,216822,1,0.17114,-0.91016,0.53345,0.366,1.427,-0.244
2026-05-20 12:40:10.822,1164350278,216822,2,-0.15649,-0.92993,-0.36597,-0.511,0.176,0.191
2026-05-20 12:40:10.022,1164349478,217022,1,0.17188,-0.90894,0.53223,0.237,1.305,-0.282
2026-05-20 12:40:10.022,1164349478,217022,2,-0.16064,-0.93115,-0.3916,-0.664,1.122,0.496
2026-05-20 12:40:10.222,1164349678,217222,1,0.16626,-0.91357,0.54102,0.031,1.221,-0.321
2026-05-20 12:40:10.222,1164349678,217222,2,-0.15698,-0.93457,-0.38232,-1.435,1.26,0.466
2026-05-20 12:40:11.422,1164350878,217422,1,0.17456,-0.91064,0.53589,-0.115,0.435,0.473
2026-05-20 12:40:11.422,1164350878,217422,2,-0.16382,-0.93164,-0.38281,-1.679,1.489,1.191
2026-05-20 12:40:13.254,1164352710,220254,1,0.16382,-0.90991,0.52222,-0.893,4.832,-1.13
2026-05-20 12:40:13.254,1164352710,220254,2,-0.16699,-0.93262,-0.3877,-1.115,1.618,0.977
2026-05-20 12:40:14.454,1164353910,220454,1,0.15137,-0.92041,0.51147,-3.611,0.779,0.878
2026-05-20 12:40:14.454,1164353910,220454,2,-0.18555,-0.927,-0.38647,-4.153,-2.443,1.13
2026-05-20 12:40:14.654,1164354110,220654,1,0.15747,-0.92188,0.5188,-0.672,-2.618,0.305
2026-05-20 12:40:14.654,1164354110,220654,2,-0.16528,-0.93188,-0.38281,-3.786,-0.122,0.221
2026-05-20 12:40:14.854,1164354310,220854,1,0.18018,-0.92017,0.52124,0.573,1.947,-1.176
2026-05-20 12:40:14.854,1164354310,220854,2,-0.16968,-0.93677,-0.39819,-0.634,3.359,1.244
2026-05-20 12:40:14.054,1164353510,221054,1,0.17529,-0.92188,0.52563,0.29,3.809,-1.481
2026-05-20 12:40:14.054,1164353510,221054,2,-0.17529,-0.91797,-0.39185,-0.603,1.756,2.092
2026-05-20 12:40:14.254,1164353710,221254,1,0.15503,-0.9165,0.53149,-0.351,2.618,-0.053
2026-05-20 12:40:14.254,1164353710,221254,2,-0.18115,-0.92383,-0.39136,-0.878,2.389,0.809
2026-05-20 12:40:15.454,1164354910,221454,1,0.16943,-0.91333,0.52246,-0.74,-0.214,0.87
2026-05-20 12:40:15.454,1164354910,221454,2,-0.17529,-0.92578,-0.3999,-2.786,1.802,1.382
2026-05-20 12:40:15.721,1164355177,221720,1,0.15991,-0.92114,0.52197,-1.718,0.351,1.16
2026-05-20 12:40:15.721,1164355177,221720,2,-0.17505,-0.92578,-0.40308,-2.466,0.557,1.595
2026-05-20 12:40:15.920,1164355376,221920,1,0.16064,-0.92065,0.50903,-1.977,1.305,0.779
2026-05-20 12:40:15.920,1164355376,221920,2,-0.17041,-0.92065,-0.41382,-2.695,2.214,1.076
2026-05-20 12:40:15.120,1164354576,222120,1,0.14941,-0.9187,0.50317,-1.313,2.405,-0.099
2026-05-20 12:40:15.120,1164354576,222120,2,-0.17627,-0.91138,-0.40674,-1.031,1.595,0.359
2026-05-20 12:40:16.630,1164356086,222630,1,0.15405,-0.93042,0.5127,0.282,1.595,-0.046
2026-05-20 12:40:16.630,1164356086,222630,2,-0.19043,-0.91479,-0.40601,-0.695,0.969,-0.305
2026-05-20 12:40:16.830,1164356286,222830,1,0.14526,-0.92871,0.50806,1.611,-0.176,2.962
2026-05-20 12:40:16.830,1164356286,222830,2,-0.17896,-0.91992,-0.41602,-0.679,-1.366,-0.702
2026-05-20 12:40:16.030,1164355486,223030,1,0.15063,-0.91553,0.52271,1.962,1.855,-0.931
2026-05-20 12:40:16.030,1164355486,223030,2,-0.16406,-0.91431,-0.40405,0.092,1.198,0.229
2026-05-20 12:40:16.230,1164355686,223230,1,0.13916,-0.91797,0.52441,-0.55,2.626,-2.664
2026-05-20 12:40:16.230,1164355686,223230,2,-0.18237,-0.92114,-0.40723,-0.198,2.435,0.351
2026-05-20 12:40:17.430,1164356886,223430,1,0.15063,-0.91577,0.53076,0.344,2.061,-2.947
2026-05-20 12:40:17.430,1164356886,223430,2,-0.17407,-0.9209,-0.39673,0.351,2.901,-1.267
2026-05-20 12:40:17.630,1164357086,223630,1,0.14868,-0.9165,0.51392,-0.008,-1.031,0.42
2026-05-20 12:40:17.630,1164357086,223630,2,-0.17358,-0.92407,-0.3999,-0.046,-2.794,-1.847
2026-05-20 12:40:17.916,1164357372,223916,1,0.16089,-0.91772,0.52441,0.298,-0.359,1.107
2026-05-20 12:40:17.916,1164357372,223916,2,-0.17798,-0.93042,-0.4043,-1.076,1.092,1.58
2026-05-20 12:40:17.116,1164356572,224116,1,0.15796,-0.91162,0.51758,-0.573,2.382,0.695
2026-05-20 12:40:17.116,1164356572,224116,2,-0.17773,-0.92847,-0.39673,-2.321,2.038,4.42
2026-05-20 12:40:17.316,1164356772,224316,1,0.15039,-0.91455,0.521,-1.863,4.198,-0.863
2026-05-20 12:40:17.316,1164356772,224316,1,0.15039,-0.91455,0.521,-1.863,4.198,-0.863
2026-05-20 12:40:17.316,1164356772,224316,2,-0.00171,-0.88721,-0.51123,-0.099,33.344,10.786
2026-05-20 12:40:23.417,1164362873,229417,1,0.44019,-0.87671,0.44653,10.603,26.0,-2.046
2026-05-20 12:40:23.417,1164362873,229417,2,0.00122,-0.91821,-0.46191,21.763,1.137,1.023
2026-05-20 12:40:23.617,1164363073,229617,1,0.44067,-0.87354,0.46021,23.107,25.939,6.344
2026-05-20 12:40:23.617,1164363073,229617,2,-0.00342,-1.09521,-0.39258,26.901,28.641,3.71
2026-05-20 12:40:23.817,1164363273,229817,1,0.28735,-0.5918,0.57202,42.977,-14.656,15.885
2026-05-20 12:40:23.817,1164363273,229817,2,0.11548,-1.07446,-0.1709,83.405,37.779,-38.863
2026-05-20 12:40:23.017,1164362473,230017,1,0.14551,-0.54834,0.91699,32.405,28.282,-20.885
2026-05-20 12:40:23.017,1164362473,230017,2,0.09082,-0.91162,0.18506,22.626,42.962,-6.534
2026-05-20 12:40:23.217,1164362673,230217,1,0.14258,-0.604,0.88306,6.29,13.191,-22.71
2026-05-20 12:40:23.217,1164362673,230217,2,0.24561,-0.82227,0.48169,4.405,7.641,3.42
2026-05-20 12:40:26.097,1164365553,233097,1,0.14648,-0.27002,1.0481,-1.137,14.87,1.092
2026-05-20 12:40:26.097,1164365553,233097,2,0.2168,-0.81641,0.48853,4.649,7.42,3.412
2026-05-20 12:40:26.297,1164365753,233297,1,0.08887,-0.27661,1.09448,-1.893,19.527,-4.053
2026-05-20 12:40:26.297,1164365753,233297,2,0.20288,-0.82544,0.50879,-0.351,8.015,2.985
2026-05-20 12:40:27.497,1164366953,233497,1,0.04639,-0.28076,1.04395,-0.26,6.427,-2.298
2026-05-20 12:40:27.497,1164366953,233497,2,0.20508,-0.8208,0.51221,1.496,0.802,-2.321
2026-05-20 12:40:27.697,1164367153,233697,1,0.06079,-0.27246,1.05859,2.634,2.565,-2.847
2026-05-20 12:40:27.697,1164367153,233697,2,0.19092,-0.80542,0.53369,1.977,5.191,-1.824
2026-05-20 12:40:27.897,1164367353,233897,1,0.08179,-0.25537,1.06836,6.031,-0.351,4.878
2026-05-20 12:40:27.897,1164367353,233897,2,0.17871,-0.79614,0.54224,1.443,-3.008,2.115
2026-05-20 12:40:27.120,1164366576,234120,1,0.02588,-0.25952,1.06323,-0.473,10.542,-0.878
2026-05-20 12:40:27.120,1164366576,234120,2,0.19775,-0.79102,0.5459,2.031,0.786,2.0
2026-05-20 12:40:27.320,1164366776,234320,1,0.00024,-0.24707,1.01416,5.244,-5.649,2.008
2026-05-20 12:40:27.320,1164366776,234320,2,0.15039,-0.81714,0.55981,2.038,-6.481,0.863
2026-05-20 12:40:28.520,1164367976,234520,1,0.0332,-0.29077,1.073,0.878,6.893,1.664
2026-05-20 12:40:28.520,1164367976,234520,2,0.16943,-0.78979,0.54565,-2.198,2.672,0.84
2026-05-20 12:40:31.809,1164371265,237809,1,0.20752,0.35474,0.99072,-11.42,-6.038,10.145
2026-05-20 12:40:31.809,1164371265,237809,2,0.36255,-0.36743,0.79126,-3.832,-11.504,8.176
2026-05-20 12:40:31.009,1164370465,238009,1,0.25415,0.3252,1.00659,-0.977,-1.183,-0.099
2026-05-20 12:40:31.009,1164370465,238009,2,0.37573,-0.39917,0.81104,-0.466,-0.168,0.076
2026-05-20 12:40:31.209,1164370665,238209,1,0.25342,0.32129,1.01636,1.87,1.58,-3.389
2026-05-20 12:40:31.209,1164370665,238209,2,0.38574,-0.37744,0.81738,-3.069,0.137,-0.565
2026-05-20 12:40:32.542,1164371998,238542,1,0.26123,0.33911,1.0022,-0.496,2.458,-1.901
2026-05-20 12:40:32.542,1164371998,238542,2,0.3877,-0.38306,0.82959,-3.916,4.298,-1.84
2026-05-20 12:40:32.742,1164372198,238742,1,0.29224,0.34131,1.0542,1.878,6.366,-6.588
2026-05-20 12:40:32.742,1164372198,238742,2,0.37671,-0.41187,0.80396,-6.061,-0.214,2.595
2026-05-20 12:40:32.942,1164372398,238942,1,0.1626,0.35083,1.05786,-10.023,32.519,-6.145
2026-05-20 12:40:32.942,1164372398,238942,1,0.1626,0.35083,1.05786,-10.023,32.519,-6.145
2026-05-20 12:40:32.942,1164372398,238942,2,0.17651,-0.52759,0.78516,4.366,2.481,0.802
2026-05-20 12:40:37.052,1164376508,244051,1,-0.15942,0.1958,1.03516,11.244,5.183,3.809
2026-05-20 12:40:37.052,1164376508,244051,2,0.18384,-0.52026,0.79541,4.969,1.534,0.908
2026-05-20 12:40:37.251,1164376707,244251,1,-0.18579,0.24438,1.04883,3.214,7.511,4.756
2026-05-20 12:40:37.251,1164376707,244251,2,0.21387,-0.50732,0.80347,1.191,-3.45,-2.748
2026-05-20 12:40:40.878,1164380334,246878,1,0.21411,0.30054,1.06226,5.061,-3.664,5.763
2026-05-20 12:40:40.878,1164380334,246878,2,0.22754,-0.48926,0.81201,2.115,-1.824,2.885
2026-05-20 12:40:40.078,1164379534,247078,1,0.16553,0.29858,1.02905,4.137,6.985,6.069
2026-05-20 12:40:40.078,1164379534,247078,2,0.21948,-0.45898,0.81128,0.527,-1.427,4.832
2026-05-20 12:40:41.400,1164380856,247400,1,0.13013,0.30322,1.01636,2.244,5.763,3.809
2026-05-20 12:40:41.400,1164380856,247400,2,0.2085,-0.4751,0.8103,2.58,-1.718,4.855
2026-05-20 12:40:41.600,1164381056,247600,1,0.13892,0.31128,1.01807,7.641,4.435,4.695
2026-05-20 12:40:41.600,1164381056,247600,2,0.23438,-0.44897,0.81201,6.076,-4.145,5.466
2026-05-20 12:40:41.800,1164381256,247800,1,0.10986,0.36694,1.03418,2.603,4.55,3.916
2026-05-20 12:40:41.800,1164381256,247800,2,0.22705,-0.4375,0.83862,-0.405,-1.672,2.908
2026-05-20 12:40:41.023,1164380479,248023,1,0.11304,0.36377,1.02783,-0.947,1.58,1.237
2026-05-20 12:40:41.023,1164380479,248023,2,0.23535,-0.448,0.85352,-4.527,7.046,-1.282
2026-05-20 12:40:41.223,1164380679,248223,1,0.15088,0.35693,1.07104,-11.718,1.779,-4.977
2026-05-20 12:40:41.223,1164380679,248223,2,0.25659,-0.46729,0.80347,-14.702,5.282,4.702
2026-05-20 12:40:42.423,1164381879,248423,1,0.06323,0.27856,1.0542,-16.229,-5.435,-9.405
2026-05-20 12:40:42.423,1164381879,248423,2,0.22876,-0.46753,0.79126,-10.573,0.595,-2.45
2026-05-20 12:40:42.649,1164382105,248649,1,0.021,0.19702,0.96533,1.382,0.153,-9.901
2026-05-20 12:40:42.649,1164382105,248649,2,0.2334,-1.08838,-0.25366,15.519,60.328,-13.618
2026-05-20 12:40:45.724,1164385180,251724,1,0.05127,-0.87402,0.78882,-7.511,52.061,-39.16
2026-05-20 12:40:45.724,1164385180,251724,2,-0.01025,-0.83643,0.03247,-3.588,-3.595,33.26
2026-05-20 12:40:45.924,1164385380,251924,1,-0.02319,-0.7793,0.62183,5.038,26.45,-12.534
2026-05-20 12:40:45.924,1164385380,251924,2,-0.10425,-0.9812,-0.02026,-17.031,25.061,-15.74
2026-05-20 12:40:45.124,1164384580,252124,1,0.03467,-0.89429,0.86206,-17.122,-7.534,-11.626
2026-05-20 12:40:45.124,1164384580,252124,2,0.07178,-1.01563,-0.12354,27.977,-18.947,-11.336
2026-05-20 12:40:45.362,1164384818,252362,1,0.22632,-0.72852,0.65063,2.573,-9.55,26.008
2026-05-20 12:40:45.362,1164384818,252362,2,0.00195,-0.90576,-0.00391,26.206,14.153,-6.931
2026-05-20 12:40:46.562,1164386018,252562,1,0.24146,-0.75171,0.81104,-3.893,-16.305,28.794
2026-05-20 12:40:46.562,1164386018,252562,2,0.15918,-1.28735,-0.17871,-43.366,33.763,6.87
2026-05-20 12:40:46.762,1164386218,252762,1,0.07349,-0.6521,0.80444,27.214,15.527,-5.344
2026-05-20 12:40:46.762,1164386218,252762,2,0.10938,-0.95459,-0.08716,63.763,84.618,-41.16
2026-05-20 12:40:46.762,1164386218,252762,2,0.10938,-0.95459,-0.08716,63.763,84.618,-41.16
2026-05-20 12:40:51.867,1164391323,257867,1,0.09937,-0.84229,0.64282,0.977,2.092,-1.573
2026-05-20 12:40:51.867,1164391323,257867,2,-0.13232,-0.98071,-0.21606,-3.275,1.504,1.626
2026-05-20 12:40:51.067,1164390523,258067,1,0.08716,-0.85425,0.6311,-0.916,1.473,0.023
2026-05-20 12:40:51.067,1164390523,258067,2,-0.14038,-0.98828,-0.21338,-2.679,-1.756,0.626
2026-05-20 12:40:51.267,1164390723,258267,1,0.09644,-0.85156,0.64624,-0.031,-5.397,2.748
2026-05-20 12:40:51.267,1164390723,258267,2,-0.14014,-0.97925,-0.21631,-2.55,-4.206,-0.969
2026-05-20 12:40:52.467,1164391923,258467,1,0.1084,-0.85425,0.63989,-0.672,-2.122,-0.26
2026-05-20 12:40:52.467,1164391923,258467,2,-0.12109,-0.98291,-0.22241,-1.229,1.076,-0.977
2026-05-20 12:40:52.667,1164392123,258667,1,0.10938,-0.8606,0.64673,-1.427,2.573,-4.076
2026-05-20 12:40:52.667,1164392123,258667,2,-0.12842,-0.96191,-0.26514,-14.634,-10.0,6.74
2026-05-20 12:40:52.134,1164391590,259134,1,0.146,-0.88184,0.5957,-3.038,-5.84,3.595
2026-05-20 12:40:52.134,1164391590,259134,2,-0.13452,-0.97095,-0.29102,-10.71,2.405,7.588
2026-05-20 12:40:52.334,1164391790,259334,1,0.16187,-0.90039,0.56372,-7.496,12.023,-15.855
2026-05-20 12:40:52.334,1164391790,259334,2,-0.16724,-0.93677,-0.25122,1.481,11.687,5.0
2026-05-20 12:40:52.334,1164391790,259334,2,-0.16724,-0.93677,-0.25122,1.481,11.687,5.0
2026-05-20 12:40:58.626,1164398082,264626,1,0.04663,-0.80615,0.64136,2.046,-52.496,22.817
2026-05-20 12:40:58.626,1164398082,264626,2,-0.01123,-1.01196,-0.05811,1.847,-43.893,-15.183
2026-05-20 12:40:58.626,1164398082,264626,2,-0.01123,-1.01196,-0.05811,1.847,-43.893,-15.183
2026-05-20 12:41:03.734,1164403190,269734,1,0.13867,-0.93433,0.47241,-20.74,12.832,-5.985
2026-05-20 12:41:03.734,1164403190,269734,2,-0.20947,-0.95508,-0.46924,-5.573,13.786,-0.496
2026-05-20 12:41:03.948,1164403404,269948,1,0.15283,-0.95288,0.50488,8.908,-1.992,4.931
2026-05-20 12:41:03.948,1164403404,269948,2,-0.14111,-0.87866,-0.47778,10.649,-14.412,-9.198
2026-05-20 12:41:03.148,1164402604,270148,1,0.1731,-0.95898,0.56714,7.328,-4.16,-1.534
2026-05-20 12:41:03.148,1164402604,270148,2,-0.1355,-0.9873,-0.40088,19.244,-6.092,-12.916
2026-05-20 12:41:03.348,1164402804,270348,1,0.17163,-0.91382,0.53711,48.153,-5.595,3.634
2026-05-20 12:41:03.348,1164402804,270348,2,0.17773,-1.16528,0.57715,-0.954,1.473,-0.107
2026-05-20 12:41:07.463,1164406919,273463,1,0.20313,-0.55176,1.07324,-39.786,-0.763,7.878
2026-05-20 12:41:07.463,1164406919,273463,2,0.18604,-0.67383,0.22559,-56.176,-8.916,14.13
2026-05-20 12:41:07.663,1164407119,273663,1,0.08594,-0.19434,0.4939,-46.443,-19.359,12.359
2026-05-20 12:41:07.663,1164407119,273663,2,0.00342,-0.28638,0.0144,-90.122,-2.191,57.153
2026-05-20 12:41:07.863,1164407319,273863,1,0.17944,-1.16016,0.52588,-90.122,-32.405,-0.687
2026-05-20 12:41:07.863,1164407319,273863,2,0.1123,-1.06982,0.00366,-41.557,-1.122,20.756
2026-05-20 12:41:07.063,1164406519,274063,1,0.10376,-1.00073,0.44116,-36.908,13.702,-10.573
2026-05-20 12:41:07.063,1164406519,274063,2,-0.1416,-0.95703,-0.26196,-48.962,22.458,17.092
2026-05-20 12:41:07.296,1164406752,274296,1,0.21484,-1.24658,0.37183,-18.931,6.649,-0.168
2026-05-20 12:41:07.296,1164406752,274296,2,-0.0481,-1.06836,-0.2876,30.771,-20.0,-18.443
2026-05-20 12:41:08.496,1164407952,274496,1,0.2395,-0.95459,0.45483,26.969,-6.664,4.183
2026-05-20 12:41:08.496,1164407952,274496,2,0.05615,-1.0022,-0.13208,56.893,5.031,-33.985
2026-05-20 12:41:08.696,1164408152,274696,1,0.14063,-0.40308,0.30884,85.802,18.916,-16.244
2026-05-20 12:41:08.696,1164408152,274696,2,0.31152,-1.04028,0.86841,29.053,7.656,-13.16
2026-05-20 12:41:13.800,1164413256,279800,1,0.09424,-0.58496,1.41064,48.366,9.366,0.267
2026-05-20 12:41:13.800,1164413256,279800,2,0.3208,-0.94043,0.89502,40.13,-4.198,-16.702
2026-05-20 12:41:13.198,1164412654,280197,1,0.05249,0.1853,0.96436,16.695,16.321,-7.809
2026-05-20 12:41:13.198,1164412654,280197,2,0.26514,-0.14941,0.59961,-16.275,4.137,-0.389
2026-05-20 12:41:14.397,1164413853,280397,1,0.09473,-0.05566,1.14502,-22.321,-7.489,-4.626
2026-05-20 12:41:14.397,1164413853,280397,2,0.35986,-0.48608,0.70996,-28.664,2.55,5.664
2026-05-20 12:41:14.597,1164414053,280597,1,0.146,-0.07373,0.98071,-2.519,-1.313,-3.275
2026-05-20 12:41:14.597,1164414053,280597,2,0.36328,-0.52173,0.80493,7.344,-2.55,0.099
2026-05-20 12:41:14.797,1164414253,280797,1,0.04565,0.02124,1.33301,1.771,5.053,3.107
2026-05-20 12:41:14.797,1164414253,280797,2,0.36572,-0.41235,0.79883,-7.115,-0.176,-0.42
2026-05-20 12:41:17.941,1164417397,283941,1,0.05493,0.13281,1.08179,3.969,0.664,-2.985
2026-05-20 12:41:17.941,1164417397,283941,2,0.33984,-0.42261,0.77832,5.267,3.756,-2.573
2026-05-20 12:41:17.141,1164416597,284141,1,0.03687,0.13916,1.07251,13.679,8.435,2.748
2026-05-20 12:41:17.141,1164416597,284141,2,0.36499,-0.3501,0.91089,11.046,-0.84,2.473
2026-05-20 12:41:18.414,1164417870,284413,1,0.04956,0.08643,0.9707,-3.405,2.748,1.45
2026-05-20 12:41:18.414,1164417870,284413,2,0.30322,-0.37744,0.79126,9.42,7.29,-1.137
2026-05-20 12:41:18.613,1164418069,284613,1,-0.0271,0.27515,0.73291,55.611,4.321,1.542
2026-05-20 12:41:18.613,1164418069,284613,2,0.16333,0.05688,-0.04175,38.168,-9.809,2.0
2026-05-20 12:41:18.813,1164418269,284813,1,0.05786,0.18091,1.11279,-45.992,-6.496,-4.137
2026-05-20 12:41:18.813,1164418269,284813,2,0.27856,-0.80151,1.38379,-24.893,11.214,1.542
2026-05-20 12:41:18.013,1164417469,285013,1,0.17725,0.31079,1.50684,80.748,21.382,-9.687
2026-05-20 12:41:18.013,1164417469,285013,2,0.17529,-0.90576,0.22363,94.74,-1.473,-36.168
2026-05-20 12:41:21.744,1164421200,287743,1,0.11694,-0.56836,0.5542,138.008,9.183,-1.618
2026-05-20 12:41:21.744,1164421200,287743,2,0.13379,-0.81104,0.34277,128.069,8.267,-54.038
2026-05-20 12:41:21.943,1164421399,287943,1,0.13672,0.07959,0.96411,162.336,26.901,-7.496
2026-05-20 12:41:21.943,1164421399,287943,2,0.4751,-0.54321,0.67529,130.427,30.962,-36.878
2026-05-20 12:41:21.143,1164420599,288143,1,-0.05103,0.6333,1.06616,109.13,10.176,-7.939
2026-05-20 12:41:21.143,1164420599,288143,2,0.35986,-0.06274,0.92017,90.527,10.924,-22.206
2026-05-20 12:41:21.343,1164420799,288343,1,-0.11182,1.00146,0.97803,64.489,1.084,4.137
2026-05-20 12:41:21.343,1164420799,288343,2,0.25146,0.26953,0.97412,40.458,-2.176,-11.992
2026-05-20 12:41:22.543,1164421999,288543,1,-0.18262,0.68994,0.5354,-9.504,21.87,-3.573
2026-05-20 12:41:22.543,1164421999,288543,2,0.04053,0.34644,0.78735,-8.305,-21.824,11.267
2026-05-20 12:41:22.785,1164422241,288785,1,0.03198,0.74976,0.78394,-1.16,-7.412,1.542
2026-05-20 12:41:22.785,1164422241,288785,2,0.36548,0.24634,0.89697,-4.511,2.618,-4.542
2026-05-20 12:41:22.985,1164422441,288985,1,0.08423,0.74854,0.70044,5.702,-11.504,2.16
2026-05-20 12:41:22.985,1164422441,288985,2,0.3396,0.2168,0.9165,-4.969,-2.916,-1.092
2026-05-20 12:41:22.185,1164421641,289185,1,0.15283,0.91797,0.81982,-43.969,10.092,5.359
2026-05-20 12:41:22.185,1164421641,289185,2,0.38745,0.28711,0.54688,-69.55,32.275,29.038
2026-05-20 12:41:23.385,1164422841,289385,1,0.04907,0.34424,0.53247,-134.008,5.275,10.969
2026-05-20 12:41:23.385,1164422841,289385,2,0.24048,-0.37671,0.66699,-115.252,21.412,35.542
2026-05-20 12:41:23.585,1164423041,289585,1,-0.02588,-0.00122,0.93652,-123.947,18.924,-12.053
2026-05-20 12:41:23.585,1164423041,289585,2,0.27344,-1.00513,0.9104,-80.229,-5.763,25.565
2026-05-20 12:41:23.785,1164423241,289785,1,0.02319,-0.49414,1.39014,-72.542,-0.595,6.122
2026-05-20 12:41:23.785,1164423241,289785,2,0.15063,-1.03687,0.85596,-25.458,8.198,1.679
2026-05-20 12:41:23.985,1164423441,289985,1,0.09473,-0.44141,1.00439,-25.053,-5.725,-20.0
2026-05-20 12:41:23.985,1164423441,289985,2,0.14502,-0.7688,0.52295,-5.344,4.786,-3.13
2026-05-20 12:41:23.185,1164422641,290185,1,0.18799,-0.45947,0.90576,-22.977,-1.855,-4.634
2026-05-20 12:41:23.185,1164422641,290185,2,0.19336,-0.92017,0.56885,-6.565,-6.74,2.947
2026-05-20 12:41:24.401,1164423857,290401,1,0.12402,-0.66504,1.05688,-11.26,-12.489,6.534
2026-05-20 12:41:24.401,1164423857,290401,2,0.20728,-1.14404,0.69629,1.275,-8.107,-4.053
2026-05-20 12:41:24.601,1164424057,290601,1,0.24854,-0.52588,1.34595,6.008,-2.824,-0.878
2026-05-20 12:41:24.601,1164424057,290601,2,0.22461,-1.00171,0.69263,-11.771,-11.725,4.695
2026-05-20 12:41:24.801,1164424257,290801,1,0.15308,-0.57861,1.14575,-17.374,0.947,13.305
2026-05-20 12:41:24.801,1164424257,290801,2,0.20215,-0.79224,0.63037,-8.496,2.481,4.87
2026-05-20 12:41:27.944,1164427400,293944,1,0.1001,-0.47339,1.0188,-6.992,6.55,-0.611
2026-05-20 12:41:27.944,1164427400,293944,2,0.21338,-0.91797,0.78271,3.763,2.863,-2.214
2026-05-20 12:41:27.144,1164426600,294144,1,0.17749,-0.51147,1.00806,37.168,3.16,-0.947
2026-05-20 12:41:27.144,1164426600,294144,2,0.26782,-1.09473,0.77393,42.618,10.008,-16.092
2026-05-20 12:41:27.344,1164426800,294344,1,0.06641,-0.20361,0.93896,114.817,15.771,-2.168
2026-05-20 12:41:27.344,1164426800,294344,2,0.24609,-0.69434,1.06226,99.275,36.351,-35.656
2026-05-20 12:41:28.636,1164428092,294636,1,-0.04077,0.72046,0.77881,131.008,20.931,-1.366
2026-05-20 12:41:28.636,1164428092,294636,2,0.25513,0.36987,0.9812,69.069,0.885,-21.015
2026-05-20 12:41:31.664,1164431120,297664,1,-0.08716,0.90137,0.93188,85.58,6.771,-1.13
2026-05-20 12:41:31.664,1164431120,297664,2,0.26587,0.42554,0.81641,44.695,-4.504,-6.092
2026-05-20 12:41:31.864,1164431320,297864,1,-0.03369,1.0564,0.70923,9.55,-0.489,-0.458
2026-05-20 12:41:31.864,1164431320,297864,2,0.28735,0.53345,0.63794,-26.908,-0.832,13.214
2026-05-20 12:41:31.064,1164430520,298064,1,-0.04028,0.78418,0.56592,-23.061,12.641,0.634
2026-05-20 12:41:31.064,1164430520,298064,2,0.10742,-0.72095,0.5708,-19.756,-2.45,9.366
2026-05-20 12:41:36.157,1164435613,303157,1,0.13257,-0.53369,0.9668,-23.389,-10.321,4.672
2026-05-20 12:41:36.157,1164435613,303157,2,0.18311,-0.84302,0.56421,-20.176,-6.45,8.344
2026-05-20 12:41:36.157,1164435613,303157,2,0.18311,-0.84302,0.56421,-20.176,-6.45,8.344
2026-05-20 12:41:42.400,1164441856,308400,1,0.30664,-0.50195,1.23413,-9.366,-6.634,15.908
2026-05-20 12:41:42.400,1164441856,308400,2,0.59399,-0.73779,-0.05542,-2.679,-18.779,10.847
2026-05-20 12:41:42.600,1164442056,308600,1,0.10278,-0.17188,0.47778,-67.328,28.076,-0.931
2026-05-20 12:41:42.600,1164442056,308600,2,-0.08594,-0.1521,0.16382,-95.397,13.16,9.481
2026-05-20 12:41:42.800,1164442256,308800,1,0.22949,-0.72144,0.33276,-82.847,-7.389,-7.29
2026-05-20 12:41:42.800,1164442256,308800,2,-0.08813,-1.30103,0.21875,22.702,-17.458,-38.908
2026-05-20 12:41:42.000,1164441456,309000,1,0.17334,-0.88501,0.59644,10.26,15.336,-4.809
2026-05-20 12:41:42.000,1164441456,309000,2,0.39233,0.30371,0.97388,-84.924,4.115,34.756
2026-05-20 12:41:45.007,1164444463,312007,1,-0.10767,0.87817,1.16553,-98.458,-8.611,4.649
2026-05-20 12:41:45.007,1164444463,312007,2,0.08179,-0.89429,0.41479,-4.321,-0.076,1.962
2026-05-20 12:41:48.063,1164447519,315063,1,0.15015,-0.60205,0.91382,-2.527,0.313,0.878
2026-05-20 12:41:48.063,1164447519,315063,2,0.07178,-0.8938,0.40479,-4.008,1.092,1.901
2026-05-20 12:41:48.263,1164447719,315263,1,0.13892,-0.60498,0.89819,-1.321,-0.351,-0.137
2026-05-20 12:41:48.263,1164447719,315263,2,0.0564,-0.89331,0.41431,-2.153,0.275,0.504
2026-05-20 12:41:49.463,1164448919,315463,1,0.14819,-0.59741,0.90674,-0.137,-1.611,1.122
2026-05-20 12:41:49.463,1164448919,315463,2,0.07104,-0.89502,0.41089,-1.031,-0.87,0.466
2026-05-20 12:41:49.663,1164449119,315663,1,0.1377,-0.59009,0.89551,1.427,-0.42,0.679
2026-05-20 12:41:49.663,1164449119,315663,2,0.07568,-0.88159,0.40747,-3.107,2.435,0.771
2026-05-20 12:41:49.863,1164449319,315863,1,0.14575,-0.6167,0.896,0.168,3.74,-1.832
2026-05-20 12:41:49.863,1164449319,315863,2,0.08594,-0.89038,0.39282,-1.908,1.427,-0.008
2026-05-20 12:41:49.063,1164448519,316063,1,0.15161,-0.61816,0.90869,-1.046,-5.962,4.176
2026-05-20 12:41:49.063,1164448519,316063,2,0.06836,-0.89526,0.43164,6.504,-0.634,-0.695
2026-05-20 12:41:49.317,1164448773,316317,1,0.21411,-0.53296,0.94092,17.191,-16.076,9.885
2026-05-20 12:41:49.317,1164448773,316317,2,0.09033,-0.84277,0.46411,3.191,0.74,-1.473
2026-05-20 12:41:50.525,1164449981,316525,1,0.21362,-0.48071,0.99414,-6.656,5.076,8.603
2026-05-20 12:41:50.525,1164449981,316525,2,0.09131,-0.84814,0.46851,-1.855,1.237,1.107
2026-05-20 12:41:50.725,1164450181,316725,1,0.15991,-0.53369,0.95313,-2.458,0.695,-1.328
2026-05-20 12:41:50.725,1164450181,316725,2,0.1084,-0.84277,0.46533,2.481,0.092,0.42
2026-05-20 12:41:51.691,1164451147,317691,1,0.19678,-0.51294,0.92432,0.244,5.634,-4.099
2026-05-20 12:41:51.691,1164451147,317691,2,0.09961,-0.86694,0.45605,1.786,3.443,0.191
2026-05-20 12:41:54.752,1164454208,320752,1,-0.06445,-0.21069,0.51538,59.076,25.0,-7.473
2026-05-20 12:41:54.752,1164454208,320752,2,0.02539,-0.46021,-0.01807,43.031,29.008,-13.481
2026-05-20 12:41:54.952,1164454408,320952,1,0.40503,-0.55273,0.80054,-21.115,33.107,-3.176
2026-05-20 12:41:54.952,1164454408,320952,2,0.07544,-1.21167,0.83716,6.893,-6.87,-6.229
2026-05-20 12:41:54.152,1164453608,321152,1,0.27441,-0.68604,1.28369,2.382,11.389,5.366
2026-05-20 12:41:54.152,1164453608,321152,2,0.1394,-0.85645,0.38159,-6.824,-1.924,3.45
2026-05-20 12:41:56.442,1164455898,322442,1,0.21436,-0.59668,0.87329,-4.985,-3.084,1.809
2026-05-20 12:41:56.442,1164455898,322442,2,0.12671,-0.95239,0.45557,-5.084,-2.389,3.55
2026-05-20 12:41:56.642,1164456098,322642,1,0.29761,-0.96899,1.24438,60.198,24.626,-1.504
2026-05-20 12:41:56.642,1164456098,322642,2,0.16016,-1.13647,0.70605,79.389,7.206,-26.405
2026-05-20 12:41:56.842,1164456298,322842,1,0.13623,-0.4353,1.19116,81.374,19.221,2.779
2026-05-20 12:41:56.842,1164456298,322842,2,-0.05103,-0.96997,-0.19849,16.092,-2.145,-10.298
2026-05-20 12:41:59.820,1164459276,325820,1,0.19067,-0.94629,0.51294,26.824,-13.053,0.916
2026-05-20 12:41:59.820,1164459276,325820,2,0.00537,-1.04272,-0.10986,46.336,-7.244,-27.412
2026-05-20 12:41:59.020,1164458476,326020,1,0.16064,-0.73584,0.54199,83.824,21.0,-8.015
2026-05-20 12:41:59.020,1164458476,326020,2,0.10107,-0.87964,0.10229,133.771,10.779,-56.939
2026-05-20 12:41:59.220,1164458676,326220,1,0.06982,-0.28174,0.79639,131.664,30.916,4.038
2026-05-20 12:41:59.220,1164458676,326220,2,0.27222,-0.82886,0.51514,126.252,17.443,-39.015
2026-05-20 12:42:03.383,1164462839,329383,1,0.09644,-0.32861,0.41577,57.748,13.702,-2.435
2026-05-20 12:42:03.383,1164462839,329383,2,0.04126,-1.01831,-0.08936,10.382,-9.252,-9.42
2026-05-20 12:42:06.560,1164466016,332560,1,0.21045,-0.70923,0.73828,11.183,7.779,3.626
2026-05-20 12:42:06.560,1164466016,332560,2,0.02246,-1.01733,-0.00757,7.939,-7.435,-1.008
2026-05-20 12:42:06.760,1164466216,332760,1,0.21899,-0.74316,0.68652,35.328,18.893,3.748
2026-05-20 12:42:06.760,1164466216,332760,2,0.10352,-1.04956,0.07764,57.656,-5.45,-21.931
2026-05-20 12:42:06.760,1164466216,332760,2,0.10352,-1.04956,0.07764,57.656,-5.45,-21.931
2026-05-20 12:42:11.907,1164471363,337907,1,0.05078,-1.05249,0.89917,-1.275,62.893,12.252
2026-05-20 12:42:11.907,1164471363,337907,2,0.31641,-1.02393,-0.11914,40.511,-8.366,3.511
2026-05-20 12:42:14.045,1164473501,341045,1,0.42749,-0.75342,0.60962,4.45,-39.405,28.374
2026-05-20 12:42:14.045,1164473501,341045,2,0.02734,-1.09521,-0.31323,8.603,16.0,13.214
2026-05-20 12:42:14.275,1164473731,341275,1,0.24268,-1.14502,0.78076,-14.534,9.985,15.718
2026-05-20 12:42:14.275,1164473731,341275,2,-0.01563,-1.08862,0.01221,23.244,-23.0,5.023
2026-05-20 12:42:15.475,1164474931,341475,1,-0.0354,-0.80615,0.90991,32.336,-17.466,20.908
2026-05-20 12:42:15.475,1164474931,341475,2,-0.02075,-0.94531,0.12305,36.771,-72.824,8.458
2026-05-20 12:42:15.675,1164475131,341675,1,-0.1438,-0.67529,0.81348,22.084,-41.962,34.771
2026-05-20 12:42:15.675,1164475131,341675,2,0.20435,-1.05835,0.21533,-6.435,-26.672,-12.298
2026-05-20 12:42:15.899,1164475355,341899,1,0.49463,-0.7644,0.82886,24.969,-48.397,14.878
2026-05-20 12:42:15.899,1164475355,341899,2,0.21533,-1.04028,0.31299,40.198,-73.099,-8.756
2026-05-20 12:42:15.099,1164474555,342099,1,0.38306,-0.32178,0.76611,105.473,-6.87,18.534
2026-05-20 12:42:15.099,1164474555,342099,2,0.45044,-0.69067,0.22778,104.435,6.183,-25.206
2026-05-20 12:42:15.299,1164474755,342299,1,0.22778,0.13208,1.03125,103.618,42.748,12.618
2026-05-20 12:42:15.299,1164474755,342299,2,0.42261,-0.40381,0.81812,62.137,-16.748,23.962
2026-05-20 12:42:16.544,1164476000,342544,1,0.00781,0.33057,1.33154,35.26,-58.038,60.557
2026-05-20 12:42:16.544,1164476000,342544,2,0.3335,-0.47607,0.90625,46.305,-8.389,28.702
2026-05-20 12:42:16.744,1164476200,342744,1,0.20557,0.37671,1.09204,-10.84,8.29,18.099
2026-05-20 12:42:16.744,1164476200,342744,2,0.28809,-0.27515,0.87402,4.863,5.412,21.939
2026-05-20 12:42:16.944,1164476400,342944,1,0.1897,0.27661,0.99878,-2.863,2.847,3.733
2026-05-20 12:42:16.944,1164476400,342944,2,0.271,-0.33179,0.87231,2.275,2.13,-0.42
2026-05-20 12:42:16.144,1164475600,343144,1,0.22095,0.27686,1.05127,-3.435,7.725,-6.031
2026-05-20 12:42:16.144,1164475600,343144,2,0.21265,-0.29932,0.88892,5.038,1.29,1.229
2026-05-20 12:42:16.344,1164475800,343344,1,0.21362,0.28955,1.01953,8.084,0.557,-0.061
2026-05-20 12:42:16.344,1164475800,343344,2,0.22559,-0.27124,0.89087,1.496,0.702,3.595
2026-05-20 12:42:17.549,1164477005,343549,1,0.19604,0.31567,1.03638,-0.763,2.443,-0.672
2026-05-20 12:42:17.549,1164477005,343549,2,0.21973,-0.27173,0.88696,0.611,0.176,3.023
2026-05-20 12:42:17.749,1164477205,343749,1,0.19409,0.29028,1.03564,0.099,2.672,-0.687
2026-05-20 12:42:17.749,1164477205,343749,2,0.23657,-0.2854,0.89331,-1.573,0.786,2.275
2026-05-20 12:42:17.949,1164477405,343949,1,0.18628,0.28955,1.02832,1.267,-0.206,-3.053
2026-05-20 12:42:17.949,1164477405,343949,2,0.04858,-0.72192,0.61694,-3.031,0.481,4.534
2026-05-20 12:42:25.037,1164484493,352037,1,-0.34692,-0.29028,1.02075,3.664,-4.458,16.214
2026-05-20 12:42:25.037,1164484493,352037,2,0.04614,-0.74561,0.65063,-8.771,-17.511,4.527
2026-05-20 12:42:25.237,1164484693,352237,1,-0.16406,-0.23779,1.01343,-7.519,-15.58,14.412
2026-05-20 12:42:25.237,1164484693,352237,2,0.04517,-0.76318,0.56787,-13.756,-21.947,9.405
2026-05-20 12:42:26.437,1164485893,352437,1,-0.26416,-0.23584,1.05054,-13.649,-20.863,26.626
2026-05-20 12:42:26.437,1164485893,352437,2,0.06714,-0.73779,0.61426,1.649,-32.107,15.031
2026-05-20 12:42:26.637,1164486093,352637,1,-0.2041,-0.26245,1.02734,-13.87,-27.389,17.244
2026-05-20 12:42:26.637,1164486093,352637,2,0.14624,-0.75488,0.59448,2.168,-14.344,-1.519
2026-05-20 12:42:26.837,1164486293,352837,1,-0.05786,-0.32324,0.91455,24.45,-15.763,-16.29
2026-05-20 12:42:26.837,1164486293,352837,2,0.10107,-0.71655,0.56274,19.489,12.595,-20.969
2026-05-20 12:42:26.037,1164485493,353037,1,-0.02588,-0.39063,1.02563,62.611,-0.893,-16.908
2026-05-20 12:42:26.037,1164485493,353037,2,0.10034,-0.83032,0.66602,54.718,-31.115,-9.473
2026-05-20 12:42:26.237,1164485693,353237,1,0.10767,0.08667,1.01636,95.817,-34.908,10.153
2026-05-20 12:42:26.237,1164485693,353237,2,0.40942,-0.46973,0.57349,67.611,-2.099,-14.519
2026-05-20 12:42:29.035,1164488491,356035,1,0.09717,-0.63647,0.88745,14.321,-18.313,16.267
2026-05-20 12:42:29.035,1164488491,356035,2,-0.29883,-0.95923,0.02856,6.679,0.008,1.863
2026-05-20 12:42:29.235,1164488691,356235,1,0.0979,-0.56079,0.94873,7.13,-1.878,2.374
2026-05-20 12:42:29.235,1164488691,356235,2,-0.30981,-0.93726,0.08667,-1.679,0.42,0.725
2026-05-20 12:42:32.231,1164491687,359231,1,0.06445,-0.56738,0.9353,-0.351,0.954,0.053
2026-05-20 12:42:32.231,1164491687,359231,2,-0.30591,-0.93652,0.10059,-0.947,0.695,0.527
2026-05-20 12:42:33.431,1164492887,359431,1,0.08301,-0.55884,0.93433,-0.481,1.702,0.435
2026-05-20 12:42:33.431,1164492887,359431,2,-0.31104,-0.93481,0.09326,-1.802,-0.267,0.267
2026-05-20 12:42:33.631,1164493087,359631,1,0.073,-0.573,0.93872,-0.664,1.214,0.229
2026-05-20 12:42:33.631,1164493087,359631,2,-0.30493,-0.93408,0.09351,-0.885,0.244,0.931
2026-05-20 12:42:33.831,1164493287,359831,1,0.08154,-0.56006,0.9353,-0.313,0.855,0.076
2026-05-20 12:42:33.831,1164493287,359831,2,-0.30688,-0.93872,0.09058,-1.427,0.656,0.84
2026-05-20 12:42:33.031,1164492487,360031,1,0.07642,-0.56177,0.93262,0.015,1.031,-0.634
2026-05-20 12:42:33.031,1164492487,360031,2,-0.30591,-0.92993,0.09155,-0.916,1.107,0.504
2026-05-20 12:42:33.231,1164492687,360231,1,0.073,-0.55786,0.94141,0.252,1.779,-0.863
2026-05-20 12:42:33.231,1164492687,360231,2,-0.29736,-0.92822,0.10107,-1.611,-0.084,0.656
2026-05-20 12:42:34.431,1164493887,360431,1,0.07031,-0.55518,0.9353,0.588,0.802,-0.458
2026-05-20 12:42:34.431,1164493887,360431,2,-0.30762,-0.93237,0.09937,-1.038,0.893,0.282
2026-05-20 12:42:34.631,1164494087,360631,1,0.0791,-0.55713,0.94312,0.099,1.244,-0.55
2026-05-20 12:42:34.631,1164494087,360631,2,-0.30444,-0.92944,0.09033,-1.16,-0.702,0.733
2026-05-20 12:42:34.897,1164494353,360897,1,0.08032,-0.56299,0.94214,-0.458,0.794,0.023
2026-05-20 12:42:34.897,1164494353,360897,2,-0.31177,-0.93652,0.10083,-1.427,0.863,0.725
2026-05-20 12:42:34.097,1164493553,361097,1,0.07935,-0.55249,0.9585,-0.153,0.244,-0.55
2026-05-20 12:42:34.097,1164493553,361097,2,-0.31128,-0.9375,0.09888,-2.115,-0.672,1.16
2026-05-20 12:42:34.297,1164493753,361297,1,0.07642,-0.56519,0.9519,-1.298,1.282,-1.168
2026-05-20 12:42:34.297,1164493753,361297,2,-0.30396,-0.93774,0.10571,-1.267,1.031,0.435
2026-05-20 12:42:36.699,1164496155,362699,1,0.07813,-0.55835,0.94604,-0.122,1.168,-0.519
2026-05-20 12:42:36.699,1164496155,362699,2,-0.30371,-0.93188,0.09692,-1.374,1.061,0.359
2026-05-20 12:42:39.660,1164499116,365659,1,0.07446,-0.55591,0.93579,-0.504,0.565,-0.29
2026-05-20 12:42:39.660,1164499116,365659,1,0.07446,-0.55591,0.93579,-0.504,0.565,-0.29
2026-05-20 12:42:39.660,1164499116,365659,2,-0.3252,-0.93335,0.10693,-1.626,0.779,1.191
2026-05-20 12:42:44.777,1164504233,370777,1,0.08276,-0.55176,0.94604,-0.939,1.573,-1.282
2026-05-20 12:42:44.777,1164504233,370777,2,-0.31055,-0.93311,0.10449,-1.885,0.344,1.435
2026-05-20 12:42:44.977,1164504433,370977,1,0.07935,-0.56128,0.9375,-1.008,1.565,-0.855
2026-05-20 12:42:44.977,1164504433,370977,2,-0.30469,-0.93433,0.09497,-0.748,1.435,0.588
2026-05-20 12:42:52.058,1164511514,379058,1,0.07861,-0.56714,0.93921,-0.435,0.954,0.656
2026-05-20 12:42:52.058,1164511514,379058,2,-0.29785,-0.93896,0.09888,-1.405,0.412,0.885
2026-05-20 12:42:52.258,1164511714,379258,1,0.07861,-0.57202,0.92407,0.42,1.046,-0.153
2026-05-20 12:42:52.258,1164511714,379258,2,-0.30005,-0.93066,0.10498,-1.115,1.015,0.802
2026-05-20 12:42:53.458,1164512914,379458,1,0.07861,-0.56689,0.94604,0.359,0.687,-1.298
2026-05-20 12:42:53.458,1164512914,379458,2,-0.302,-0.93823,0.10742,-1.321,1.16,0.481
2026-05-20 12:42:53.730,1164513186,379730,1,0.07666,-0.5769,0.93872,-0.183,1.649,-1.13
2026-05-20 12:42:53.730,1164513186,379730,2,-0.30396,-0.93384,0.09619,-3.214,-0.55,1.656
2026-05-20 12:42:53.069,1164512525,380068,1,0.07935,-0.57715,0.93188,-3.046,4.504,-2.382
2026-05-20 12:42:53.069,1164512525,380068,2,-0.30249,-0.93262,0.10449,-2.206,-0.237,0.855
2026-05-20 12:42:53.268,1164512724,380268,1,0.06494,-0.58618,0.91455,-0.656,0.641,1.015
2026-05-20 12:42:53.268,1164512724,380268,2,-0.28833,-0.93604,0.09424,-0.382,-0.137,-0.046
2026-05-20 12:42:54.601,1164514057,380601,1,0.07056,-0.56323,0.92383,0.611,-0.115,0.435
2026-05-20 12:42:54.601,1164514057,380601,2,-0.29419,-0.93628,0.1062,0.183,-0.702,0.55
2026-05-20 12:42:54.801,1164514257,380801,1,0.07642,-0.55737,0.93823,0.656,1.168,0.321
2026-05-20 12:42:54.801,1164514257,380801,2,-0.29883,-0.93164,0.11182,-1.031,0.061,0.809
2026-05-20 12:42:54.001,1164513457,381001,1,0.07373,-0.55493,0.9436,0.137,1.954,-0.855
2026-05-20 12:42:54.001,1164513457,381001,1,0.07373,-0.55493,0.9436,0.137,1.954,-0.855
2026-05-20 12:42:54.001,1164513457,381001,2,-0.30127,-0.93018,0.11963,-1.168,-0.038,1.0
2026-05-20 12:42:59.127,1164518583,386127,1,0.07642,-0.56812,0.94141,-0.069,0.802,0.366
2026-05-20 12:42:59.127,1164518583,386127,2,-0.30176,-0.93677,0.10864,-1.489,0.695,0.641
2026-05-20 12:43:02.216,1164521672,389215,1,0.07251,-0.56787,0.94214,-0.458,1.443,-0.183
2026-05-20 12:43:02.216,1164521672,389215,2,-0.28784,-0.93994,0.10107,-1.412,0.908,0.679
2026-05-20 12:43:02.216,1164521672,389215,1,0.07251,-0.56787,0.94214,-0.458,1.443,-0.183
2026-05-20 12:43:08.661,1164528117,394660,1,0.07568,-0.56152,0.94214,-0.527,0.969,-0.74
2026-05-20 12:43:08.661,1164528117,394660,2,-0.29688,-0.92529,0.10522,-2.183,0.298,0.626
2026-05-20 12:43:08.860,1164528316,394860,1,0.08472,-0.57251,0.93726,-0.641,0.847,-0.13
2026-05-20 12:43:08.860,1164528316,394860,2,-0.29883,-0.93359,0.09839,-1.374,0.176,0.435
2026-05-20 12:43:08.106,1164527562,395106,1,0.07446,-0.56714,0.94263,0.687,0.45,1.038
2026-05-20 12:43:08.106,1164527562,395106,2,-0.30591,-0.93384,0.10132,-1.473,-0.893,0.45
2026-05-20 12:43:08.306,1164527762,395306,1,0.08618,-0.55591,0.94922,-1.267,1.328,0.542
2026-05-20 12:43:08.306,1164527762,395306,2,-0.29443,-0.93408,0.10718,-1.55,0.229,1.0
2026-05-20 12:43:09.506,1164528962,395506,1,0.08447,-0.5708,0.93848,-0.588,1.336,0.817
2026-05-20 12:43:09.506,1164528962,395506,2,-0.29688,-0.93579,0.10327,-1.359,-0.145,0.817
2026-05-20 12:43:09.706,1164529162,395706,1,0.0813,-0.5708,0.93359,-0.206,0.603,0.015
2026-05-20 12:43:09.706,1164529162,395706,2,-0.30078,-0.93335,0.10474,-1.145,-0.198,0.718
2026-05-20 12:43:09.906,1164529362,395906,1,0.07886,-0.56323,0.93652,-0.084,1.672,-0.863
2026-05-20 12:43:09.906,1164529362,395906,2,-0.29956,-0.94214,0.10815,-1.443,1.015,0.519
2026-05-20 12:43:09.106,1164528562,396106,1,0.07959,-0.56323,0.93994,0.16,1.74,-1.13
2026-05-20 12:43:09.106,1164528562,396106,2,-0.30664,-0.93066,0.1062,-1.58,0.244,0.565
2026-05-20 12:43:09.306,1164528762,396306,1,0.08374,-0.56226,0.9397,0.473,1.55,-1.107
2026-05-20 12:43:09.306,1164528762,396306,2,-0.29883,-0.93188,0.10815,-1.176,-0.069,0.527
2026-05-20 12:43:10.506,1164529962,396506,1,0.07764,-0.55737,0.94141,-0.992,1.855,-1.191
2026-05-20 12:43:10.506,1164529962,396506,2,-0.2998,-0.93408,0.10547,-1.481,-0.13,1.046
2026-05-20 12:43:15.373,1164534829,402373,1,0.09155,-0.56128,0.94043,-0.809,1.183,-0.366
2026-05-20 12:43:15.373,1164534829,402373,2,-0.29956,-0.93311,0.11035,-1.336,0.595,0.626
2026-05-20 12:43:19.458,1164538914,405458,1,0.08667,-0.56665,0.94653,-0.13,1.885,-1.405
2026-05-20 12:43:19.458,1164538914,405458,2,-0.30151,-0.93311,0.10278,-1.26,0.87,0.221
2026-05-20 12:43:19.658,1164539114,405658,1,0.09082,-0.56689,0.9397,-0.366,2.206,-1.672
2026-05-20 12:43:19.658,1164539114,405658,2,-0.30225,-0.93628,0.11157,-1.641,1.076,0.542
2026-05-20 12:43:19.858,1164539314,405858,1,0.09497,-0.55396,0.94141,-0.496,1.511,-0.74
2026-05-20 12:43:19.858,1164539314,405858,2,-0.3064,-0.93677,0.10718,-1.824,0.069,0.969
2026-05-20 12:43:22.604,1164542060,408604,1,0.08325,-0.57056,0.9292,-0.718,1.328,0.099
2026-05-20 12:43:22.604,1164542060,408604,2,-0.31177,-0.92969,0.10547,-1.412,0.847,0.481
2026-05-20 12:43:22.804,1164542260,408804,1,0.08301,-0.5647,0.93677,-0.038,1.901,-0.824
2026-05-20 12:43:22.804,1164542260,408804,2,-0.30786,-0.93921,0.10059,-0.885,0.115,0.557
2026-05-20 12:43:22.011,1164541467,409011,1,0.09204,-0.56421,0.93579,0.069,1.832,-1.733
2026-05-20 12:43:22.011,1164541467,409011,2,-0.28711,-0.94287,0.10498,-1.16,0.634,0.58
2026-05-20 12:43:22.211,1164541667,409211,1,0.07983,-0.56128,0.93286,-0.794,1.985,-0.947
2026-05-20 12:43:22.211,1164541667,409211,2,-0.30591,-0.93188,0.10669,-2.344,0.031,0.878
2026-05-20 12:43:23.411,1164542867,409411,1,0.08911,-0.56958,0.93237,-0.649,1.16,-0.366
2026-05-20 12:43:23.411,1164542867,409411,2,-0.29395,-0.93457,0.09888,-1.786,0.298,0.672
2026-05-20 12:43:23.611,1164543067,409611,1,0.08154,-0.56714,0.94141,-0.366,1.206,-1.099
2026-05-20 12:43:23.611,1164543067,409611,2,-0.29907,-0.92798,0.10571,-0.954,1.252,0.443
2026-05-20 12:43:23.811,1164543267,409811,1,0.09839,-0.5564,0.94434,-1.023,1.313,-0.382
2026-05-20 12:43:23.811,1164543267,409811,2,-0.30762,-0.93701,0.10938,-1.878,0.908,0.885
2026-05-20 12:43:23.011,1164542467,410011,1,0.08887,-0.56738,0.94214,-0.847,0.824,0.702
2026-05-20 12:43:23.011,1164542467,410011,2,-0.2981,-0.93481,0.0979,-2.084,-0.855,0.809
2026-05-20 12:43:23.211,1164542667,410211,1,0.08911,-0.56958,0.92236,-1.298,1.412,0.947
2026-05-20 12:43:23.211,1164542667,410211,2,-0.30884,-0.93677,0.09229,-1.481,-0.069,1.046
2026-05-20 12:43:24.411,1164543867,410411,1,0.09326,-0.56934,0.93188,-0.397,0.809,0.55
2026-05-20 12:43:24.411,1164543867,410411,2,-0.30322,-0.93726,0.09546,-1.053,0.252,0.695
2026-05-20 12:43:24.638,1164544094,410638,1,0.08032,-0.56445,0.92944,0.221,1.611,-0.786
2026-05-20 12:43:24.638,1164544094,410638,2,-0.30981,-0.93677,0.10278,-1.252,0.664,0.603
2026-05-20 12:43:24.838,1164544294,410838,1,0.09277,-0.56665,0.94067,0.519,1.351,-1.038
2026-05-20 12:43:24.838,1164544294,410838,2,-0.30859,-0.93164,0.10059,-1.366,0.588,0.626
2026-05-20 12:43:24.038,1164543494,411038,1,0.08765,-0.55835,0.94141,-0.489,2.145,-0.901
2026-05-20 12:43:24.038,1164543494,411038,2,-0.2959,-0.93628,0.10986,-1.252,1.038,0.489
2026-05-20 12:43:24.289,1164543745,411289,1,0.09253,-0.56128,0.92773,-1.229,1.725,-0.672
2026-05-20 12:43:24.289,1164543745,411289,2,-0.30493,-0.9314,0.10547,-1.771,0.267,0.702
2026-05-20 12:43:25.489,1164544945,411489,1,0.08862,-0.56152,0.93823,-0.603,1.756,-0.374
2026-05-20 12:43:25.489,1164544945,411489,2,-0.30249,-0.94019,0.10425,-1.443,0.634,0.595
2026-05-20 12:43:25.689,1164545145,411689,1,0.08521,-0.57275,0.9353,0.053,0.481,0.519
2026-05-20 12:43:25.689,1164545145,411689,2,-0.302,-0.93164,0.10962,-1.458,-0.947,0.443
2026-05-20 12:43:25.889,1164545345,411889,1,0.08398,-0.57031,0.9375,-1.0,0.878,0.58
2026-05-20 12:43:25.889,1164545345,411889,2,-0.21167,-0.96851,0.09326,1.458,7.656,8.771
2026-05-20 12:43:31.800,1164551256,417799,1,0.12256,-0.56592,0.93652,1.412,0.779,3.969
2026-05-20 12:43:31.800,1164551256,417799,2,-0.24683,-0.95532,0.10181,-2.595,-3.748,2.817
2026-05-20 12:43:31.999,1164551455,417999,1,0.0813,-0.56494,0.93872,3.397,1.954,2.71
2026-05-20 12:43:31.999,1164551455,417999,2,-0.26953,-0.94336,0.1106,-0.695,-1.176,1.885
2026-05-20 12:43:31.199,1164550655,418199,1,0.10376,-0.54102,0.95996,2.42,-0.427,1.496
2026-05-20 12:43:31.199,1164550655,418199,2,-0.25439,-0.94849,0.11816,-1.992,1.382,1.031
2026-05-20 12:43:35.510,1164554966,421510,1,0.08447,-0.57983,0.95361,-3.771,-3.305,0.458
2026-05-20 12:43:35.510,1164554966,421510,2,-0.25879,-0.96069,0.10376,-1.924,0.695,-1.374
2026-05-20 12:43:35.710,1164555166,421710,1,0.10889,-0.57129,0.9231,-5.809,-3.74,-5.412
2026-05-20 12:43:35.710,1164555166,421710,2,-0.24048,-0.94434,0.12695,-4.878,-10.252,-3.664
2026-05-20 12:43:35.910,1164555366,421910,1,0.16895,-0.59253,0.92896,-1.618,0.832,-2.931
2026-05-20 12:43:35.910,1164555366,421910,2,-0.21655,-0.94482,0.10742,-1.015,-4.855,-3.687
2026-05-20 12:43:40.017,1164559473,427017,1,0.17139,-0.57666,0.94189,1.534,-3.962,-5.107
2026-05-20 12:43:40.017,1164559473,427017,2,-0.24316,-0.95557,0.06592,-0.557,-0.076,2.0
2026-05-20 12:43:46.654,1164566110,432654,1,0.09155,-0.61499,0.91772,-0.595,1.084,-0.351
2026-05-20 12:43:46.654,1164566110,432654,2,-0.27124,-0.95654,0.07104,-1.588,-0.115,0.695
2026-05-20 12:43:46.854,1164566310,432854,1,0.09717,-0.60156,0.91602,-0.931,1.061,-0.397
2026-05-20 12:43:46.854,1164566310,432854,2,-0.26514,-0.95435,0.07666,-1.84,-0.969,0.733
2026-05-20 12:43:46.054,1164565510,433054,1,0.08765,-0.60718,0.90918,-0.977,1.275,-0.214
2026-05-20 12:43:46.054,1164565510,433054,2,-0.26563,-0.95044,0.08521,-1.756,0.641,0.74
2026-05-20 12:43:46.254,1164565710,433254,1,0.0896,-0.60498,0.91455,-0.87,0.74,-0.031
2026-05-20 12:43:46.254,1164565710,433254,2,-0.2644,-0.9502,0.07495,-1.496,-0.084,0.557
2026-05-20 12:43:47.454,1164566910,433454,1,0.08765,-0.60498,0.90527,0.443,2.084,-0.771
2026-05-20 12:43:47.454,1164566910,433454,2,-0.26245,-0.95239,0.08081,-0.939,0.679,0.58
2026-05-20 12:43:47.654,1164567110,433654,1,0.09424,-0.60449,0.91211,0.252,1.809,-0.809
2026-05-20 12:43:47.654,1164567110,433654,2,-0.26855,-0.95044,0.07861,-0.962,1.16,1.084
2026-05-20 12:43:47.854,1164567310,433854,1,0.09399,-0.60278,0.91016,-0.221,1.931,-0.557
2026-05-20 12:43:47.854,1164567310,433854,2,-0.26318,-0.94067,0.07886,-1.557,0.611,0.802
2026-05-20 12:43:47.054,1164566510,434054,1,0.0918,-0.60132,0.90625,-0.756,1.84,0.069
2026-05-20 12:43:47.054,1164566510,434054,2,-0.26196,-0.94922,0.08154,-1.87,-0.649,0.557
2026-05-20 12:43:47.254,1164566710,434254,1,0.09277,-0.59863,0.90332,1.496,1.962,-0.229
2026-05-20 12:43:47.254,1164566710,434254,2,-0.26489,-0.94409,0.08643,-1.687,-1.366,1.496
2026-05-20 12:43:50.221,1164569677,437221,1,0.10596,-0.53223,0.95801,8.145,-10.206,10.74
2026-05-20 12:43:50.221,1164569677,437221,2,-0.3064,-0.93481,0.12939,-0.992,-0.038,-1.305
2026-05-20 12:43:50.221,1164569677,437221,2,-0.3064,-0.93481,0.12939,-0.992,-0.038,-1.305
2026-05-20 12:43:59.479,1164578935,445479,1,0.10132,-0.5166,0.96851,0.794,-0.115,0.046
2026-05-20 12:43:59.479,1164578935,445479,2,-0.30054,-0.9375,0.12476,-1.061,0.595,0.344
2026-05-20 12:43:59.679,1164579135,445679,1,0.09961,-0.51343,0.97559,-0.458,-0.069,-0.916
2026-05-20 12:43:59.679,1164579135,445679,2,-0.2876,-0.93335,0.11426,-1.252,0.878,0.336
2026-05-20 12:43:59.879,1164579335,445879,1,0.10254,-0.51538,0.96118,-1.84,2.153,-2.168
2026-05-20 12:43:59.879,1164579335,445879,2,-0.2981,-0.94165,0.11426,-2.115,0.466,0.588
2026-05-20 12:43:59.079,1164578535,446079,1,0.11206,-0.52124,0.95801,0.42,0.985,-0.855
2026-05-20 12:43:59.079,1164578535,446079,2,-0.2937,-0.93799,0.10352,-1.053,1.252,0.687
2026-05-20 12:43:59.279,1164578735,446279,1,0.13721,-0.52368,0.94312,0.305,2.221,1.954
2026-05-20 12:43:59.279,1164578735,446279,2,-0.29614,-0.93433,0.10767,-1.84,-0.122,0.382
2026-05-20 12:44:00.479,1164579935,446479,1,0.09619,-0.50977,0.97485,-1.527,4.0,-1.74
2026-05-20 12:44:00.479,1164579935,446479,2,-0.31641,-0.93384,0.11108,-1.427,1.237,0.115
2026-05-20 12:44:00.679,1164580135,446679,1,0.11621,-0.50879,0.95483,-0.557,0.099,-0.504
2026-05-20 12:44:00.679,1164580135,446679,2,-0.28906,-0.94653,0.11938,-1.313,1.527,1.237
2026-05-20 12:44:00.189,1164579645,447189,1,0.10693,-0.50513,0.96509,-2.603,4.962,-3.435
2026-05-20 12:44:00.189,1164579645,447189,2,-0.3064,-0.93262,0.12354,-1.977,1.389,1.0
2026-05-20 12:44:01.389,1164580845,447389,1,0.11304,-0.52686,0.9585,0.176,-0.237,-0.031
2026-05-20 12:44:01.389,1164580845,447389,2,-0.29077,-0.9353,0.1145,-0.924,0.405,-0.221
2026-05-20 12:44:03.280,1164582736,450280,1,0.14673,-0.53198,0.95947,-4.046,4.939,-2.214
2026-05-20 12:44:03.280,1164582736,450280,2,-0.27588,-0.95288,0.11304,0.664,0.427,-0.42
2026-05-20 12:44:04.480,1164583936,450480,1,0.11157,-0.53638,0.9563,-1.183,-1.076,4.351
2026-05-20 12:44:04.480,1164583936,450480,2,-0.26001,-0.93066,0.11499,-0.298,-0.481,5.015
2026-05-20 12:44:04.680,1164584136,450680,1,0.06079,-0.52979,0.93799,-2.573,1.107,4.893
2026-05-20 12:44:04.680,1164584136,450680,2,-0.31055,-0.92773,0.16064,-2.031,1.153,2.748
2026-05-20 12:44:04.880,1164584336,450880,1,0.08423,-0.54565,0.92676,2.084,1.618,1.328
2026-05-20 12:44:04.880,1164584336,450880,2,-0.29858,-0.94067,0.10938,-4.221,-4.252,1.595
2026-05-20 12:44:04.080,1164583536,451080,1,0.10132,-0.53931,0.92676,-4.511,4.954,-2.863
2026-05-20 12:44:04.080,1164583536,451080,2,-0.2793,-0.9375,0.1001,-5.053,-0.519,0.122
2026-05-20 12:44:04.280,1164583736,451280,1,0.11304,-0.55688,0.94873,0.015,2.733,0.389
2026-05-20 12:44:04.280,1164583736,451280,2,-0.30029,-0.93872,0.11523,-0.908,1.122,0.481
2026-05-20 12:44:10.139,1164589595,457138,1,-0.04541,-0.61084,0.88452,0.389,3.733,3.573
2026-05-20 12:44:10.139,1164589595,457138,2,-0.39575,-0.89136,0.17334,-5.695,-0.397,-0.71
2026-05-20 12:44:10.338,1164589794,457338,1,0.01929,-0.61182,0.927,-4.954,18.374,-8.878
2026-05-20 12:44:10.338,1164589794,457338,2,-0.33618,-0.91772,0.14844,-0.763,5.748,2.183
2026-05-20 12:44:11.538,1164590994,457538,1,-0.07056,-0.62964,0.87671,-19.565,31.924,-18.092
2026-05-20 12:44:11.538,1164590994,457538,2,-0.37256,-0.87036,0.18042,-2.122,13.084,5.565
2026-05-20 12:44:11.738,1164591194,457738,1,-0.11279,-0.68481,0.84741,21.534,-34.298,8.702
2026-05-20 12:44:11.738,1164591194,457738,2,-0.43042,-0.94336,0.11426,4.496,3.13,-11.695
2026-05-20 12:44:11.938,1164591394,457938,1,-0.06079,-0.67993,0.84351,-2.878,14.809,-15.069
2026-05-20 12:44:11.938,1164591394,457938,2,-0.3811,-0.90039,0.16797,5.916,12.023,-4.519
2026-05-20 12:44:11.138,1164590594,458138,1,-0.05078,-0.61743,0.91235,16.908,-15.748,0.687
2026-05-20 12:44:11.138,1164590594,458138,2,-0.38989,-0.89355,0.16113,1.542,2.519,-5.084
2026-05-20 12:44:11.338,1164590794,458338,1,0.04395,-0.55054,0.9314,7.885,-10.954,-1.641
2026-05-20 12:44:11.338,1164590794,458338,2,-0.32544,-0.91089,0.15723,1.71,7.672,-3.344
2026-05-20 12:44:12.538,1164591994,458538,1,0.05835,-0.56641,0.91577,0.435,6.176,-6.443
2026-05-20 12:44:12.538,1164591994,458538,2,-0.34985,-0.91211,0.14502,-3.26,0.336,0.55
2026-05-20 12:44:12.738,1164592194,458738,1,0.03027,-0.58105,0.92773,-4.496,6.672,-4.023
2026-05-20 12:44:12.738,1164592194,458738,2,-0.34668,-0.91235,0.14502,-3.763,1.359,1.901
2026-05-20 12:44:12.968,1164592424,458968,1,0.01978,-0.59619,0.91406,-3.427,8.13,-5.511
2026-05-20 12:44:12.968,1164592424,458968,2,-0.35718,-0.91162,0.13721,-2.359,2.038,1.916
2026-05-20 12:44:12.168,1164591624,459168,1,0.02344,-0.58496,0.90918,0.214,-1.679,1.664
2026-05-20 12:44:12.168,1164591624,459168,2,-0.35107,-0.9126,0.13452,-1.672,1.191,0.405
2026-05-20 12:44:13.404,1164592860,459403,1,0.01416,-0.59082,0.91479,-2.069,3.962,-4.275
2026-05-20 12:44:13.404,1164592860,459403,2,-0.37012,-0.91309,0.12622,-1.023,3.122,-0.122
2026-05-20 12:44:13.603,1164593059,459603,1,0.04736,-0.58691,0.91846,0.466,0.458,-0.405
2026-05-20 12:44:13.603,1164593059,459603,2,-0.34839,-0.91479,0.13037,-1.42,0.931,0.504
2026-05-20 12:44:13.803,1164593259,459803,1,0.02051,-0.59814,0.92432,-0.748,2.221,-1.435
2026-05-20 12:44:13.803,1164593259,459803,2,-0.35742,-0.90845,0.14233,-1.237,0.931,0.588
2026-05-20 12:44:13.003,1164592459,460003,1,0.03394,-0.5957,0.91748,-0.466,1.435,-1.008
2026-05-20 12:44:13.003,1164592459,460003,2,-0.34937,-0.90771,0.13623,-0.924,1.328,0.321
2026-05-20 12:44:14.435,1164593891,460434,1,0.03369,-0.60034,0.91211,-0.588,1.55,-1.489
2026-05-20 12:44:14.435,1164593891,460434,2,-0.35254,-0.91138,0.13965,-1.137,0.069,0.351
2026-05-20 12:44:14.634,1164594090,460634,1,0.02588,-0.59668,0.91992,-0.313,1.336,-1.061
2026-05-20 12:44:14.634,1164594090,460634,2,-0.34351,-0.91821,0.13989,0.191,-0.847,1.115
2026-05-20 12:44:14.951,1164594407,460951,1,0.03906,-0.60205,0.91382,0.137,0.84,-0.191
2026-05-20 12:44:14.951,1164594407,460951,2,-0.34473,-0.91162,0.13647,-2.099,0.267,0.435
2026-05-20 12:44:14.151,1164593607,461151,1,0.02905,-0.59961,0.9104,0.298,1.344,-0.603
2026-05-20 12:44:14.151,1164593607,461151,2,-0.33716,-0.91675,0.12817,2.481,4.924,0.496
2026-05-20 12:44:14.351,1164593807,461351,1,0.09351,-0.57764,0.89917,9.16,-12.695,7.847
2026-05-20 12:44:14.351,1164593807,461351,1,0.09351,-0.57764,0.89917,9.16,-12.695,7.847
2026-05-20 12:44:14.351,1164593807,461351,2,-0.34058,-0.91235,0.1438,-0.977,0.458,0.176
2026-05-20 12:44:22.325,1164601781,469325,1,0.06641,-0.57056,0.93628,-0.153,1.397,-1.015
2026-05-20 12:44:22.325,1164601781,469325,2,-0.34058,-0.91602,0.13086,-1.26,0.557,0.557
2026-05-20 12:44:23.525,1164602981,469525,1,0.06689,-0.57788,0.927,-0.366,1.42,-0.611
2026-05-20 12:44:23.525,1164602981,469525,2,-0.33008,-0.91919,0.14307,-1.489,1.679,0.901
2026-05-20 12:44:26.728,1164606184,472728,1,0.04272,-0.58301,0.91846,0.237,0.145,-0.725
2026-05-20 12:44:26.728,1164606184,472728,2,-0.3418,-0.91797,0.13574,-1.87,0.725,1.0
2026-05-20 12:44:26.928,1164606384,472928,1,0.04639,-0.57422,0.92188,0.115,-0.45,0.87
2026-05-20 12:44:26.928,1164606384,472928,2,-0.33228,-0.91211,0.11694,-0.977,0.771,0.603
2026-05-20 12:44:26.178,1164605634,473178,1,0.052,-0.55347,0.93799,0.366,-1.542,2.084
2026-05-20 12:44:26.178,1164605634,473178,2,-0.32739,-0.90747,0.15991,-4.29,-0.099,1.366
2026-05-20 12:44:27.378,1164606834,473378,1,0.05615,-0.58423,0.92822,-0.275,-1.023,1.298
2026-05-20 12:44:27.378,1164606834,473378,2,-0.33276,-0.91504,0.14746,-1.893,0.374,0.473
2026-05-20 12:44:27.578,1164607034,473578,1,0.05005,-0.58374,0.93115,-1.26,1.878,-1.786
2026-05-20 12:44:27.578,1164607034,473578,2,-0.33472,-0.92822,0.13428,-1.74,0.458,0.321
2026-05-20 12:44:27.778,1164607234,473778,1,0.05859,-0.57666,0.91138,1.008,0.733,-0.748
2026-05-20 12:44:27.778,1164607234,473778,2,-0.33398,-0.9165,0.12207,0.26,0.008,0.893
2026-05-20 12:44:27.052,1164606508,474052,1,0.05591,-0.56592,0.93506,-1.038,0.786,-0.74
2026-05-20 12:44:27.052,1164606508,474052,2,-0.33765,-0.91406,0.15063,-2.656,0.305,0.794
2026-05-20 12:44:27.252,1164606708,474252,1,0.07495,-0.57861,0.93628,-0.405,-1.557,1.863
2026-05-20 12:44:27.252,1164606708,474252,2,-0.32446,-0.91699,0.12842,-1.74,2.092,0.809
2026-05-20 12:44:28.452,1164607908,474452,1,0.05347,-0.57813,0.93384,-1.237,1.298,0.038
2026-05-20 12:44:28.452,1164607908,474452,2,-0.35278,-0.93481,0.0896,2.58,1.45,-1.214
2026-05-20 12:44:28.652,1164608108,474652,1,0.09863,-0.58765,0.896,-10.931,3.565,13.702
2026-05-20 12:44:28.652,1164608108,474652,2,-0.3501,-0.90356,0.18188,0.756,-8.115,6.802
2026-05-20 12:44:33.853,1164613309,479853,1,0.10669,-0.54541,0.94482,-1.145,2.13,-0.137
2026-05-20 12:44:33.853,1164613309,479853,2,-0.34839,-0.89478,0.20166,-1.229,0.473,0.588
2026-05-20 12:44:33.053,1164612509,480053,1,0.10474,-0.54224,0.95532,0.137,1.053,0.641
2026-05-20 12:44:33.053,1164612509,480053,2,-0.3374,-0.89771,0.20605,-0.519,1.618,0.824
2026-05-20 12:44:33.253,1164612709,480253,1,0.10205,-0.54126,0.94507,-0.061,3.122,0.038
2026-05-20 12:44:33.253,1164612709,480253,2,-0.34497,-0.9021,0.19678,-1.053,2.641,0.412
2026-05-20 12:44:36.124,1164615580,483124,1,0.09961,-0.52588,0.95923,-0.595,-0.924,1.45
2026-05-20 12:44:36.124,1164615580,483124,2,-0.34644,-0.89307,0.22925,-2.328,1.893,0.786
2026-05-20 12:44:36.324,1164615780,483324,1,0.09253,-0.5354,0.95337,-0.557,-1.824,0.992
2026-05-20 12:44:36.324,1164615780,483324,2,-0.35767,-0.88867,0.22192,-2.397,-0.649,0.473
2026-05-20 12:44:37.599,1164617055,483599,1,0.07593,-0.53052,0.95654,-1.985,3.099,-3.58
2026-05-20 12:44:37.599,1164617055,483599,2,-0.35059,-0.88574,0.20947,-2.58,1.13,-0.015
2026-05-20 12:44:37.799,1164617255,483799,1,0.10327,-0.53979,0.9502,-1.939,2.191,-2.595
2026-05-20 12:44:37.799,1164617255,483799,2,-0.3457,-0.89478,0.21948,-3.168,1.84,-0.206
2026-05-20 12:44:37.999,1164617455,483999,1,0.10815,-0.54712,0.94629,-0.076,1.176,-1.603
2026-05-20 12:44:37.999,1164617455,483999,2,-0.33521,-0.89893,0.20508,-1.282,-0.817,0.542
2026-05-20 12:44:37.233,1164616689,484233,1,0.10376,-0.54053,0.95898,-1.473,3.168,-1.282
2026-05-20 12:44:37.233,1164616689,484233,2,-0.34521,-0.88818,0.21729,-1.832,0.206,0.504
2026-05-20 12:44:38.433,1164617889,484433,1,0.104,-0.53296,0.95313,-0.252,0.771,0.321
2026-05-20 12:44:38.433,1164617889,484433,2,-0.32837,-0.90625,0.20728,-2.221,1.214,-0.481
2026-05-20 12:44:38.924,1164618380,484924,1,0.11401,-0.54297,0.94678,-2.145,3.573,-2.87
2026-05-20 12:44:38.924,1164618380,484924,2,-0.33765,-0.89575,0.19507,-1.916,-1.397,0.634
2026-05-20 12:44:38.124,1164617580,485124,1,0.11987,-0.54053,0.93628,1.527,-1.519,2.489
2026-05-20 12:44:38.124,1164617580,485124,2,-0.32715,-0.90283,0.19702,-1.679,2.069,1.107
2026-05-20 12:44:38.324,1164617780,485324,1,0.10352,-0.54858,0.94141,-0.237,-0.267,0.733
2026-05-20 12:44:38.324,1164617780,485324,2,-0.33569,-0.90039,0.19702,-1.847,0.305,0.809
2026-05-20 12:44:39.524,1164618980,485524,1,0.11938,-0.53394,0.95386,-0.649,0.13,2.191
2026-05-20 12:44:39.524,1164618980,485524,2,-0.34082,-0.89673,0.20142,-2.527,2.786,1.962
2026-05-20 12:44:41.255,1164620711,488255,1,0.10791,-0.53711,0.96704,-1.008,3.473,-2.237
2026-05-20 12:44:41.255,1164620711,488255,2,-0.34058,-0.89819,0.21045,-1.802,1.046,0.473
2026-05-20 12:44:42.455,1164621911,488455,1,0.1001,-0.54468,0.94897,0.099,-0.511,-0.229
2026-05-20 12:44:42.455,1164621911,488455,2,-0.34399,-0.90283,0.20703,-2.718,0.84,0.672
2026-05-20 12:44:42.667,1164622123,488667,1,0.1106,-0.5376,0.9502,0.366,0.893,0.046
2026-05-20 12:44:42.667,1164622123,488667,2,-0.32397,-0.89941,0.18237,-1.779,-0.115,0.435
2026-05-20 12:44:45.860,1164625316,491859,1,0.11719,-0.52954,0.96094,-0.443,1.229,-0.71
2026-05-20 12:44:45.860,1164625316,491859,2,-0.33789,-0.90454,0.19043,-1.504,0.473,0.55
2026-05-20 12:44:45.059,1164624515,492059,1,0.1145,-0.53076,0.95532,0.298,0.817,-0.229
2026-05-20 12:44:45.059,1164624515,492059,2,-0.33765,-0.8999,0.19238,-1.107,0.626,0.763
2026-05-20 12:44:45.259,1164624715,492259,1,0.1167,-0.5249,0.95752,0.397,1.275,0.321
2026-05-20 12:44:45.259,1164624715,492259,2,-0.33081,-0.9082,0.20508,-1.153,0.588,0.855
2026-05-20 12:44:46.459,1164625915,492459,1,0.11572,-0.52515,0.95361,-0.573,1.206,-0.183
2026-05-20 12:44:46.459,1164625915,492459,2,-0.34448,-0.90137,0.19336,-1.107,0.763,1.015
2026-05-20 12:44:46.659,1164626115,492659,1,0.10962,-0.5249,0.95801,-0.664,1.695,0.069
2026-05-20 12:44:46.659,1164626115,492659,2,-0.33618,-0.8999,0.19629,-1.267,0.603,0.947
2026-05-20 12:44:46.859,1164626315,492859,1,0.10718,-0.52539,0.95288,-0.275,1.374,-0.168
2026-05-20 12:44:46.859,1164626315,492859,2,-0.33911,-0.89966,0.19751,-1.252,0.802,0.252
2026-05-20 12:44:46.121,1164625577,493121,1,0.11304,-0.52417,0.96582,0.153,1.298,-0.985
2026-05-20 12:44:46.121,1164625577,493121,2,-0.34229,-0.90332,0.18555,-1.305,1.0,0.397
2026-05-20 12:44:46.321,1164625777,493321,1,0.11792,-0.51978,0.95776,-0.328,1.504,-1.435
2026-05-20 12:44:46.321,1164625777,493321,1,0.11792,-0.51978,0.95776,-0.328,1.504,-1.435
2026-05-20 12:44:46.321,1164625777,493321,2,-0.3396,-0.90405,0.18848,-1.198,0.435,0.611
2026-05-20 12:44:52.442,1164631898,498442,1,0.11646,-0.5271,0.96167,-0.244,1.221,-0.214
2026-05-20 12:44:52.442,1164631898,498442,2,-0.34668,-0.90234,0.18994,-1.397,0.397,0.74
2026-05-20 12:44:52.642,1164632098,498642,1,0.1145,-0.53784,0.95361,-0.595,0.557,-0.74
2026-05-20 12:44:52.642,1164632098,498642,2,-0.33081,-0.90186,0.19067,-1.069,0.779,0.74
2026-05-20 12:44:52.858,1164632314,498858,1,0.11279,-0.52905,0.96143,-0.214,0.87,-0.389
2026-05-20 12:44:52.858,1164632314,498858,2,-0.34497,-0.90161,0.18188,-1.947,0.397,0.603
2026-05-20 12:44:52.058,1164631514,499058,1,0.11035,-0.53052,0.95435,-0.153,1.145,-0.695
2026-05-20 12:44:52.058,1164631514,499058,2,-0.3396,-0.90283,0.18066,-1.458,0.649,0.374
2026-05-20 12:44:52.258,1164631714,499258,1,0.11206,-0.53101,0.95923,-0.206,1.573,-0.931
2026-05-20 12:44:52.258,1164631714,499258,2,-0.33276,-0.90552,0.18384,-1.252,0.298,0.397
2026-05-20 12:44:53.458,1164632914,499458,1,0.12256,-0.52344,0.95557,-0.389,1.924,-0.687
2026-05-20 12:44:53.458,1164632914,499458,2,-0.36475,-0.88062,0.21606,-0.931,-2.565,2.237
2026-05-20 12:44:56.553,1164636009,502553,1,0.09082,-0.49512,0.97803,1.389,0.45,1.55
2026-05-20 12:44:56.553,1164636009,502553,2,-0.34766,-0.88086,0.22754,-1.519,-1.115,0.817
2026-05-20 12:44:56.753,1164636209,502753,1,0.1106,-0.5,0.96704,-0.718,-0.55,1.076
2026-05-20 12:44:56.753,1164636209,502753,2,-0.34497,-0.88696,0.2356,-1.977,-1.008,1.008
2026-05-20 12:44:56.953,1164636409,502953,1,0.11304,-0.50659,0.97534,-0.969,0.595,1.511
2026-05-20 12:44:56.953,1164636409,502953,2,-0.35327,-0.89111,0.22437,-1.649,0.534,0.405
2026-05-20 12:44:59.037,1164638493,506036,1,0.11206,-0.50586,0.95654,-0.061,1.672,-0.183
2026-05-20 12:44:59.037,1164638493,506036,2,-0.34155,-0.896,0.21216,-1.771,1.061,0.718
2026-05-20 12:45:02.230,1164641686,509229,1,0.12329,-0.51587,0.96362,-0.031,1.099,-0.435
2026-05-20 12:45:02.230,1164641686,509229,2,-0.33838,-0.89893,0.2019,-0.969,0.962,0.725
2026-05-20 12:45:03.429,1164642885,509429,1,0.10864,-0.50781,0.97314,-0.092,1.176,-0.443
2026-05-20 12:45:03.429,1164642885,509429,2,-0.33887,-0.88989,0.20239,-1.45,0.573,0.634
2026-05-20 12:45:03.743,1164643199,509743,1,0.10278,-0.51611,0.96484,0.168,1.015,-0.13
2026-05-20 12:45:03.743,1164643199,509743,2,-0.33789,-0.89502,0.20654,-1.069,0.947,0.511
2026-05-20 12:45:03.943,1164643399,509943,1,0.10913,-0.50854,0.96265,-0.069,1.344,-0.511
2026-05-20 12:45:03.943,1164643399,509943,2,-0.33301,-0.90039,0.20728,-1.191,1.023,0.55
2026-05-20 12:45:03.143,1164642599,510143,1,0.11499,-0.5144,0.96143,0.076,1.214,-0.641
2026-05-20 12:45:03.143,1164642599,510143,2,-0.34595,-0.89917,0.21045,-1.092,-1.168,0.885
2026-05-20 12:45:04.599,1164644055,510598,1,0.1123,-0.51025,0.95459,1.183,1.511,3.42
2026-05-20 12:45:04.599,1164644055,510598,2,-0.33716,-0.89038,0.21362,-0.053,-0.443,2.0
2026-05-20 12:45:04.798,1164644254,510798,1,0.11865,-0.49414,0.97778,2.595,-4.779,7.26
2026-05-20 12:45:04.798,1164644254,510798,2,-0.34473,-0.88306,0.21143,-0.527,-2.214,2.901
2026-05-20 12:45:04.998,1164644454,510998,1,0.09253,-0.49878,0.98071,-4.275,4.924,0.824
2026-05-20 12:45:04.998,1164644454,510998,2,-0.35913,-0.88672,0.22046,-3.901,1.244,1.359
2026-05-20 12:45:07.088,1164646544,514088,1,0.09106,-0.50562,0.97168,-3.046,1.718,-6.237
2026-05-20 12:45:07.088,1164646544,514088,2,-0.34058,-0.8689,0.23877,-4.198,5.985,0.084
2026-05-20 12:45:07.288,1164646744,514288,1,0.14502,-0.51782,0.93604,-2.489,10.481,-13.947
2026-05-20 12:45:07.288,1164646744,514288,2,-0.3291,-0.93262,0.16943,-14.145,-7.305,6.664
2026-05-20 12:45:08.488,1164647944,514488,1,0.04785,-0.57886,0.9563,-5.779,5.107,-7.641
2026-05-20 12:45:08.488,1164647944,514488,2,-0.38281,-0.89551,0.2019,0.252,8.267,0.748
2026-05-20 12:45:08.688,1164648144,514688,1,0.08643,-0.54517,0.94873,5.176,1.26,-2.214
2026-05-20 12:45:08.688,1164648144,514688,2,-0.42236,-0.85498,0.21729,-2.29,4.519,0.267
2026-05-20 12:45:09.984,1164649440,515983,1,0.00562,-0.55518,0.93994,-4.221,3.504,-6.809
2026-05-20 12:45:09.984,1164649440,515983,2,-0.41919,-0.854,0.22192,-2.481,0.649,-1.344
2026-05-20 12:45:09.183,1164648639,516183,1,0.0498,-0.55884,0.95557,1.206,-1.985,-2.496
2026-05-20 12:45:09.183,1164648639,516183,2,-0.39966,-0.86963,0.21143,-2.916,0.649,1.099
2026-05-20 12:45:12.299,1164651755,519299,1,0.06738,-0.55103,0.95435,0.328,-3.084,2.176
2026-05-20 12:45:12.299,1164651755,519299,2,-0.39063,-0.87329,0.21216,-2.153,0.847,0.824
2026-05-20 12:45:13.499,1164652955,519499,1,0.06543,-0.53955,0.95142,-1.366,4.405,-0.656
2026-05-20 12:45:13.499,1164652955,519499,2,-0.40332,-0.87036,0.20605,-2.214,1.359,0.527
2026-05-20 12:45:13.699,1164653155,519699,1,0.07349,-0.54565,0.95166,0.244,-0.45,-0.374
2026-05-20 12:45:13.699,1164653155,519699,2,-0.39526,-0.87402,0.19312,-1.053,0.092,0.183
2026-05-20 12:45:18.541,1164657997,524541,1,0.06689,-0.55103,0.94946,0.183,1.45,-2.542
2026-05-20 12:45:18.541,1164657997,524541,2,-0.3877,-0.87671,0.19995,-0.832,0.542,-0.214
2026-05-20 12:45:18.741,1164658197,524741,1,0.06958,-0.55469,0.94263,-0.076,1.122,-2.321
2026-05-20 12:45:18.741,1164658197,524741,2,-0.3916,-0.87573,0.19458,-0.275,-3.664,-0.603
2026-05-20 12:45:18.941,1164658397,524941,1,0.07568,-0.55127,0.93994,-0.534,4.695,-1.496
2026-05-20 12:45:18.941,1164658397,524941,2,0.21143,-0.79932,0.33423,-44.252,-78.939,43.275
2026-05-20 12:45:23.024,1164662480,530024,1,0.3313,-0.21094,1.01465,-57.458,-18.817,70.221
2026-05-20 12:45:23.024,1164662480,530024,2,0.22949,-0.73926,0.10864,-75.313,-128.374,84.374
2026-05-20 12:45:23.224,1164662680,530224,1,0.14819,-0.46143,0.48486,-50.832,-45.13,74.084
2026-05-20 12:45:23.224,1164662680,530224,2,0.44897,-0.91626,-0.2124,-40.847,-103.107,56.511
2026-05-20 12:45:24.424,1164663880,530424,1,-0.34814,-0.91626,0.64307,17.076,-45.74,47.489
2026-05-20 12:45:24.424,1164663880,530424,2,-0.20166,-0.87524,-0.06299,-13.305,-50.267,-19.115
2026-05-20 12:45:24.624,1164664080,530624,1,-0.05054,-0.77368,0.70361,-24.13,-37.817,17.573
2026-05-20 12:45:24.624,1164664080,530624,2,-0.14502,-0.94653,-0.0752,-22.13,-60.359,5.489
2026-05-20 12:45:24.824,1164664280,530824,1,0.08447,-0.83472,0.65112,4.237,-37.542,23.939
2026-05-20 12:45:24.824,1164664280,530824,2,-0.14673,-0.91235,-0.17773,-12.359,-9.802,9.664
2026-05-20 12:45:24.024,1164663480,531024,1,0.09033,-1.0127,0.69775,-7.443,-27.634,-9.336
2026-05-20 12:45:24.024,1164663480,531024,2,-0.23584,-1.19629,-0.40674,-17.275,-10.206,-14.702
2026-05-20 12:45:24.224,1164663680,531224,1,0.45825,-0.72363,0.77295,-36.878,3.771,-26.473
2026-05-20 12:45:24.224,1164663680,531224,2,-0.41016,-1.01782,0.12329,21.031,0.718,36.87
2026-05-20 12:45:25.424,1164664880,531424,1,0.30786,-0.71313,0.65405,-7.473,16.573,10.053
2026-05-20 12:45:25.424,1164664880,531424,2,-0.12866,-0.92676,-0.26489,0.427,51.122,30.107
2026-05-20 12:45:25.624,1164665080,531624,1,0.16284,-0.93896,0.63037,-17.718,35.344,2.786
2026-05-20 12:45:25.624,1164665080,531624,2,-0.11646,-0.97461,-0.54297,-9.382,46.893,25.359
2026-05-20 12:45:25.824,1164665280,531824,1,0.01855,-0.90381,0.53467,0.115,42.015,-14.496
2026-05-20 12:45:25.824,1164665280,531824,2,-0.23291,-1.0354,0.0957,33.412,63.481,3.779
2026-05-20 12:45:25.024,1164664480,532024,1,-0.06958,-0.8418,0.52515,-13.053,59.855,-15.275
2026-05-20 12:45:25.024,1164664480,532024,2,-0.2417,-0.83057,-0.15698,20.824,33.183,5.916
2026-05-20 12:45:25.224,1164664680,532224,1,-0.02856,-1.02734,0.51855,-9.702,9.298,-7.0
2026-05-20 12:45:25.224,1164664680,532224,2,-0.36133,-1.08594,-0.23242,-2.115,22.031,9.328
2026-05-20 12:45:26.424,1164665880,532424,1,-0.073,-0.71826,0.64111,-33.13,12.076,-12.87
2026-05-20 12:45:26.424,1164665880,532424,2,-0.42798,-1.05493,-0.35352,-36.031,69.0,14.153
2026-05-20 12:45:26.652,1164666108,532652,1,0.19458,-0.84326,0.49976,7.893,8.099,-6.168
2026-05-20 12:45:26.652,1164666108,532652,2,-0.04663,-0.93604,-0.25903,-11.794,-8.763,5.588
2026-05-20 12:45:26.852,1164666308,532852,1,0.19409,-0.92773,0.56494,-3.252,1.771,-21.87
2026-05-20 12:45:26.852,1164666308,532852,2,-0.07739,-0.85571,-0.37793,-26.595,36.885,31.099
2026-05-20 12:45:26.052,1164665508,533052,1,0.01611,-0.98071,0.6604,7.305,56.496,-28.244
2026-05-20 12:45:26.052,1164665508,533052,2,-0.33667,-0.92944,-0.00708,42.817,52.847,-13.58
2026-05-20 12:45:26.252,1164665708,533252,1,-0.02686,-0.80347,0.55518,16.649,34.389,-15.756
2026-05-20 12:45:26.252,1164665708,533252,2,-0.17847,-0.7522,-0.08789,0.466,21.802,-9.214
2026-05-20 12:45:27.452,1164666908,533452,1,0.1145,-0.8623,0.63135,15.595,-3.267,-26.87
2026-05-20 12:45:27.452,1164666908,533452,2,-0.21045,-1.01929,-0.28516,-15.221,34.275,5.168
2026-05-20 12:45:27.652,1164667108,533652,1,0.07788,-0.771,0.7356,-1.168,-16.748,28.008
2026-05-20 12:45:27.652,1164667108,533652,2,0.02783,-1.16748,-0.09204,25.305,-40.748,-32.405
2026-05-20 12:45:27.852,1164667308,533852,1,0.32788,-0.81226,0.72583,31.099,-13.221,23.809
2026-05-20 12:45:27.852,1164667308,533852,2,-0.0105,-0.84448,-0.19775,13.519,3.382,22.534
2026-05-20 12:45:27.052,1164666508,534052,1,0.17383,-0.78345,0.78442,11.427,16.473,0.618
2026-05-20 12:45:27.052,1164666508,534052,2,-0.0647,-1.17114,0.13794,35.557,35.214,-37.962
2026-05-20 12:45:27.252,1164666708,534252,1,-0.08569,-0.59863,0.95215,13.847,45.0,-44.74
2026-05-20 12:45:27.252,1164666708,534252,2,-0.03516,-1.06079,0.16211,33.817,40.809,-3.733
2026-05-20 12:45:28.452,1164667908,534452,1,-0.1167,-0.66748,0.75342,12.351,38.595,-41.924
2026-05-20 12:45:28.452,1164667908,534452,2,-0.13721,-0.96411,0.1062,3.214,59.786,-30.031
2026-05-20 12:45:28.652,1164668108,534652,1,0.04419,-0.71362,0.92749,15.954,22.015,-39.702
2026-05-20 12:47:58.278,1164817734,5278,1,0.80225,0.0144,0.72583,-3.58,13.695,0.229
2026-05-20 12:47:58.278,1164817734,5278,2,0.89478,-0.4502,-0.29858,-5.878,-4.84,4.42
2026-05-20 12:47:58.478,1164817934,5478,1,0.80688,-0.02637,0.73291,3.71,10.191,0.443
2026-05-20 12:47:58.478,1164817934,5478,2,0.88403,-0.4751,-0.25879,0.656,1.45,-2.71
2026-05-20 12:47:58.678,1164818134,5678,1,0.81445,-0.021,0.75171,1.321,0.626,-2.344
2026-05-20 12:47:58.678,1164818134,5678,2,0.88965,-0.45776,-0.27563,7.015,-0.321,-2.885
2026-05-20 12:47:58.878,1164818334,5878,1,0.81787,-0.01099,0.74683,-2.802,-25.519,7.305
2026-05-20 12:47:58.878,1164818334,5878,2,0.92603,-0.38159,-0.44702,23.031,11.931,-6.298
2026-05-20 12:47:58.078,1164817534,6078,1,0.87012,-0.04419,0.67603,-1.229,-28.939,2.183
2026-05-20 12:47:58.078,1164817534,6078,2,0.05225,-0.34668,0.07617,24.397,134.969,-10.756
2026-05-20 12:47:59.278,1164818734,6278,1,1.0708,-0.02515,0.59424,-16.336,42.252,-11.954
2026-05-20 12:47:59.278,1164818734,6278,2,0.8894,0.01123,-0.12158,134.397,11.779,35.756
2026-05-20 12:47:59.478,1164818934,6478,1,1.15918,0.00293,0.69434,41.229,172.771,28.969
2026-05-20 12:47:59.478,1164818934,6478,2,0.8125,-0.29126,-0.04419,203.183,38.16,51.595
2026-05-20 12:47:59.678,1164819134,6678,1,0.86719,0.00464,0.65161,44.771,39.26,-0.076
2026-05-20 12:47:59.678,1164819134,6678,2,0.91431,-0.41577,-0.1626,3.046,13.702,-1.84
2026-05-20 12:47:59.878,1164819334,6878,1,0.8689,0.00342,0.62183,-7.55,-7.84,-10.893
2026-05-20 12:47:59.878,1164819334,6878,2,0.92993,-0.47852,-0.29785,-10.954,1.458,6.863
2026-05-20 12:47:59.078,1164818534,7078,1,0.87671,0.02271,0.6167,-3.244,-17.015,1.595
2026-05-20 12:47:59.078,1164818534,7078,2,0.93823,-0.57446,-0.20313,32.046,0.489,-4.763
2026-05-20 12:48:00.278,1164819734,7278,1,0.8811,-0.00122,0.62451,-7.534,-1.458,-1.649
2026-05-20 12:48:00.278,1164819734,7278,2,0.89868,-0.49902,-0.27051,12.786,-5.672,0.221
2026-05-20 12:48:00.478,1164819934,7478,1,0.89771,0.01807,0.63525,-6.053,-1.168,-1.565
2026-05-20 12:48:00.478,1164819934,7478,2,0.89282,-0.47607,-0.2771,2.107,-3.74,-0.374
2026-05-20 12:48:00.678,1164820134,7678,1,0.89429,0.03833,0.64038,-6.557,-2.298,1.45
2026-05-20 12:48:00.678,1164820134,7678,2,0.90112,-0.45093,-0.27246,-3.328,3.076,-1.29
2026-05-20 12:48:00.878,1164820334,7878,1,0.91504,-0.02783,0.60181,11.023,2.076,5.061
2026-05-20 12:48:00.878,1164820334,7878,2,0.88403,-0.46509,-0.27661,-10.122,5.45,-9.641
2026-05-20 12:48:00.078,1164819534,8078,1,0.91919,0.03345,0.63013,15.985,-0.756,9.366
2026-05-20 12:48:00.078,1164819534,8078,2,0.91138,-0.41968,-0.27466,13.267,-7.534,-1.565
2026-05-20 12:48:01.278,1164820734,8278,1,0.91357,-0.00317,0.59546,12.672,-1.168,-0.634
2026-05-20 12:48:01.278,1164820734,8278,2,0.90649,-0.47192,-0.27026,17.053,3.229,0.031
2026-05-20 12:48:01.478,1164820934,8478,1,0.92432,0.04443,0.59644,-2.496,-0.237,-7.084
2026-05-20 12:48:01.478,1164820934,8478,2,0.9165,-0.42261,-0.34888,-9.55,2.008,-0.176
2026-05-20 12:48:01.678,1164821134,8678,1,0.92285,0.06372,0.62256,-9.908,12.885,-8.237
2026-05-20 12:48:01.678,1164821134,8678,2,0.90186,-0.40845,-0.29077,-32.206,-4.115,1.412
2026-05-20 12:48:01.878,1164821334,8878,1,0.91016,0.05444,0.60962,0.206,4.046,-4.534
2026-05-20 12:48:01.878,1164821334,8878,2,0.88916,-0.44458,-0.30078,-4.809,0.573,4.832
2026-05-20 12:48:01.078,1164820534,9078,1,0.89673,0.06323,0.62036,-4.519,1.115,-3.405
2026-05-20 12:48:01.078,1164820534,9078,2,0.88208,-0.44849,-0.3125,-6.176,-0.496,3.702
2026-05-20 12:48:02.278,1164821734,9278,1,0.9165,0.05737,0.59766,-2.489,-1.641,-1.115
2026-05-20 12:48:02.278,1164821734,9278,2,0.89795,-0.46021,-0.32056,-3.405,-0.458,2.382
2026-05-20 12:48:02.478,1164821934,9478,1,0.91357,0.0708,0.60986,0.809,-0.733,0.237
2026-05-20 12:48:02.478,1164821934,9478,2,0.89063,-0.45386,-0.29761,0.107,-0.466,0.511
2026-05-20 12:48:02.678,1164822134,9678,1,0.98462,0.04614,0.625,7.321,31.55,-0.664
2026-05-20 12:48:02.678,1164822134,9678,2,0.98389,-0.45605,-0.17896,41.267,44.359,-31.802
2026-05-20 12:48:02.878,1164822334,9878,1,0.73486,0.16187,0.77637,34.924,40.542,13.13
2026-05-20 12:48:02.878,1164822334,9878,2,0.94946,-0.33789,-0.14868,64.45,5.718,-21.977
2026-05-20 12:48:02.078,1164821534,10078,1,0.59644,0.22412,0.84277,25.817,5.504,24.519
2026-05-20 12:48:02.078,1164821534,10078,2,0.92432,-0.20898,-0.13721,21.809,-24.908,10.252
