datetime,epoch_ms,ts_millis,mpu_id,ax,ay,az,gx,gy,gz
2026-06-01 15:23:19.007,2210938463,626007,2,1.27686,-0.25513,0.18604,-24.198,-27.176,8.679
2026-06-01 15:23:39.699,2210959155,645699,1,0.89111,-0.0481,0.67383,-0.534,1.702,-2.115
2026-06-01 15:23:39.699,2210959155,645699,2,0.96851,-0.3667,0.02588,1.427,-0.198,0.985
2026-06-01 15:23:39.204,2210958660,646204,1,0.91528,-0.06665,0.63281,-3.985,2.969,-3.076
2026-06-01 15:23:39.204,2210958660,646204,2,0.94507,-0.36938,0.02393,1.55,0.702,-0.267
2026-06-01 15:23:39.468,2210958924,646468,1,0.89014,-0.05469,0.66187,-3.214,0.916,1.458
2026-06-01 15:23:39.468,2210958924,646468,2,0.95679,-0.37915,0.01538,-3.435,0.901,1.221
2026-06-01 15:23:44.026,2210963482,651026,1,0.89575,-0.06934,0.65039,-4.756,0.221,-1.771
2026-06-01 15:23:44.026,2210963482,651026,2,0.96265,-0.37842,0.01782,-1.71,0.305,0.924
2026-06-01 15:23:44.228,2210963684,651228,1,0.90283,-0.07056,0.65967,-1.695,0.802,-0.626
2026-06-01 15:23:44.228,2210963684,651228,2,0.94751,-0.37988,0.02417,-1.84,-0.023,0.015
2026-06-01 15:23:45.649,2210965105,651648,1,0.89844,-0.06836,0.64844,0.664,1.206,-1.031
2026-06-01 15:23:45.649,2210965105,651648,2,0.95752,-0.37598,0.01099,-0.229,-0.87,0.908
2026-06-01 15:23:45.848,2210965304,651848,1,0.90088,-0.07422,0.6543,0.214,0.679,-1.473
2026-06-01 15:23:45.848,2210965304,651848,2,0.9646,-0.3811,0.00391,0.939,-0.687,1.817
2026-06-01 15:23:45.048,2210964504,652048,1,0.89941,-0.06494,0.63379,2.061,1.0,1.015
2026-06-01 15:23:45.048,2210964504,652048,2,0.96118,-0.37573,0.00122,-1.847,0.809,0.573
2026-06-01 15:23:45.248,2210964704,652248,1,0.90576,-0.07593,0.6521,0.145,2.58,-0.611
2026-06-01 15:23:45.248,2210964704,652248,2,0.95239,-0.38037,-0.01099,-0.153,0.405,1.176
2026-06-01 15:23:45.448,2210964904,652448,1,0.89868,-0.06177,0.64136,4.099,2.405,-0.374
2026-06-01 15:23:45.448,2210964904,652448,2,0.95337,-0.38623,-0.00879,0.511,0.397,0.458
2026-06-01 15:23:46.648,2210966104,652648,1,0.89844,-0.05566,0.64819,0.13,0.55,-3.534
2026-06-01 15:23:46.648,2210966104,652648,2,0.94653,-0.38257,-0.00342,-4.733,-0.168,1.328
2026-06-01 15:23:46.848,2210966304,652848,1,0.91357,-0.05127,0.63647,-2.458,0.611,-4.176
2026-06-01 15:23:46.848,2210966304,652848,2,0.95972,-0.38086,0.00513,-1.687,1.511,0.924
2026-06-01 15:23:46.147,2210965603,653147,1,0.90918,-0.05127,0.64478,-4.695,0.466,-2.687
2026-06-01 15:23:46.147,2210965603,653147,2,0.96118,-0.38672,0.00122,-1.71,1.458,2.176
2026-06-01 15:23:46.347,2210965803,653347,1,0.90161,-0.05029,0.63696,-3.176,0.031,0.214
2026-06-01 15:23:46.347,2210965803,653347,2,0.94946,-0.38013,0.0061,-3.237,0.794,0.786
2026-06-01 15:23:46.559,2210966015,653559,1,0.90015,-0.06665,0.6311,-1.924,0.389,0.443
2026-06-01 15:23:46.559,2210966015,653559,2,0.94775,-0.37891,0.00977,-2.031,-1.443,1.244
2026-06-01 15:23:47.759,2210967215,653759,1,0.91162,-0.07227,0.63354,0.115,-2.115,-0.855
2026-06-01 15:23:47.759,2210967215,653759,2,0.95459,-0.39575,-0.02197,-1.809,-4.321,2.656
2026-06-01 15:23:47.959,2210967415,653959,1,0.91479,-0.06592,0.60767,0.092,-4.366,-3.214
2026-06-01 15:23:47.959,2210967415,653959,2,0.95605,-0.39966,-0.01758,-4.695,-3.885,0.603
2026-06-01 15:23:47.182,2210966638,654181,1,0.93311,-0.05664,0.59814,0.916,-2.626,-2.107
2026-06-01 15:23:47.182,2210966638,654181,2,0.9541,-0.40723,-0.02954,-2.076,-1.336,0.786
2026-06-01 15:23:47.399,2210966855,654399,1,0.93994,-0.06274,0.59595,-0.611,-0.878,-1.0
2026-06-01 15:23:47.399,2210966855,654399,2,0.94849,-0.41748,-0.05713,-0.908,-2.176,1.153
2026-06-01 15:23:48.639,2210968095,654639,1,0.93091,-0.08008,0.58496,5.107,2.275,1.42
2026-06-01 15:23:48.639,2210968095,654639,2,0.95605,-0.41406,-0.02637,3.954,-1.466,0.389
2026-06-01 15:23:48.839,2210968295,654839,1,0.93896,-0.06689,0.58789,0.328,1.351,1.137
2026-06-01 15:23:48.839,2210968295,654839,2,0.96021,-0.42822,-0.03076,2.511,-0.29,3.321
2026-06-01 15:23:48.039,2210967495,655039,1,0.90869,-0.14502,0.59717,5.947,0.87,8.145
2026-06-01 15:23:48.039,2210967495,655039,2,0.88452,-0.51343,0.02539,19.847,-2.55,8.863
2026-06-01 15:23:48.239,2210967695,655239,1,0.93188,-0.26147,0.54639,62.962,-6.794,41.397
2026-06-01 15:23:48.239,2210967695,655239,2,0.8689,-0.49121,0.0332,61.267,-35.809,-2.015
2026-06-01 15:23:48.439,2210967895,655439,1,0.90479,-0.2583,0.53198,96.351,12.366,53.565
2026-06-01 15:23:48.439,2210967895,655439,2,1.24292,-0.20361,0.04614,149.374,-19.076,-47.443
2026-06-01 15:23:49.639,2210969095,655639,1,0.86206,0.11328,0.67065,68.45,10.878,27.137
2026-06-01 15:23:49.639,2210969095,655639,2,1.03223,-0.37744,-0.09326,107.656,-16.336,6.275
2026-06-01 15:23:49.910,2210969366,655910,1,0.76855,0.1106,0.74292,50.511,2.458,48.58
2026-06-01 15:23:49.910,2210969366,655910,2,0.98779,-0.21021,-0.01489,65.977,-9.649,35.939
2026-06-01 15:23:49.206,2210968662,656206,1,0.82813,0.12622,0.72314,40.031,-6.695,38.878
2026-06-01 15:23:49.206,2210968662,656206,2,1.03882,-0.21436,0.01294,30.107,-13.45,14.802
2026-06-01 15:23:49.406,2210968862,656406,1,0.75635,-0.28833,1.13477,-46.023,-1.901,-9.168
2026-06-01 15:23:49.406,2210968862,656406,2,1.27686,-0.04712,-0.28003,-1.748,-16.473,-16.725
2026-06-01 15:23:49.606,2210969062,656606,1,0.77271,-0.13818,0.65698,-13.206,0.023,13.969
2026-06-01 15:23:49.606,2210969062,656606,2,0.87231,-0.37964,0.18091,31.962,2.901,21.328
2026-06-01 15:23:50.806,2210970262,656806,1,0.81323,-0.2478,0.64648,-14.71,4.481,8.885
2026-06-01 15:23:50.806,2210970262,656806,2,0.85156,-0.43872,0.04126,-12.282,-16.931,-7.855
2026-06-01 15:23:50.006,2210969462,657006,1,0.8374,-0.12354,0.63062,13.489,-5.008,-45.527
2026-06-01 15:23:50.006,2210969462,657006,2,1.10815,-0.29492,0.17578,36.023,-0.115,-2.031
2026-06-01 15:23:50.206,2210969662,657206,1,0.78223,0.03687,0.79248,3.87,-11.061,-0.542
2026-06-01 15:23:50.206,2210969662,657206,2,1.10767,-0.34863,0.08789,-11.366,3.595,-12.023
2026-06-01 15:23:50.406,2210969862,657406,1,0.78882,0.12061,0.75122,-11.229,14.832,4.29
2026-06-01 15:23:50.406,2210969862,657406,2,1.02075,-0.1145,-0.0564,13.336,30.252,2.046
2026-06-01 15:23:50.606,2210970062,657606,1,0.76733,0.05322,0.81152,-104.985,-25.557,-56.878
2026-06-01 15:23:50.606,2210970062,657606,2,1.02515,-0.36792,0.16968,-108.687,19.145,4.252
2026-06-01 15:23:51.806,2210971262,657806,1,0.89795,-0.11206,0.6333,-66.092,2.42,-22.374
2026-06-01 15:23:51.806,2210971262,657806,2,0.8418,-0.47559,0.05615,-97.176,59.863,11.969
2026-06-01 15:23:51.006,2210970462,658006,1,0.96411,-0.37378,0.44849,-18.802,-18.412,-36.924
2026-06-01 15:23:51.006,2210970462,658006,2,0.80542,-0.58765,0.08374,-24.473,-2.962,-11.809
2026-06-01 15:23:51.206,2210970662,658206,1,0.94702,-0.20923,0.49438,5.382,-20.359,-24.336
2026-06-01 15:23:51.206,2210970662,658206,2,0.9165,-0.61353,0.08813,2.351,-29.466,-11.756
2026-06-01 15:23:51.406,2210970862,658406,1,0.83789,-0.08105,0.57739,-2.031,11.985,-20.771
2026-06-01 15:23:51.406,2210970862,658406,2,1.06934,-0.40942,0.00317,63.863,-18.832,-0.45
2026-06-01 15:23:51.606,2210971062,658606,1,0.94263,0.06226,0.62915,29.298,24.878,15.092
2026-06-01 15:23:51.606,2210971062,658606,2,0.98047,-0.33862,-0.00879,75.824,-9.71,-11.679
2026-06-01 15:23:52.806,2210972262,658806,1,0.76489,0.20117,0.74829,34.206,12.718,23.855
2026-06-01 15:23:52.806,2210972262,658806,2,0.9624,-0.20532,-0.13037,-29.634,2.74,-2.87
2026-06-01 15:23:52.006,2210971462,659006,1,0.96729,0.18848,0.74146,-1.344,-12.321,2.985
2026-06-01 15:23:52.006,2210971462,659006,2,0.91553,-0.32202,0.03638,-2.389,16.534,11.183
2026-06-01 15:23:52.206,2210971662,659206,1,0.89526,-0.14014,0.67456,-67.221,5.298,-2.817
2026-06-01 15:23:52.206,2210971662,659206,2,0.75439,-0.63379,0.04492,-49.084,27.55,16.931
2026-06-01 15:23:52.406,2210971862,659406,1,0.87915,-0.43921,0.40283,13.947,-13.885,13.092
2026-06-01 15:23:52.406,2210971862,659406,2,0.97803,-0.5144,0.00342,-46.55,-38.878,-29.802
2026-06-01 15:23:52.606,2210972062,659606,1,0.8186,-0.09937,0.60229,-8.611,-21.702,-48.038
2026-06-01 15:23:52.606,2210972062,659606,2,1.0686,-0.30835,0.01367,13.687,5.824,7.977
2026-06-01 15:23:53.806,2210973262,659806,1,0.86768,0.07446,0.67798,43.061,14.069,7.313
2026-06-01 15:23:53.806,2210973262,659806,2,0.94653,-0.27686,-0.10376,4.015,0.328,-5.336
2026-06-01 15:23:53.006,2210972462,660006,1,0.95142,0.09717,0.72876,6.87,-12.969,-15.298
2026-06-01 15:23:53.006,2210972462,660006,2,0.88013,-0.36255,0.04468,1.771,-5.534,13.893
2026-06-01 15:23:53.206,2210972662,660206,1,0.9043,0.03174,0.62842,-11.656,-9.504,-2.42
2026-06-01 15:23:53.206,2210972662,660206,2,0.92993,-0.41943,0.02466,-10.817,6.641,5.481
2026-06-01 15:23:53.406,2210972862,660406,1,0.89648,-0.01416,0.62598,-8.382,6.038,-7.557
2026-06-01 15:23:53.406,2210972862,660406,2,0.94482,-0.38257,0.00171,-0.962,-7.893,5.779
2026-06-01 15:23:53.606,2210973062,660606,1,0.88037,0.00586,0.62183,-14.252,-15.053,-7.695
2026-06-01 15:23:53.606,2210973062,660606,2,0.93311,-0.4939,0.02222,-30.244,-5.084,9.244
2026-06-01 15:23:54.806,2210974262,660806,1,0.95605,-0.01392,0.55469,8.557,-8.58,7.282
2026-06-01 15:23:54.806,2210974262,660806,2,0.94897,-0.43921,-0.04639,-15.405,-3.71,4.557
2026-06-01 15:23:54.006,2210973462,661006,1,0.98438,0.00464,0.54932,1.053,0.214,0.382
2026-06-01 15:23:54.006,2210973462,661006,2,0.91846,-0.43652,-0.07275,-8.557,3.511,1.534
2026-06-01 15:23:54.206,2210973662,661206,1,0.97852,-0.00659,0.54614,3.008,3.359,0.878
2026-06-01 15:23:54.206,2210973662,661206,2,0.96753,-0.4436,-0.05029,2.328,-0.015,-5.527
2026-06-01 15:23:54.406,2210973862,661406,1,0.88306,-0.01611,0.61987,15.328,18.725,7.992
2026-06-01 15:23:54.406,2210973862,661406,2,1.01855,-0.29272,0.15747,0.229,3.687,0.305
2026-06-01 15:23:54.606,2210974062,661606,1,0.92236,-0.03101,0.60059,21.183,24.481,16.542
2026-06-01 15:23:54.606,2210974062,661606,2,1.11938,-0.49414,-0.32983,201.435,64.565,-17.901
2026-06-01 15:23:55.806,2210975262,661806,1,0.93286,-0.00073,0.61328,-27.588,-8.679,-27.794
2026-06-01 15:23:55.806,2210975262,661806,2,0.86548,-0.04688,0.26758,5.282,54.901,-16.26
2026-06-01 15:23:55.006,2210974462,662006,1,0.94458,0.02197,0.57275,-15.931,-7.351,-12.305
2026-06-01 15:23:55.006,2210974462,662006,2,0.84985,-0.07007,0.35767,127.382,-177.863,-82.031
2026-06-01 15:23:55.206,2210974662,662206,1,1.00122,0.01074,0.60327,-10.198,-0.038,-6.351
2026-06-01 15:23:55.206,2210974662,662206,2,1.05127,-0.02222,-0.12183,51.824,-95.42,-116.672
2026-06-01 15:23:55.406,2210974862,662406,1,0.99341,-0.02612,0.53662,-17.198,-16.153,-5.336
2026-06-01 15:23:55.406,2210974862,662406,2,0.88721,0.08081,-0.32837,-45.023,7.336,-30.771
2026-06-01 15:23:55.606,2210975062,662606,1,0.93774,-0.01196,0.58936,7.359,41.802,4.702
2026-06-01 15:23:55.606,2210975062,662606,2,1.0271,-0.06299,0.03149,-117.069,81.466,72.115
2026-06-01 15:23:56.806,2210976262,662806,1,0.88843,-0.01099,0.4917,27.344,3.908,21.74
2026-06-01 15:23:56.806,2210976262,662806,2,1.12427,-0.00708,0.36841,-25.901,-36.427,-22.924
2026-06-01 15:23:56.006,2210975462,663006,1,0.91919,-0.00415,0.62427,-9.588,-7.0,-5.588
2026-06-01 15:23:56.006,2210975462,663006,2,1.14746,-0.1228,-0.11865,60.595,-41.557,-31.229
2026-06-01 15:23:56.206,2210975662,663206,1,0.98242,-0.03345,0.4707,-15.122,-1.305,-5.275
2026-06-01 15:23:56.206,2210975662,663206,2,0.96655,-0.21826,-0.18555,15.282,-24.901,-20.664
2026-06-01 15:23:56.406,2210975862,663406,1,1.2522,-0.38672,0.9248,56.389,149.237,7.305
2026-06-01 15:23:56.406,2210975862,663406,2,1.02002,-0.07886,-0.448,-10.656,32.87,40.58
2026-06-01 15:23:56.606,2210976062,663606,1,0.96509,0.0564,0.5,23.702,49.015,12.725
2026-06-01 15:23:56.606,2210976062,663606,2,1.99994,1.1731,1.99994,-95.092,-114.725,43.794
2026-06-01 15:23:57.856,2210977312,663856,1,0.85742,-0.03931,0.73901,-20.046,22.229,-10.824
2026-06-01 15:23:57.856,2210977312,663856,2,0.65991,-0.14478,-0.39941,32.58,-11.863,7.977
2026-06-01 15:23:57.056,2210976512,664056,1,0.96558,-0.55591,0.76001,-116.519,-109.275,-99.718
2026-06-01 15:23:57.056,2210976512,664056,2,1.08813,-0.29395,-0.27661,1.634,69.496,25.16
2026-06-01 15:23:57.257,2210976713,664257,1,0.92407,-0.05054,0.68237,-22.473,9.718,-17.489
2026-06-01 15:23:57.257,2210976713,664257,2,0.89404,-0.20166,-0.09863,-25.519,-7.023,-19.26
2026-06-01 15:23:57.589,2210977045,664589,1,0.89673,0.02222,0.64893,13.786,13.924,10.397
2026-06-01 15:23:57.589,2210977045,664589,2,1.07593,-0.06592,0.16138,-175.847,-28.603,-41.664
2026-06-01 15:23:58.975,2210978431,664975,1,0.90942,0.01953,0.63062,-3.252,2.427,-4.359
2026-06-01 15:23:58.975,2210978431,664975,2,1.01782,-0.31812,0.13599,90.771,13.947,74.947
2026-06-01 15:23:58.215,2210977671,665215,1,0.91333,-0.00781,0.64087,1.344,3.427,4.023
2026-06-01 15:23:58.215,2210977671,665215,2,1.15723,-0.04004,0.22021,62.779,2.588,-6.924
2026-06-01 15:23:58.415,2210977871,665415,1,0.87842,-0.01318,0.65454,1.183,12.832,2.931
2026-06-01 15:23:58.415,2210977871,665415,2,1.0542,-0.14111,0.14624,-62.802,-92.16,-4.206
2026-06-01 15:23:58.615,2210978071,665615,1,0.56128,-0.66138,0.60498,14.626,-62.771,27.313
2026-06-01 15:23:58.615,2210978071,665615,2,1.16577,-0.06323,-0.26904,-100.947,76.84,-4.511
2026-06-01 15:23:59.815,2210979271,665815,1,0.89526,0.03809,0.60132,22.702,6.0,6.748
2026-06-01 15:23:59.815,2210979271,665815,2,1.03491,-0.11328,0.22705,16.702,34.725,-49.771
2026-06-01 15:23:59.081,2210978537,666080,1,0.91187,0.05127,0.65356,7.298,-9.939,6.16
2026-06-01 15:23:59.081,2210978537,666080,2,0.99878,-0.11865,0.22729,-6.649,0.351,25.137
2026-06-01 15:23:59.394,2210978850,666394,1,0.90405,0.04272,0.66479,10.244,6.145,3.893
2026-06-01 15:23:59.394,2210978850,666394,2,0.97388,0.00269,0.09473,30.198,1.893,-19.42
2026-06-01 15:23:59.594,2210979050,666594,1,0.90918,0.11011,0.6792,6.824,6.969,3.656
2026-06-01 15:23:59.594,2210979050,666594,2,0.99512,-0.02466,0.20142,3.351,7.664,3.038
2026-06-01 15:24:00.794,2210980250,666794,1,0.92139,0.04614,0.64941,-6.817,-5.939,-6.489
2026-06-01 15:24:00.794,2210980250,666794,2,0.94385,0.03711,0.33398,-20.122,60.107,-22.504
2026-06-01 15:24:00.994,2210980450,666994,1,0.49707,0.08228,0.6145,-18.244,10.74,-24.084
2026-06-01 15:24:00.994,2210980450,666994,2,1.69556,0.271,0.51392,0.908,-27.84,66.115
2026-06-01 15:24:00.194,2210979650,667194,1,0.9375,0.03467,0.60596,-59.886,-5.664,-53.443
2026-06-01 15:24:00.194,2210979650,667194,2,0.6167,0.04712,0.30347,-94.603,35.16,-110.473
2026-06-01 15:24:00.394,2210979850,667394,1,0.802,0.03247,0.58691,-55.87,1.679,-26.023
2026-06-01 15:24:00.394,2210979850,667394,2,1.30933,0.22681,0.32739,27.687,6.74,13.809
2026-06-01 15:24:00.594,2210980050,667594,1,1.21533,-0.12573,0.84717,-71.336,-29.962,-53.137
2026-06-01 15:24:00.594,2210980050,667594,2,0.86377,0.1167,0.22827,2.382,17.832,-40.725
2026-06-01 15:24:01.794,2210981250,667794,1,0.43726,0.16309,0.30347,95.038,56.748,41.649
2026-06-01 15:24:01.794,2210981250,667794,2,0.95093,0.2666,0.27759,58.802,-6.863,14.87
2026-06-01 15:24:01.994,2210981450,667994,1,1.31519,0.1709,0.82275,36.183,-60.702,24.679
2026-06-01 15:24:01.994,2210981450,667994,2,0.59888,0.15698,0.302,-20.038,30.115,1.74
2026-06-01 15:24:01.276,2210980732,668276,1,0.93921,0.06738,0.62378,20.679,-2.374,34.29
2026-06-01 15:24:01.276,2210980732,668276,2,0.90186,0.32861,0.33569,9.084,10.71,-11.901
2026-06-01 15:24:01.613,2210981069,668613,1,0.91333,0.11719,0.63208,-44.305,-8.504,-35.672
2026-06-01 15:24:01.613,2210981069,668613,2,0.88501,0.22144,0.34595,-39.061,10.527,1.466
2026-06-01 15:24:02.813,2210982269,668813,1,0.9585,0.07397,0.58569,-35.557,-16.214,-32.275
2026-06-01 15:24:02.813,2210982269,668813,2,0.90381,0.28125,0.34619,132.061,-53.351,69.061
2026-06-01 15:24:02.013,2210981469,669013,1,0.9165,0.03174,0.61475,-33.954,-3.557,-20.603
2026-06-01 15:24:02.013,2210981469,669013,2,0.96851,0.09399,0.25317,-14.038,-9.443,2.634
2026-06-01 15:24:02.213,2210981669,669213,1,0.91406,0.10107,0.53638,4.847,1.145,6.214
2026-06-01 15:24:02.213,2210981669,669213,2,0.99438,0.04736,0.20239,-13.794,-8.176,2.366
2026-06-01 15:24:02.413,2210981869,669413,1,0.92627,0.04053,0.56006,-9.588,6.206,-3.786
2026-06-01 15:24:02.413,2210981869,669413,2,0.96045,0.04785,0.19971,-92.519,-20.275,19.817
2026-06-01 15:24:02.613,2210982069,669613,1,0.9502,0.04395,0.58911,1.015,5.924,0.16
2026-06-01 15:24:02.613,2210982069,669613,2,0.99316,-0.13525,0.07471,-1.145,-17.565,-4.931
2026-06-01 15:24:03.829,2210983285,669829,1,0.92798,0.07007,0.63184,-3.427,3.13,1.687
2026-06-01 15:24:03.829,2210983285,669829,2,0.9541,-0.03809,0.04053,-26.252,-25.122,4.038
2026-06-01 15:24:03.029,2210982485,670029,1,0.94556,0.04956,0.65234,-7.405,4.466,-5.954
2026-06-01 15:24:03.029,2210982485,670029,2,1.05957,-0.05957,-0.0647,-4.405,-7.244,7.282
2026-06-01 15:24:03.281,2210982737,670281,1,0.9126,0.05859,0.57031,-24.13,14.908,-14.618
2026-06-01 15:24:03.281,2210982737,670281,2,0.97803,-0.15649,0.1416,105.473,10.656,62.16
2026-06-01 15:24:04.672,2210984128,670672,1,0.86328,0.12866,0.72632,26.176,26.565,28.244
2026-06-01 15:24:04.672,2210984128,670672,2,1.03711,-0.25195,0.10254,-5.664,-22.359,19.466
2026-06-01 15:24:04.919,2210984375,670919,1,0.89258,0.11279,0.66235,3.557,-10.092,-4.618
2026-06-01 15:24:04.919,2210984375,670919,2,1.00757,-0.21143,0.02197,-38.298,-16.206,1.985
2026-06-01 15:24:04.119,2210983575,671119,1,0.90576,0.17114,0.72388,5.649,-9.527,-10.107
2026-06-01 15:24:04.119,2210983575,671119,2,1.03564,-0.21631,0.01855,48.992,116.947,-19.71
2026-06-01 15:24:04.319,2210983775,671319,1,0.88306,0.19336,0.64185,1.16,-24.534,-18.779
2026-06-01 15:24:04.319,2210983775,671319,2,0.91187,-0.37695,0.29761,-12.969,0.244,3.725
2026-06-01 15:24:04.519,2210983975,671519,1,0.91064,0.18994,0.6814,1.435,3.542,2.855
2026-06-01 15:24:04.519,2210983975,671519,2,0.99829,-0.34448,-0.00317,-12.267,-21.695,-10.336
2026-06-01 15:24:05.719,2210985175,671719,1,0.84375,0.18091,0.67407,-3.779,-7.023,-8.023
2026-06-01 15:24:05.719,2210985175,671719,2,0.87476,-0.44849,0.46045,186.061,124.641,5.924
2026-06-01 15:24:05.155,2210984611,672155,1,0.81372,0.0459,1.01538,50.458,36.023,36.473
2026-06-01 15:24:05.155,2210984611,672155,2,1.06201,-0.06128,0.48389,12.29,-58.344,-8.511
2026-06-01 15:24:05.446,2210984902,672445,1,0.80835,0.14575,0.677,-15.55,19.382,21.496
2026-06-01 15:24:05.446,2210984902,672445,2,1.02563,-0.24829,0.16577,68.229,9.237,6.176
2026-06-01 15:24:06.695,2210986151,672695,1,0.85254,0.09668,0.66724,-30.282,-24.191,-24.107
2026-06-01 15:24:06.695,2210986151,672695,2,1.2561,-0.30908,0.24414,-58.198,-38.221,12.71
2026-06-01 15:24:06.895,2210986351,672895,1,0.86523,0.10059,0.64258,39.313,40.221,120.954
2026-06-01 15:24:06.895,2210986351,672895,2,0.27051,0.1167,-1.32349,-250.137,-97.725,118.725
2026-06-01 15:24:06.161,2210985617,673161,1,0.79736,0.28052,0.71362,53.252,13.435,6.344
2026-06-01 15:24:06.161,2210985617,673161,2,1.02246,-0.19727,0.10303,-1.84,-26.191,-5.832
2026-06-01 15:24:06.370,2210985826,673370,1,0.92041,0.05396,0.54224,77.206,-65.924,44.656
2026-06-01 15:24:06.370,2210985826,673370,2,0.94238,-0.20435,-0.22241,-11.374,7.985,9.985
2026-06-01 15:24:06.570,2210986026,673570,1,0.9707,0.125,0.28589,69.405,-30.443,36.595
2026-06-01 15:24:06.570,2210986026,673570,2,1.01514,-0.30298,-0.14526,8.252,-2.038,5.29
2026-06-01 15:24:07.777,2210987233,673777,1,1.04272,-0.01172,0.29639,-38.084,14.176,-0.496
2026-06-01 15:24:07.777,2210987233,673777,2,0.97266,-0.2229,-0.04761,14.908,-1.924,-1.71
2026-06-01 15:24:07.982,2210987438,673981,1,0.9209,-0.13721,0.66724,12.916,0.168,-11.458
2026-06-01 15:24:07.982,2210987438,673981,2,1.08276,-0.49805,-0.08813,-70.405,-60.55,7.779
2026-06-01 15:24:07.181,2210986637,674181,1,0.75195,0.1084,0.6626,28.733,13.229,16.519
2026-06-01 15:24:07.181,2210986637,674181,2,1.05957,-0.1228,-0.2063,3.328,-9.511,0.718
2026-06-01 15:24:07.381,2210986837,674381,1,0.86938,-0.02856,0.74731,56.511,-19.939,26.901
2026-06-01 15:24:07.381,2210986837,674381,2,1.02808,-0.21436,-0.25952,-4.985,-6.252,4.977
2026-06-01 15:24:07.581,2210987037,674581,1,0.79712,-0.08057,0.68604,23.489,-22.756,7.733
2026-06-01 15:24:07.581,2210987037,674581,2,1.01489,-0.18774,-0.25342,4.053,-11.122,3.351
2026-06-01 15:24:08.781,2210988237,674781,1,0.88306,-0.03296,0.66821,-8.412,-0.634,-3.206
2026-06-01 15:24:08.781,2210988237,674781,2,0.99536,-0.22144,-0.2439,-0.214,3.527,6.939
2026-06-01 15:24:08.981,2210988437,674981,1,0.8855,-0.03955,0.67798,-11.527,7.885,-7.611
2026-06-01 15:24:08.981,2210988437,674981,2,0.9856,-0.27734,-0.19116,-9.557,9.878,2.29
2026-06-01 15:24:08.240,2210987696,675240,1,0.87231,-0.04028,0.7002,-9.733,0.168,-6.855
2026-06-01 15:24:08.240,2210987696,675240,2,0.98682,-0.27173,-0.19751,0.878,8.847,4.962
2026-06-01 15:24:08.445,2210987901,675445,1,0.85132,-0.02686,0.70239,-9.473,2.595,-2.435
2026-06-01 15:24:08.445,2210987901,675445,2,0.83252,-0.3396,-0.41602,-103.771,-2.824,14.153
2026-06-01 15:24:09.645,2210989101,675645,1,0.8606,-0.05688,0.64258,-10.351,16.939,-14.107
2026-06-01 15:24:09.645,2210989101,675645,2,0.91675,-0.2522,-0.46265,25.122,13.412,4.328
2026-06-01 15:24:09.845,2210989301,675845,1,0.85864,-0.02637,0.66455,-16.718,7.443,-16.443
2026-06-01 15:24:09.845,2210989301,675845,2,0.94653,-0.28052,-0.24048,-36.344,7.672,6.74
2026-06-01 15:24:09.045,2210988501,676045,1,0.87231,-0.02856,0.69922,-16.29,1.45,-15.206
2026-06-01 15:24:09.045,2210988501,676045,2,0.97388,-0.32983,-0.15918,-17.252,5.786,3.13
2026-06-01 15:24:09.245,2210988701,676245,1,0.85571,-0.00928,0.69946,-13.031,2.137,-13.542
2026-06-01 15:24:09.245,2210988701,676245,2,0.9834,-0.32642,-0.15259,-17.748,4.046,3.756
2026-06-01 15:24:09.445,2210988901,676445,1,0.88232,-0.01416,0.69434,-12.344,0.321,-13.908
2026-06-01 15:24:09.445,2210988901,676445,2,0.96484,-0.33862,-0.15161,-17.107,4.802,5.214
2026-06-01 15:24:10.645,2210990101,676645,1,0.87012,-0.02637,0.70679,-5.954,-0.229,-5.076
2026-06-01 15:24:10.645,2210990101,676645,2,0.94678,-0.36279,-0.1377,-2.298,1.321,3.931
2026-06-01 15:24:10.845,2210990301,676845,1,0.86792,-0.0415,0.70435,11.779,1.305,11.252
2026-06-01 15:24:10.845,2210990301,676845,2,0.95459,-0.354,-0.15088,16.672,-7.771,-2.061
2026-06-01 15:24:10.045,2210989501,677045,1,0.87061,-0.03906,0.69849,22.847,1.427,15.344
2026-06-01 15:24:10.045,2210989501,677045,2,0.96655,-0.3313,-0.18994,22.206,-9.992,-7.229
2026-06-01 15:24:10.245,2210989701,677245,1,0.87524,-0.03223,0.6875,17.221,1.573,6.069
2026-06-01 15:24:10.245,2210989701,677245,2,0.99194,-0.32983,-0.17236,16.611,-4.496,-10.985
2026-06-01 15:24:10.445,2210989901,677445,1,0.85107,0.0105,0.70068,30.229,10.191,21.42
2026-06-01 15:24:10.445,2210989901,677445,2,0.98633,-0.26367,-0.20557,35.26,-11.176,-21.885
2026-06-01 15:24:11.645,2210991101,677645,1,0.83472,0.0083,0.73462,22.527,5.061,22.321
2026-06-01 15:24:11.645,2210991101,677645,2,0.98584,-0.19287,-0.21387,17.076,-7.969,-2.947
2026-06-01 15:24:11.845,2210991301,677845,1,0.85669,-0.04077,0.70898,12.092,0.443,12.878
2026-06-01 15:24:11.845,2210991301,677845,2,0.98999,-0.24146,-0.22168,7.695,-4.519,0.832
2026-06-01 15:24:11.063,2210990519,678063,1,0.86523,-0.03491,0.70728,2.519,0.115,-0.519
2026-06-01 15:24:11.063,2210990519,678063,2,1.01343,-0.24146,-0.25684,12.511,1.321,-1.679
2026-06-01 15:24:11.263,2210990719,678263,1,0.86304,-0.03394,0.70166,-14.901,6.481,-4.511
2026-06-01 15:24:11.263,2210990719,678263,2,1.00757,-0.22778,-0.19946,-3.351,3.985,-0.603
2026-06-01 15:24:11.463,2210990919,678463,1,0.83252,-0.05713,0.72534,-9.611,8.366,-2.809
2026-06-01 15:24:11.463,2210990919,678463,2,0.98877,-0.22656,-0.19312,-4.695,7.534,0.695
2026-06-01 15:24:12.663,2210992119,678663,1,0.82373,-0.05078,0.74829,-7.405,4.702,-3.962
2026-06-01 15:24:12.663,2210992119,678663,2,1.01758,-0.22876,-0.15015,-4.489,5.71,-2.878
2026-06-01 15:24:12.863,2210992319,678863,1,0.82324,-0.03882,0.7478,-0.298,2.565,-3.74
2026-06-01 15:24:12.863,2210992319,678863,2,1.02539,-0.15161,-0.21924,-24.366,4.145,-13.305
2026-06-01 15:24:12.091,2210991547,679090,1,0.82227,0.01221,0.77734,-5.321,9.924,-4.885
2026-06-01 15:24:12.091,2210991547,679090,2,1.0,-0.18701,-0.10034,8.305,5.405,-1.626
2026-06-01 15:24:12.290,2210991746,679290,1,0.77588,-0.02588,0.77051,21.901,0.695,2.809
2026-06-01 15:24:12.290,2210991746,679290,2,0.97925,-0.22437,-0.18506,24.84,2.137,8.374
2026-06-01 15:24:12.490,2210991946,679490,1,0.78711,-0.02026,0.77441,-7.168,-3.275,6.183
2026-06-01 15:24:12.490,2210991946,679490,2,1.02222,-0.19531,-0.18433,-20.244,0.053,4.786
2026-06-01 15:24:13.690,2210993146,679690,1,0.80786,-0.03076,0.78149,4.16,1.176,2.847
2026-06-01 15:24:13.690,2210993146,679690,2,1.01025,-0.21069,-0.12085,-8.634,1.244,0.611
2026-06-01 15:24:13.890,2210993346,679890,1,0.80591,-0.01611,0.77808,6.023,,7.931
2026-06-01 15:24:13.890,2210993346,679890,2,1.03418,-0.17456,-0.24976,12.168,3.42,0.931
2026-06-01 15:24:13.090,2210992546,680090,1,0.80371,-0.07422,0.78003,-8.389,1.282,-3.183
2026-06-01 15:24:13.090,2210992546,680090,2,0.99536,-0.20386,-0.1665,-9.321,0.71,3.588
2026-06-01 15:24:13.290,2210992746,680290,1,0.88379,-0.06177,0.71802,-14.29,13.237,-5.733
2026-06-01 15:24:13.290,2210992746,680290,2,0.98047,-0.18555,-0.15552,-39.107,-16.786,6.466
2026-06-01 15:24:13.490,2210992946,680490,1,1.03491,0.03369,0.59448,3.221,8.992,3.824
2026-06-01 15:24:13.490,2210992946,680490,2,0.95361,-0.26587,-0.22827,1.84,24.679,-4.908
2026-06-01 15:24:14.701,2210994157,680701,1,0.84302,-0.04688,0.76904,-1.641,-6.145,-6.878
2026-06-01 15:24:14.701,2210994157,680701,2,1.00879,-0.24707,-0.14673,31.122,-3.45,-6.015
2026-06-01 15:24:14.901,2210994357,680901,1,0.80615,-0.03735,0.78101,3.542,7.496,5.733
2026-06-01 15:24:14.901,2210994357,680901,2,0.99219,-0.21582,-0.42212,-121.611,-62.359,-14.718
2026-06-01 15:24:14.111,2210993567,681111,1,0.82031,-0.10083,0.81543,-90.031,2.885,-28.756
2026-06-01 15:24:14.111,2210993567,681111,2,0.93677,-0.28589,-0.29907,-51.435,-21.565,-15.924
2026-06-01 15:24:14.311,2210993767,681311,1,0.83008,-0.1897,0.7417,-32.015,3.832,-7.29
2026-06-01 15:24:14.311,2210993767,681311,2,0.9021,-0.49731,-0.20435,250.13,17.496,119.374
2026-06-01 15:24:14.511,2210993967,681511,1,0.83887,-0.1731,0.73242,-41.885,5.626,-22.107
2026-06-01 15:24:14.511,2210993967,681511,2,0.93628,-0.3208,-0.13452,81.756,-8.58,18.809
2026-06-01 15:24:15.711,2210995167,681711,1,0.83887,-0.27173,0.72729,-31.481,7.435,-13.992
2026-06-01 15:24:15.711,2210995167,681711,2,1.0083,-0.10864,-0.09497,-23.595,10.992,3.122
2026-06-01 15:24:15.911,2210995367,681911,1,0.80225,-0.29761,0.73486,0.42,3.214,3.656
2026-06-01 15:24:15.911,2210995367,681911,2,0.94946,-0.18066,-0.2876,5.55,-40.489,-6.344
2026-06-01 15:24:15.111,2210994567,682111,1,0.75464,-0.2002,0.67261,17.069,2.412,1.824
2026-06-01 15:24:15.111,2210994567,682111,2,0.98779,-0.23047,-0.12012,38.321,14.267,-0.008
2026-06-01 15:24:15.311,2210994767,682311,1,0.80933,-0.15137,0.75366,22.954,2.321,2.061
2026-06-01 15:24:15.311,2210994767,682311,2,0.95215,-0.21899,-0.25293,11.412,-3.763,3.42
2026-06-01 15:24:15.533,2210994989,682533,1,0.79321,-0.19409,0.73877,-2.542,-1.344,-2.137
2026-06-01 15:24:15.533,2210994989,682533,2,1.00439,-0.18896,-0.22119,11.0,-2.336,5.863
2026-06-01 15:24:16.733,2210996189,682733,1,0.80298,-0.18262,0.76392,-7.336,-5.641,-3.855
2026-06-01 15:24:16.733,2210996189,682733,2,1.01074,-0.20313,-0.15088,47.435,-11.221,12.763
2026-06-01 15:24:16.933,2210996389,682933,1,0.80835,-0.22168,0.71045,3.435,-4.221,0.122
2026-06-01 15:24:16.933,2210996389,682933,2,0.98413,-0.29248,-0.18115,5.611,47.931,20.267
2026-06-01 15:24:16.133,2210995589,683133,1,0.83789,-0.15234,0.75,23.237,-4.802,8.046
2026-06-01 15:24:16.133,2210995589,683133,2,0.83667,-0.3374,-0.00269,-33.305,14.069,19.168
2026-06-01 15:24:16.333,2210995789,683333,1,0.93335,-0.19263,0.62451,-8.115,-15.405,-19.122
2026-06-01 15:24:16.333,2210995789,683333,2,0.88647,-0.42529,-0.34521,39.992,-0.137,-9.145
2026-06-01 15:24:16.533,2210995989,683533,1,0.88818,-0.1626,0.68384,-15.802,-1.901,-11.649
2026-06-01 15:24:16.533,2210995989,683533,2,1.02881,-0.15039,-0.14038,-108.901,8.855,-1.206
2026-06-01 15:24:17.733,2210997189,683733,1,0.85303,-0.12646,0.70044,5.458,5.74,-0.672
2026-06-01 15:24:17.733,2210997189,683733,2,0.8855,-0.27246,-0.15967,181.176,-26.534,-56.244
2026-06-01 15:24:17.933,2210997389,683933,1,0.95386,-0.09375,0.61792,12.336,9.374,2.443
2026-06-01 15:24:17.933,2210997389,683933,2,1.17773,-0.07666,0.08447,250.13,-2.229,48.962
2026-06-01 15:24:17.133,2210996589,684133,1,0.9165,-0.00244,0.68359,25.511,21.023,-6.588
2026-06-01 15:24:17.133,2210996589,684133,2,0.99121,-0.15967,-0.84204,46.771,-71.015,-58.656
2026-06-01 15:24:17.333,2210996789,684333,1,0.82617,-0.07202,0.77002,-7.267,7.771,-1.26
2026-06-01 15:24:17.333,2210996789,684333,2,0.98145,-0.22925,-0.07544,73.084,31.824,4.504
2026-06-01 15:24:17.533,2210996989,684533,1,0.70605,-0.03931,0.85229,-66.611,34.863,6.26
2026-06-01 15:24:17.533,2210996989,684533,2,0.86865,-0.14624,0.01831,141.389,45.763,15.443
2026-06-01 15:24:18.733,2210998189,684733,1,0.32935,-0.06665,0.54614,41.992,62.481,12.206
2026-06-01 15:24:18.733,2210998189,684733,2,0.67578,-0.08203,0.04688,11.145,54.183,-23.267
2026-06-01 15:24:18.933,2210998389,684933,1,0.40918,-0.16553,0.96118,-0.885,70.183,11.794
2026-06-01 15:24:18.933,2210998389,684933,2,1.13501,-0.20776,0.46167,-47.046,65.695,4.664
2026-06-01 15:24:18.133,2210997589,685133,1,0.37085,-0.11011,1.37231,-15.076,10.443,-6.282
2026-06-01 15:24:18.133,2210997589,685133,2,1.09692,-0.00464,0.60864,-14.817,25.336,-8.985
2026-06-01 15:24:18.333,2210997789,685333,1,0.36938,-0.07935,1.2998,9.725,-0.863,4.344
2026-06-01 15:24:18.333,2210997789,685333,2,0.98267,-0.00562,0.58325,-3.863,-1.397,-11.153
2026-06-01 15:24:18.533,2210997989,685533,1,0.3877,-0.11694,1.1416,9.168,-9.908,-9.504
2026-06-01 15:24:18.533,2210997989,685533,2,0.94775,-0.04492,0.44995,2.214,-14.748,5.305
2026-06-01 15:24:19.733,2210999189,685733,1,0.36914,-0.05273,1.20557,7.382,5.84,-0.176
2026-06-01 15:24:19.733,2210999189,685733,2,1.1167,-0.09399,0.49121,15.237,-12.115,4.931
2026-06-01 15:24:19.933,2210999389,685933,1,0.41333,-0.08716,1.25903,0.702,-28.992,-2.313
2026-06-01 15:24:19.933,2210999389,685933,2,1.01489,-0.073,0.40845,31.908,-25.29,17.336
2026-06-01 15:24:19.133,2210998589,686133,1,0.45557,-0.07886,0.89355,-7.344,-39.145,-17.099
2026-06-01 15:24:19.133,2210998589,686133,2,0.78564,-0.12744,0.22925,-14.42,-29.328,20.794
2026-06-01 15:24:19.333,2210998789,686333,1,0.4353,-0.0564,0.70825,12.344,-54.305,-6.756
2026-06-01 15:24:19.333,2210998789,686333,2,0.79419,-0.16284,0.12061,-21.718,-42.962,13.534
2026-06-01 15:24:19.533,2210998989,686533,1,0.81128,-0.01318,0.62402,9.527,-39.031,-11.626
2026-06-01 15:24:19.533,2210998989,686533,2,0.99683,-0.27002,0.06104,-49.824,-30.382,6.313
2026-06-01 15:24:20.733,2211000189,686733,1,0.84082,-0.01929,0.70166,2.557,-0.099,-4.298
2026-06-01 15:24:20.733,2211000189,686733,2,1.06323,-0.23047,-0.06226,-4.939,-2.466,-0.344
2026-06-01 15:24:20.933,2211000389,686933,1,0.83911,0.03809,0.73291,-6.076,-3.802,-3.405
2026-06-01 15:24:20.933,2211000389,686933,2,1.00049,-0.2478,-0.13672,-25.863,-10.725,1.313
2026-06-01 15:24:20.133,2210999589,687133,1,0.89014,0.00488,0.68115,-4.221,-11.237,-6.275
2026-06-01 15:24:20.133,2210999589,687133,2,1.01904,-0.23218,-0.2041,-14.328,-6.908,-5.145
2026-06-01 15:24:20.333,2210999789,687333,1,0.94751,0.01563,0.63892,5.527,8.595,2.298
2026-06-01 15:24:20.333,2210999789,687333,2,1.04297,-0.23047,-0.15601,29.145,9.267,-2.031
2026-06-01 15:24:20.533,2210999989,687533,1,0.72192,0.05835,0.66138,3.55,70.786,23.565
2026-06-01 15:24:20.533,2210999989,687533,2,0.64209,0.00415,0.03516,66.305,82.908,-16.237
2026-06-01 15:24:21.760,2211001216,687760,1,0.427,-0.06323,0.91211,-7.412,66.099,12.977
2026-06-01 15:24:21.760,2211001216,687760,2,0.79614,-0.12451,0.17383,31.015,59.641,-15.664
2026-06-01 15:24:21.960,2211001416,687960,1,0.31128,-0.12598,1.0918,5.863,25.221,12.511
2026-06-01 15:24:21.960,2211001416,687960,2,1.06372,-0.04199,0.42188,-17.45,14.916,-10.031
2026-06-01 15:24:21.160,2211000616,688160,1,0.41089,-0.09302,1.19141,5.443,0.931,3.427
2026-06-01 15:24:21.160,2211000616,688160,2,1.07251,-0.20093,0.44824,-28.779,3.26,-3.656
2026-06-01 15:24:21.360,2211000816,688360,1,0.39697,-0.1377,1.20728,-0.008,14.214,4.115
2026-06-01 15:24:21.360,2211000816,688360,2,0.99487,-0.14478,0.45898,-12.534,13.145,10.718
2026-06-01 15:24:21.560,2211001016,688560,1,0.31152,-0.09082,1.08423,-0.42,11.198,0.176
2026-06-01 15:24:21.560,2211001016,688560,2,0.88672,-0.10986,0.48315,-0.794,2.573,9.092
2026-06-01 15:24:22.760,2211002216,688760,1,0.29858,-0.17358,1.17212,-0.756,-2.962,-6.656
2026-06-01 15:24:22.760,2211002216,688760,2,1.04077,-0.10718,0.58472,-11.885,-1.069,-2.458
2026-06-01 15:24:22.960,2211002416,688960,1,0.34961,-0.16602,1.44727,-6.237,-20.092,-10.611
2026-06-01 15:24:22.960,2211002416,688960,2,1.13818,-0.17725,0.51904,13.221,-28.679,-0.351
2026-06-01 15:24:22.160,2211001616,689160,1,0.38647,-0.12695,1.05957,4.191,-53.336,-14.779
2026-06-01 15:24:22.160,2211001616,689160,2,0.77637,-0.0979,0.14917,12.008,-44.878,18.534
2026-06-01 15:24:22.360,2211001816,689360,1,0.42114,-0.09009,0.55054,-6.13,-73.344,-24.634
2026-06-01 15:24:22.360,2211001816,689360,2,0.73389,-0.12524,0.05249,-0.916,-61.221,24.412
2026-06-01 15:24:22.560,2211002016,689560,1,0.91968,0.00879,0.7666,25.557,-38.656,-4.29
2026-06-01 15:24:22.560,2211002016,689560,2,1.11743,-0.22046,-0.0542,15.458,-42.992,3.45
2026-06-01 15:24:23.760,2211003216,689760,1,0.89624,0.01294,0.69971,-4.466,-3.733,-3.015
2026-06-01 15:24:23.760,2211003216,689760,2,1.00122,-0.26685,-0.16333,-2.87,-3.458,2.947
2026-06-01 15:24:23.960,2211003416,689960,1,0.88867,-0.00342,0.69043,-4.015,4.351,-0.168
2026-06-01 15:24:23.960,2211003416,689960,2,1.00146,-0.25708,-0.10913,2.748,3.832,-0.366
2026-06-01 15:24:23.160,2211002616,690160,1,0.86548,-0.00952,0.70581,-9.115,7.595,-2.351
2026-06-01 15:24:23.160,2211002616,690160,2,0.96265,-0.27905,-0.12085,0.763,5.573,0.466
2026-06-01 15:24:23.360,2211002816,690360,1,0.86108,-0.03394,0.71729,1.885,-0.84,-2.649
2026-06-01 15:24:23.360,2211002816,690360,2,1.03149,-0.26196,-0.02783,6.954,3.16,-7.496
2026-06-01 15:24:23.560,2211003016,690560,1,0.91187,0.01538,0.66821,7.634,48.389,17.282
2026-06-01 15:24:23.560,2211003016,690560,2,1.10278,-0.18872,-0.0127,26.863,41.321,-32.191
2026-06-01 15:24:24.760,2211004216,690760,1,0.50366,0.04321,0.61206,-6.214,154.763,37.565
2026-06-01 15:24:24.760,2211004216,690760,2,0.92407,-0.04199,0.021,75.015,148.595,-59.237
2026-06-01 15:24:24.960,2211004416,690960,1,-0.15601,-0.21265,0.85107,-22.321,159.382,26.985
2026-06-01 15:24:24.960,2211004416,690960,2,0.625,0.18091,0.54443,-3.313,114.115,-43.702
2026-06-01 15:24:24.160,2211003616,691160,1,-0.72852,-0.37305,1.13574,-33.405,78.031,17.214
2026-06-01 15:24:24.160,2211003616,691160,2,0.45874,0.35864,0.90039,-5.496,64.626,-18.0
2026-06-01 15:24:24.360,2211003816,691360,1,-0.65991,-0.33203,0.95386,-1.924,11.069,2.947
2026-06-01 15:24:24.360,2211003816,691360,2,0.31836,0.36548,0.87231,-6.198,3.924,0.137
2026-06-01 15:24:24.560,2211004016,691560,1,-0.51953,-0.27246,0.86743,3.687,-23.855,-15.649
2026-06-01 15:24:24.560,2211004016,691560,2,0.38379,0.26758,0.89624,-3.924,2.221,0.229
2026-06-01 15:24:25.760,2211005216,691760,1,-0.44507,-0.2356,0.92603,14.015,-5.542,-4.931
2026-06-01 15:24:25.760,2211005216,691760,2,0.43848,0.30566,0.93872,-12.496,-11.122,3.069
2026-06-01 15:24:25.960,2211005416,691960,1,-0.54541,-0.28735,1.01611,10.092,-22.504,1.534
2026-06-01 15:24:25.960,2211005416,691960,2,0.43384,0.29517,0.83911,11.153,-51.252,14.832
2026-06-01 15:24:25.160,2211004616,692160,1,-0.3894,-0.27271,0.97705,6.435,-60.672,-21.069
2026-06-01 15:24:25.160,2211004616,692160,2,0.65186,0.19531,0.69409,-31.481,-71.84,24.168
2026-06-01 15:24:25.360,2211004816,692360,1,-0.12622,-0.2417,1.03784,14.038,-82.092,-24.298
2026-06-01 15:24:25.360,2211004816,692360,2,0.77075,-0.01782,0.59351,-14.901,-85.198,27.336
2026-06-01 15:24:25.560,2211005016,692560,1,0.14478,-0.16357,1.00317,-3.008,-85.931,-32.695
2026-06-01 15:24:25.560,2211005016,692560,2,0.90112,-0.0835,0.33423,-17.802,-75.634,44.641
2026-06-01 15:24:26.760,2211006216,692760,1,0.46509,-0.07397,0.81323,-8.229,-81.687,-28.061
2026-06-01 15:24:26.760,2211006216,692760,2,0.95776,-0.20386,0.03247,-26.496,-52.069,34.718
2026-06-01 15:24:26.960,2211006416,692960,1,0.79272,-0.04126,0.82349,-7.969,-53.206,-25.885
2026-06-01 15:24:26.960,2211006416,692960,2,1.01074,-0.27173,-0.08447,-45.26,-30.802,8.992
2026-06-01 15:24:26.160,2211005616,693160,1,0.85059,-0.05664,0.70947,-1.977,-31.962,-13.748
2026-06-01 15:24:26.160,2211005616,693160,2,1.0022,-0.2959,-0.2019,-35.824,-30.641,0.687
2026-06-01 15:24:26.360,2211005816,693360,1,0.89722,0.02026,0.65649,-4.847,-11.13,-6.267
2026-06-01 15:24:26.360,2211005816,693360,2,0.98828,-0.28003,-0.27319,-26.008,-5.878,-1.13
2026-06-01 15:24:26.560,2211006016,693560,1,0.91992,-0.04419,0.67407,5.611,2.069,2.008
2026-06-01 15:24:26.560,2211006016,693560,2,0.95361,-0.2644,-0.27466,9.359,3.305,2.473
2026-06-01 15:24:27.760,2211007216,693760,1,0.89648,-0.07422,0.64893,11.069,7.374,3.977
2026-06-01 15:24:27.760,2211007216,693760,2,0.96167,-0.25415,-0.26685,0.489,-1.458,-2.74
2026-06-01 15:24:27.960,2211007416,693960,1,0.88086,-0.00439,0.67725,2.779,1.443,2.435
2026-06-01 15:24:27.960,2211007416,693960,2,0.97461,-0.28003,-0.25806,-6.542,-0.229,2.023
2026-06-01 15:24:27.160,2211006616,694160,1,0.88843,-0.01367,0.69434,-2.534,-0.542,0.679
2026-06-01 15:24:27.160,2211006616,694160,2,0.96021,-0.27686,-0.2793,-1.046,-0.542,0.794
2026-06-01 15:24:27.360,2211006816,694360,1,0.89331,-0.02271,0.65649,-5.221,0.992,-2.557
2026-06-01 15:24:27.360,2211006816,694360,2,0.97339,-0.28296,-0.25269,-4.405,0.718,1.863
2026-06-01 15:24:27.560,2211007016,694560,1,0.91211,-0.03198,0.66895,-3.947,0.145,-3.748
2026-06-01 15:24:27.560,2211007016,694560,2,0.96069,-0.29004,-0.27393,4.733,-0.046,-0.901
2026-06-01 15:24:28.760,2211008216,694760,1,0.89478,-0.01587,0.67627,2.427,-0.939,0.046
2026-06-01 15:24:28.760,2211008216,694760,2,0.95874,-0.29736,-0.27075,-2.794,-0.29,0.397
2026-06-01 15:24:28.960,2211008416,694960,1,0.96655,0.01001,0.62402,0.046,10.603,3.634
2026-06-01 15:24:28.960,2211008416,694960,2,1.04321,-0.34448,-0.16528,55.359,18.977,0.405
2026-06-01 15:24:28.160,2211007616,695160,1,0.87817,-0.02881,0.59229,16.908,69.618,34.496
2026-06-01 15:24:28.160,2211007616,695160,2,1.11523,-0.29248,-0.09155,67.863,97.832,-39.076
2026-06-01 15:24:28.360,2211007816,695360,1,0.42432,-0.07153,0.80273,-8.473,125.504,46.573
2026-06-01 15:24:28.360,2211007816,695360,2,0.87451,-0.02979,0.23291,23.832,84.832,-50.977
2026-06-01 15:24:28.560,2211008016,695560,1,-0.08691,-0.20215,1.05493,-26.947,117.137,19.069
2026-06-01 15:24:28.560,2211008016,695560,2,0.78052,-0.00537,0.55469,24.771,98.099,-35.802
2026-06-01 15:24:29.760,2211009216,695760,1,-0.39209,-0.28516,1.10547,-18.244,82.656,12.084
2026-06-01 15:24:29.760,2211009216,695760,2,0.55664,0.17163,0.74365,-16.611,75.656,-30.687
2026-06-01 15:24:29.960,2211009416,695960,1,-0.61108,-0.30981,0.94922,-11.977,44.542,7.557
2026-06-01 15:24:29.960,2211009416,695960,2,0.3811,0.26929,0.88477,7.115,33.511,-10.863
2026-06-01 15:24:29.160,2211008616,696160,1,-0.64014,-0.28662,0.85815,-1.053,7.511,-0.214
2026-06-01 15:24:29.160,2211008616,696160,2,0.34424,0.28052,0.85425,-0.229,5.885,-2.221
2026-06-01 15:24:29.360,2211008816,696360,1,-0.55127,-0.29175,0.84033,-10.664,6.87,-7.252
2026-06-01 15:24:29.360,2211008816,696360,2,0.31494,0.27002,0.8916,-2.145,10.977,0.649
2026-06-01 15:24:29.560,2211009016,696560,1,-0.72485,-0.37695,0.89453,-10.145,3.229,1.588
2026-06-01 15:24:29.560,2211009016,696560,2,0.22144,0.29834,0.90063,3.863,-0.092,1.588
2026-06-01 15:24:30.760,2211010216,696760,1,-0.79712,-0.34717,1.00195,4.885,-29.435,-8.206
2026-06-01 15:24:30.760,2211010216,696760,2,0.27661,0.31982,0.95142,-29.412,-44.809,14.817
2026-06-01 15:24:30.960,2211010416,696960,1,-0.57959,-0.36694,0.95874,17.176,-96.794,-26.267
2026-06-01 15:24:30.960,2211010416,696960,2,0.52661,0.16309,0.70361,-6.809,-106.038,38.046
2026-06-01 15:24:30.160,2211009616,697160,1,-0.05151,-0.2019,0.93384,25.847,-127.626,-20.42
2026-06-01 15:24:30.160,2211009616,697160,2,0.85962,-0.0083,0.37866,-29.817,-104.58,48.656
2026-06-01 15:24:30.360,2211009816,697360,1,0.37305,-0.12183,0.85327,11.779,-111.756,-26.863
2026-06-01 15:24:30.360,2211009816,697360,2,0.97778,-0.17261,0.09668,-51.947,-85.168,33.542
2026-06-01 15:24:30.560,2211010016,697560,1,0.74268,-0.05713,0.72803,-6.168,-67.244,-38.55
2026-06-01 15:24:30.560,2211010016,697560,2,1.01294,-0.28906,-0.10547,-32.298,-39.939,19.847
2026-06-01 15:24:31.760,2211011216,697760,1,0.86841,-0.00146,0.67065,-10.069,-28.588,-25.756
2026-06-01 15:24:31.760,2211011216,697760,2,0.98901,-0.32788,-0.22852,-25.053,-18.13,12.412
2026-06-01 15:24:31.960,2211011416,697960,1,0.89136,0.05273,0.65991,-24.855,-10.901,-21.87
2026-06-01 15:24:31.960,2211011416,697960,2,0.97266,-0.30078,-0.23682,-24.695,0.435,11.198
2026-06-01 15:24:31.160,2211010616,698160,1,0.86523,0.09619,0.74146,-35.824,1.427,-33.733
2026-06-01 15:24:31.160,2211010616,698160,2,1.00977,-0.28296,-0.28638,-47.718,13.504,8.511
2026-06-01 15:24:31.360,2211010816,698360,1,0.91479,0.05664,0.71069,-43.473,19.244,-31.58
2026-06-01 15:24:31.360,2211010816,698360,2,0.99414,-0.36792,-0.34399,-64.649,27.176,21.748
2026-06-01 15:24:31.560,2211011016,698560,1,0.8457,-0.11548,0.65503,-102.458,10.748,-33.153
2026-06-01 15:24:31.560,2211011016,698560,2,0.96509,-0.32373,-0.26855,-45.695,44.649,27.282
2026-06-01 15:24:32.760,2211012216,698760,1,0.86353,-0.31445,0.55786,-86.641,7.221,-36.053
2026-06-01 15:24:32.760,2211012216,698760,2,0.77344,-0.58911,-0.43896,-148.427,53.008,-12.779
2026-06-01 15:24:32.960,2211012416,698960,1,0.85718,-0.28833,0.63525,-10.595,0.924,-7.496
2026-06-01 15:24:32.960,2211012416,698960,2,0.98926,-0.33472,-0.21533,-24.321,-13.939,-17.321
2026-06-01 15:24:32.160,2211011616,699160,1,0.82935,-0.2229,0.6084,8.519,-3.885,-5.435
2026-06-01 15:24:32.160,2211011616,699160,2,0.98462,-0.23486,-0.03442,32.565,54.588,36.198
2026-06-01 15:24:32.360,2211011816,699360,1,0.94019,-0.20142,0.76318,-6.031,-13.115,-5.153
2026-06-01 15:24:32.360,2211011816,699360,2,0.98511,-0.17261,0.03955,-11.557,24.45,-8.0
2026-06-01 15:24:32.560,2211012016,699560,1,0.82983,-0.18774,0.57153,-4.366,-5.908,-2.824
2026-06-01 15:24:32.560,2211012016,699560,2,0.97461,-0.08643,-0.03125,20.069,32.336,3.374
2026-06-01 15:24:33.760,2211013216,699760,1,0.89258,-0.17578,0.64648,20.977,2.504,-0.328
2026-06-01 15:24:33.760,2211013216,699760,2,1.14819,-0.17065,-0.10254,-40.924,-0.481,-56.725
2026-06-01 15:24:33.960,2211013416,699960,1,0.87524,-0.16431,0.62231,11.191,5.13,2.878
2026-06-01 15:24:33.960,2211013416,699960,2,1.03955,0.11377,-0.12695,16.779,3.45,3.176
2026-06-01 15:24:33.160,2211012616,700160,1,0.9248,-0.14282,0.63989,-8.832,6.061,-0.557
2026-06-01 15:24:33.160,2211012616,700160,2,1.04639,-0.00708,-0.13599,52.084,27.099,27.595
2026-06-01 15:24:33.360,2211012816,700360,1,0.91553,-0.20508,0.71997,-10.061,14.244,4.893
2026-06-01 15:24:33.360,2211012816,700360,2,1.09399,-0.00342,-0.06592,53.893,21.672,22.427
2026-06-01 15:24:33.560,2211013016,700560,1,0.8457,-0.25171,0.78687,-27.29,17.382,-2.282
2026-06-01 15:24:33.560,2211013016,700560,2,0.90918,-0.00708,0.10107,-43.344,36.817,0.611
2026-06-01 15:24:34.760,2211014216,700760,1,0.83887,-0.27832,0.68848,-39.321,16.779,-8.718
2026-06-01 15:24:34.760,2211014216,700760,2,1.13135,0.1377,-0.04956,-11.87,9.519,15.695
2026-06-01 15:24:34.960,2211014416,700960,1,0.83374,-0.29614,0.67212,-17.183,4.321,-13.664
2026-06-01 15:24:34.960,2211014416,700960,2,1.05273,-0.15332,0.03711,-19.061,-9.435,0.679
2026-06-01 15:24:34.160,2211013616,701160,1,0.83765,-0.28027,0.68555,-3.069,-2.802,-17.038
2026-06-01 15:24:34.160,2211013616,701160,2,1.02539,-0.0459,-0.0752,-37.473,-30.618,-25.305
2026-06-01 15:24:34.360,2211013816,701360,1,0.84058,-0.22656,0.65405,-1.496,-9.122,-8.038
2026-06-01 15:24:34.360,2211013816,701360,2,0.99927,-0.01709,-0.05347,13.313,15.763,29.885
2026-06-01 15:24:34.560,2211014016,701560,1,0.91211,-0.22632,0.60034,-6.824,2.137,-10.458
2026-06-01 15:24:34.560,2211014016,701560,2,1.06445,-0.03784,-0.11694,-14.29,-0.885,1.855
2026-06-01 15:24:35.760,2211015216,701760,1,0.854,-0.22339,0.61328,-7.702,20.649,-7.733
2026-06-01 15:24:35.760,2211015216,701760,2,1.13086,-0.09229,0.01343,-69.771,0.969,-45.397
2026-06-01 15:24:35.960,2211015416,701960,1,0.77686,-0.15674,0.77002,-3.947,10.74,-6.511
2026-06-01 15:24:35.960,2211015416,701960,2,0.98926,0.05908,-0.05371,-35.038,-4.534,-25.679
2026-06-01 15:24:35.160,2211014616,702160,1,0.86914,-0.22607,0.76782,3.443,-6.618,9.985
2026-06-01 15:24:35.160,2211014616,702160,2,1.05347,0.07935,-0.14868,29.794,-15.115,7.779
2026-06-01 15:24:35.360,2211014816,702360,1,0.79883,-0.27148,0.67676,17.168,-9.366,13.809
2026-06-01 15:24:35.360,2211014816,702360,2,1.1001,0.07886,-0.10156,31.275,13.031,13.298
2026-06-01 15:24:35.560,2211015016,702560,1,0.82202,-0.23096,0.71143,0.237,-4.534,3.137
2026-06-01 15:24:35.560,2211015016,702560,2,1.08618,-0.09131,0.198,97.061,70.855,80.153
2026-06-01 15:24:36.760,2211016216,702760,1,0.85522,-0.22583,0.69482,10.16,-13.13,0.977
2026-06-01 15:24:36.760,2211016216,702760,2,1.07031,-0.21436,0.08374,37.939,44.824,47.496
2026-06-01 15:24:36.960,2211016416,702960,1,0.88623,-0.30249,0.68579,-16.374,8.305,2.351
2026-06-01 15:24:36.960,2211016416,702960,2,1.00781,-0.11572,0.03296,12.985,-1.802,6.962
2026-06-01 15:24:36.160,2211015616,703160,1,0.90723,-0.30103,0.68384,33.061,11.763,21.618
2026-06-01 15:24:36.160,2211015616,703160,2,0.58472,-0.21558,0.10669,-11.641,-31.779,-22.321
2026-06-01 15:24:36.360,2211015816,703360,1,0.81934,-0.2019,0.61646,-21.397,17.649,-4.092
2026-06-01 15:24:36.360,2211015816,703360,2,1.29712,0.05542,0.25049,178.038,138.679,171.557
2026-06-01 15:24:36.560,2211016016,703560,1,0.82324,-0.34302,0.74268,9.939,-9.466,-12.855
2026-06-01 15:24:36.560,2211016016,703560,2,0.99805,-0.24512,0.302,91.168,61.885,74.924
2026-06-01 15:24:37.760,2211017216,703760,1,0.79199,-0.29028,0.66162,-6.847,4.557,9.756
2026-06-01 15:24:37.760,2211017216,703760,2,0.9856,-0.15234,0.04639,37.458,40.305,28.641
2026-06-01 15:24:37.960,2211017416,703960,1,0.80029,-0.32739,0.69995,-17.55,5.267,-13.214
2026-06-01 15:24:37.960,2211017416,703960,2,0.95605,-0.18726,0.23486,44.214,-21.107,12.473
2026-06-01 15:24:37.160,2211016616,704160,1,0.78296,-0.302,0.72656,-24.489,5.496,-21.763
2026-06-01 15:24:37.160,2211016616,704160,2,0.98755,-0.34399,0.0791,-24.122,-13.496,-14.115
2026-06-01 15:24:37.360,2211016816,704360,1,0.83081,-0.3418,0.70679,-7.405,1.84,-4.977
2026-06-01 15:24:37.360,2211016816,704360,2,0.98584,-0.19556,0.3584,-100.328,45.55,-12.038
2026-06-01 15:24:37.560,2211017016,704560,1,0.81641,-0.31665,0.62085,14.893,-8.237,9.405
2026-06-01 15:24:37.560,2211017016,704560,2,0.96826,-0.23071,0.0957,5.427,-2.42,-0.221
2026-06-01 15:24:38.760,2211018216,704760,1,0.8501,-0.25122,0.71558,24.84,-9.664,1.87
2026-06-01 15:24:38.760,2211018216,704760,2,1.01636,-0.15894,0.09131,-5.969,39.344,9.359
2026-06-01 15:24:38.960,2211018416,704960,1,0.82568,-0.37109,0.70068,25.534,-6.824,8.954
2026-06-01 15:24:38.960,2211018416,704960,2,0.90259,-0.39258,-0.19019,166.977,-123.237,29.511
2026-06-01 15:24:38.160,2211017616,705160,1,0.88037,-0.1416,0.61328,-12.641,-36.557,-28.214
2026-06-01 15:24:38.160,2211017616,705160,2,0.97607,-0.37671,0.49561,13.412,-86.359,49.542
2026-06-01 15:24:38.360,2211017816,705360,1,0.90088,-0.16235,0.76978,98.725,10.405,81.496
2026-06-01 15:24:38.360,2211017816,705360,2,0.97803,-0.14453,0.24414,66.931,30.679,-2.115
2026-06-01 15:24:38.560,2211018016,705560,1,0.65479,-0.16138,0.83008,19.977,0.565,29.443
2026-06-01 15:24:38.560,2211018016,705560,2,1.03516,0.12085,-0.0437,48.664,-47.45,18.947
2026-06-01 15:24:39.760,2211019216,705760,1,0.68433,-0.13867,0.86426,-4.939,-7.702,-3.397
2026-06-01 15:24:39.760,2211019216,705760,2,1.02783,0.00415,-0.22437,-17.183,-27.672,-14.481
2026-06-01 15:24:39.960,2211019416,705960,1,0.93115,-0.2583,0.67725,23.107,0.878,-0.298
2026-06-01 15:24:39.960,2211019416,705960,2,0.84741,-0.38379,0.33789,-69.29,35.603,-11.55
2026-06-01 15:24:39.160,2211018616,706160,1,0.85913,-0.40527,0.61914,-9.298,-6.305,-0.344
2026-06-01 15:24:39.160,2211018616,706160,2,0.90649,-0.43359,0.20801,-32.26,12.863,2.183
2026-06-01 15:24:39.360,2211018816,706360,1,0.93677,-0.33813,0.51025,27.901,-10.115,15.221
2026-06-01 15:24:39.360,2211018816,706360,2,0.83154,-0.51538,-0.23999,22.679,-44.351,-16.305
2026-06-01 15:24:39.560,2211019016,706560,1,1.10352,-0.34204,0.76099,105.527,-41.137,21.443
2026-06-01 15:24:39.560,2211019016,706560,2,0.85693,-0.44458,0.04297,48.679,70.275,11.389
2026-06-01 15:24:40.760,2211020216,706760,1,0.9043,-0.11768,0.76636,105.809,19.046,45.87
2026-06-01 15:24:40.760,2211020216,706760,2,1.04761,-0.14331,0.11377,81.282,-10.45,-15.481
2026-06-01 15:24:40.960,2211020416,706960,1,0.77661,0.07764,0.80566,74.13,27.13,55.649
2026-06-01 15:24:40.960,2211020416,706960,2,1.0061,-0.05054,-0.05811,63.435,4.695,-5.511
2026-06-01 15:24:40.160,2211019616,707160,1,0.69409,0.23462,0.87378,24.099,1.809,7.122
2026-06-01 15:24:40.160,2211019616,707160,2,0.98291,0.05347,-0.11523,1.229,-12.252,5.824
2026-06-01 15:24:40.360,2211019816,707360,1,0.7959,0.27393,0.7749,-12.847,-26.252,-25.901
2026-06-01 15:24:40.360,2211019816,707360,2,1.20874,-0.37842,0.07495,-92.588,-15.305,24.542
2026-06-01 15:24:40.560,2211020016,707560,1,0.85425,-0.04688,0.83203,-22.427,-11.489,8.183
2026-06-01 15:24:40.560,2211020016,707560,2,0.95337,-0.31128,-0.01733,-34.985,-3.504,3.87
2026-06-01 15:24:41.760,2211021216,707760,1,0.96265,-0.09058,0.68335,-149.763,9.397,-58.206
2026-06-01 15:24:41.760,2211021216,707760,2,1.15381,-0.32642,-0.17334,-85.511,30.45,-7.267
2026-06-01 15:24:41.960,2211021416,707960,1,0.92554,-0.17627,0.77563,18.053,-17.038,25.198
2026-06-01 15:24:41.960,2211021416,707960,2,1.05029,-0.09766,-0.0564,26.718,-3.282,12.489
2026-06-01 15:24:41.160,2211020616,708160,1,0.94043,-0.19751,0.67871,106.389,-6.275,19.183
2026-06-01 15:24:41.160,2211020616,708160,2,1.0896,-0.24341,0.01514,-35.122,-6.771,-20.962
2026-06-01 15:24:41.360,2211020816,708360,1,0.96533,0.18262,0.75049,-17.733,-0.84,-17.817
2026-06-01 15:24:41.360,2211020816,708360,2,0.29785,-0.18066,-0.55713,17.084,-250.137,14.107
2026-06-01 15:24:41.560,2211021016,708560,1,0.74146,-0.16064,0.68774,-68.458,7.42,-25.542
2026-06-01 15:24:41.560,2211021016,708560,2,1.10693,-0.26807,-0.0835,-38.137,9.435,14.977
2026-06-01 15:24:42.760,2211022216,708760,1,0.87476,-0.10352,0.69141,-64.382,16.74,-44.527
2026-06-01 15:24:42.760,2211022216,708760,2,0.91113,-0.39331,-0.04541,-85.641,39.794,-6.885
2026-06-01 15:24:42.960,2211022416,708960,1,0.85913,-0.25537,0.64087,-6.672,-5.298,-0.191
2026-06-01 15:24:42.960,2211022416,708960,2,0.77686,-0.55908,-0.14258,-49.145,-26.74,-18.061
2026-06-01 15:24:42.160,2211021616,709160,1,0.79224,0.1123,0.84106,60.992,13.046,17.443
2026-06-01 15:24:42.160,2211021616,709160,2,0.74512,-0.39844,0.04517,-4.267,-24.038,20.275
2026-06-01 15:24:42.360,2211021816,709360,1,0.86597,0.01855,0.70068,-21.939,-6.046,-10.87
2026-06-01 15:24:42.360,2211021816,709360,2,1.01855,-0.26807,-0.03516,9.244,-0.382,3.771
2026-06-01 15:24:42.560,2211022016,709560,1,0.90381,-0.10986,0.69214,21.718,6.099,12.313
2026-06-01 15:24:42.560,2211022016,709560,2,1.02612,-0.24097,0.03906,77.878,-8.977,-18.214
2026-06-01 15:24:43.760,2211023216,709760,1,0.7937,0.13818,0.78516,60.183,25.42,36.802
2026-06-01 15:24:43.760,2211023216,709760,2,0.94043,-0.0874,-0.05029,70.145,1.366,-9.29
2026-06-01 15:24:43.960,2211023416,709960,1,0.65601,0.19727,0.87964,24.954,-5.046,13.695
2026-06-01 15:24:43.960,2211023416,709960,2,1.01001,-0.00244,-0.12866,-34.084,-9.626,13.611
2026-06-01 15:24:43.160,2211022616,710160,1,0.90234,0.00562,0.74316,-40.313,-12.603,2.0
2026-06-01 15:24:43.160,2211022616,710160,2,1.03638,-0.16309,0.00391,17.275,28.641,3.496
2026-06-01 15:24:43.360,2211022816,710360,1,0.85962,-0.14063,0.73926,-40.725,11.924,-18.588
2026-06-01 15:24:43.360,2211022816,710360,2,0.9187,-0.34082,0.05469,-26.122,9.153,11.885
2026-06-01 15:24:43.560,2211023016,710560,1,0.88403,-0.13135,0.6582,-10.588,-16.015,10.832
2026-06-01 15:24:43.560,2211023016,710560,2,1.15479,-0.14404,-0.03369,-23.794,21.496,-2.931
2026-06-01 15:24:44.760,2211024216,710760,1,0.85986,-0.00903,0.64429,-103.076,-5.397,-99.061
2026-06-01 15:24:44.760,2211024216,710760,2,0.93604,-0.28394,-0.07007,-136.229,36.115,8.924
2026-06-01 15:24:44.960,2211024416,710960,1,0.88477,-0.07739,0.66821,-115.366,1.221,-101.45
2026-06-01 15:24:44.960,2211024416,710960,2,0.99487,-0.40625,-0.12183,-151.45,51.382,-3.267
2026-06-01 15:24:44.160,2211023616,711160,1,0.8584,-0.13525,0.74512,-71.122,4.969,-63.473
2026-06-01 15:24:44.160,2211023616,711160,2,0.93579,-0.21899,-0.00806,-74.824,29.992,-22.008
2026-06-01 15:24:44.360,2211023816,711360,1,0.92334,-0.22168,0.66309,-42.237,36.481,-30.511
2026-06-01 15:24:44.360,2211023816,711360,2,0.8208,-0.29517,-0.12451,8.137,38.397,-19.679
2026-06-01 15:24:44.560,2211024016,711560,1,0.88525,0.01831,0.82251,-7.817,9.435,-20.427
2026-06-01 15:24:44.560,2211024016,711560,2,0.89258,-0.23389,-0.05908,3.038,-13.168,-6.229
2026-06-01 15:24:45.760,2211025216,711760,1,0.77124,-0.04517,0.78174,6.466,0.443,5.198
2026-06-01 15:24:45.760,2211025216,711760,2,1.00513,-0.25293,0.01563,14.092,-0.542,-2.954
2026-06-01 15:24:45.960,2211025416,711960,1,0.78491,0.09424,0.82324,-3.336,6.603,-4.153
2026-06-01 15:24:45.960,2211025416,711960,2,1.02905,-0.16968,-0.00903,-16.588,3.206,-7.137
2026-06-01 15:24:45.160,2211024616,712160,1,0.79199,0.0061,0.83789,47.618,16.695,32.214
2026-06-01 15:24:45.160,2211024616,712160,2,1.04663,-0.18091,0.05249,64.832,0.092,-8.611
2026-06-01 15:24:45.360,2211024816,712360,1,0.60718,0.07886,0.8877,32.664,14.076,11.183
2026-06-01 15:24:45.360,2211024816,712360,2,0.97632,-0.03101,0.12695,64.756,-5.069,10.565
2026-06-01 15:24:45.560,2211025016,712560,1,0.70166,0.15796,0.8584,28.885,-4.237,10.221
2026-06-01 15:24:45.560,2211025016,712560,2,1.03857,-0.33911,0.10767,49.13,-20.405,32.534
2026-06-01 15:24:46.760,2211026216,712760,1,0.76538,0.03467,0.72559,46.305,-4.038,90.198
2026-06-01 15:24:46.760,2211026216,712760,2,0.98853,-0.38013,-0.11108,59.603,-21.954,-5.756
2026-06-01 15:24:46.960,2211026416,712960,1,0.94116,-0.01392,0.60181,82.511,4.26,91.397
2026-06-01 15:24:46.960,2211026416,712960,2,1.04663,-0.30884,-0.09229,128.824,-4.053,-17.29
2026-06-01 15:24:46.160,2211025616,713160,1,0.8252,0.08521,0.68018,94.038,42.252,99.969
2026-06-01 15:24:46.160,2211025616,713160,2,1.02051,-0.17847,-0.08252,166.374,22.817,-5.405
2026-06-01 15:24:46.360,2211025816,713360,1,0.59546,0.16479,0.98706,53.565,44.015,71.321
2026-06-01 15:24:46.360,2211025816,713360,2,1.05786,0.26245,-0.05884,60.244,0.015,14.687
2026-06-01 15:24:46.560,2211026016,713560,1,0.51978,0.19312,0.96948,-35.153,20.977,14.374
2026-06-01 15:24:46.560,2211026016,713560,2,1.00635,0.15894,0.21411,0.084,46.504,10.435
2026-06-01 15:24:47.760,2211027216,713760,1,0.43896,-0.53784,1.31274,2.962,-16.229,-11.565
2026-06-01 15:24:47.760,2211027216,713760,2,1.03003,-0.10181,0.17285,-6.855,-26.107,-0.618
2026-06-01 15:24:47.960,2211027416,713960,1,0.68335,-0.21094,0.76025,-3.13,-66.084,-37.962
2026-06-01 15:24:47.960,2211027416,713960,2,0.99609,-0.22168,0.21289,20.626,-33.954,28.771
2026-06-01 15:24:47.160,2211026616,714160,1,0.84766,-0.03662,0.72192,-15.405,-36.985,-25.885
2026-06-01 15:24:47.160,2211026616,714160,2,0.99976,-0.26709,0.05835,-30.458,-32.718,26.153
2026-06-01 15:24:47.360,2211026816,714360,1,0.89136,-0.0957,0.6604,-41.626,-19.992,-38.542
2026-06-01 15:24:47.360,2211026816,714360,2,0.98853,-0.31909,-0.06299,-25.588,-8.702,9.473
2026-06-01 15:24:47.560,2211027016,714560,1,0.93042,-0.03955,0.65845,1.458,8.359,1.595
2026-06-01 15:24:47.560,2211027016,714560,2,1.04663,-0.39673,0.06226,29.588,25.359,-10.939
2026-06-01 15:24:48.760,2211028216,714760,1,0.92627,0.00464,0.56738,29.13,78.534,54.412
2026-06-01 15:24:48.760,2211028216,714760,2,0.97876,-0.31616,0.00684,128.969,54.366,-33.74
2026-06-01 15:24:48.960,2211028416,714960,1,0.19409,0.05664,1.06323,27.733,108.908,42.13
2026-06-01 15:24:48.960,2211028416,714960,2,0.95459,-0.00171,0.17676,-35.595,53.42,-33.656
2026-06-01 15:24:48.160,2211027616,715160,1,0.34277,-0.25635,1.06616,-39.618,-58.824,-51.542
2026-06-01 15:24:48.160,2211027616,715160,2,0.80225,0.00879,0.09839,-121.878,-54.298,7.046
2026-06-01 15:24:48.360,2211027816,715360,1,0.75513,-0.13721,0.78174,-37.076,-49.305,-88.092
2026-06-01 15:24:48.360,2211027816,715360,2,1.00732,-0.24023,0.00879,-97.656,-17.244,4.687
2026-06-01 15:24:48.560,2211028016,715560,1,0.82935,-0.05566,0.73486,-72.977,-14.466,-89.336
2026-06-01 15:24:48.560,2211028016,715560,2,1.00244,-0.35229,-0.0437,-97.519,6.84,4.542
2026-06-01 15:24:49.760,2211029216,715760,1,0.85718,-0.09814,0.69019,-39.588,-0.221,-44.794
2026-06-01 15:24:49.760,2211029216,715760,2,0.94067,-0.37378,-0.00098,-23.443,9.122,4.595
2026-06-01 15:24:49.960,2211029416,715960,1,0.8667,-0.10669,0.70386,0.237,6.87,7.26
2026-06-01 15:24:49.960,2211029416,715960,2,0.95801,-0.37354,-0.02783,23.794,5.351,1.573
2026-06-01 15:24:49.160,2211028616,716160,1,0.78784,-0.02466,0.75635,67.863,31.733,72.832
2026-06-01 15:24:49.160,2211028616,716160,2,0.99585,-0.27246,0.07178,119.916,19.702,-12.504
2026-06-01 15:24:49.360,2211028816,716360,1,0.50562,0.0293,0.66016,51.351,103.031,106.908
2026-06-01 15:24:49.360,2211028816,716360,2,0.76733,-0.05762,0.15283,166.664,85.618,-3.595
2026-06-01 15:24:49.560,2211029016,716560,1,0.1416,-0.21875,0.99805,18.573,80.847,78.282
2026-06-01 15:24:49.560,2211029016,716560,2,0.83301,0.12427,0.40991,82.389,65.557,-14.031
2026-06-01 15:24:50.760,2211030216,716760,1,-0.03955,-0.17603,1.30591,4.618,14.168,45.13
2026-06-01 15:24:50.760,2211030216,716760,2,0.90527,0.13159,0.68799,-11.115,-9.962,20.519
2026-06-01 15:24:50.960,2211030416,716960,1,0.12695,-0.23267,1.21948,-7.275,13.832,9.069
2026-06-01 15:24:50.960,2211030416,716960,2,0.82593,0.13403,0.66187,8.733,16.389,0.42
2026-06-01 15:24:50.160,2211029616,717160,1,-0.05005,-0.18896,1.11108,-4.763,-47.519,-26.573
2026-06-01 15:24:50.160,2211029616,717160,2,0.72729,0.02417,0.59863,-51.153,-28.931,16.405
2026-06-01 15:24:50.360,2211029816,717360,1,0.22705,-0.09814,1.04492,8.603,-21.412,-10.595
2026-06-01 15:24:50.360,2211029816,717360,2,0.78711,-0.00977,0.63232,-23.672,-7.473,-0.847
2026-06-01 15:24:50.560,2211030016,717560,1,0.29858,-0.08984,1.10059,0.977,-11.863,-2.023
2026-06-01 15:24:50.560,2211030016,717560,2,0.79858,-0.09399,0.59546,-26.725,3.031,5.702
2026-06-01 15:24:51.760,2211031216,717760,1,0.35645,-0.15552,1.16943,18.305,0.695,2.328
2026-06-01 15:24:51.760,2211031216,717760,2,0.89819,-0.21533,0.67847,-4.901,-11.786,-4.603
2026-06-01 15:24:51.960,2211031416,717960,1,0.4209,-0.19873,1.07568,7.328,-14.794,3.107
2026-06-01 15:24:51.960,2211031416,717960,2,0.88672,-0.11426,0.45386,-10.16,-31.16,-18.336
2026-06-01 15:24:51.160,2211030616,718160,1,0.59009,-0.08813,1.21851,-2.962,-19.679,-8.809
2026-06-01 15:24:51.160,2211030616,718160,2,1.0752,-0.13403,0.42114,34.145,-15.58,7.389
2026-06-01 15:24:51.360,2211030816,718360,1,0.52979,-0.06201,1.06201,-0.519,-13.473,1.092
2026-06-01 15:24:51.360,2211030816,718360,2,0.98755,-0.08057,0.2959,18.802,-12.634,4.756
2026-06-01 15:24:51.560,2211031016,718560,1,0.43237,-0.06372,0.87915,-2.275,-22.107,-9.45
2026-06-01 15:24:51.560,2211031016,718560,2,0.78955,-0.09619,0.21729,-18.794,-21.725,6.145
2026-06-01 15:24:52.760,2211032216,718760,1,0.51001,-0.05396,0.77295,-5.84,-46.267,-8.901
2026-06-01 15:24:52.760,2211032216,718760,2,0.93579,-0.20947,0.1438,-10.901,-39.542,12.198
2026-06-01 15:24:52.960,2211032416,718960,1,0.71313,-0.06812,0.79395,-9.771,-37.634,-14.031
2026-06-01 15:24:52.960,2211032416,718960,2,0.98608,-0.16064,0.08228,-16.87,-34.71,14.069
2026-06-01 15:24:52.160,2211031616,719160,1,0.89478,0.0332,0.67114,19.046,-11.916,3.885
2026-06-01 15:24:52.160,2211031616,719160,2,1.06689,-0.25684,-0.11304,7.771,-0.55,-0.305
2026-06-01 15:24:52.360,2211031816,719360,1,0.87891,0.00659,0.67822,1.771,33.427,4.618
2026-06-01 15:24:52.360,2211031816,719360,2,1.03418,-0.23999,0.10132,22.053,40.153,-8.939
2026-06-01 15:24:52.560,2211032016,719560,1,0.5918,-0.05762,0.73364,2.84,83.305,18.405
2026-06-01 15:24:52.560,2211032016,719560,2,0.89624,-0.08569,0.1731,97.908,73.969,-25.557
2026-06-01 15:24:53.760,2211033216,719760,1,0.24756,-0.10962,0.92383,-14.87,75.489,5.107
2026-06-01 15:24:53.760,2211033216,719760,2,0.65454,-0.03101,0.31519,22.939,56.321,-25.672
2026-06-01 15:24:53.960,2211033416,719960,1,0.23242,-0.23486,1.0127,-2.328,13.008,5.366
2026-06-01 15:24:53.960,2211033416,719960,2,0.85205,-0.04419,0.53271,-3.863,-7.931,2.954
2026-06-01 15:24:53.160,2211032616,720160,1,0.35449,-0.19141,1.28247,1.473,3.618,5.84
2026-06-01 15:24:53.160,2211032616,720160,2,1.02686,-0.10815,0.74805,-15.496,2.435,-2.298
2026-06-01 15:24:53.360,2211032816,720360,1,0.09692,-0.21436,1.50708,-2.527,-5.664,-3.58
2026-06-01 15:24:53.360,2211032816,720360,2,0.99854,-0.16333,0.69067,-10.634,-28.13,9.137
2026-06-01 15:24:53.560,2211033016,720560,1,0.35596,-0.14624,1.04102,-0.779,3.191,0.634
2026-06-01 15:24:53.560,2211033016,720560,2,0.8208,-0.08887,0.65771,13.489,13.626,6.16
2026-06-01 15:24:54.760,2211034216,720760,1,0.29053,-0.15967,1.38696,15.29,-10.504,6.588
2026-06-01 15:24:54.760,2211034216,720760,2,1.00757,-0.021,0.73706,11.664,-27.466,1.458
2026-06-01 15:24:54.960,2211034416,720960,1,0.354,-0.09082,1.19238,2.565,-39.603,-6.916
2026-06-01 15:24:54.960,2211034416,720960,2,0.8291,-0.06494,0.33057,-13.779,-50.863,14.695
2026-06-01 15:24:54.230,2211033686,721229,1,0.40405,-0.07983,0.70093,2.366,-64.053,-25.168
2026-06-01 15:24:54.230,2211033686,721229,2,0.78076,-0.14893,0.13696,-52.29,-68.87,4.466
2026-06-01 15:24:54.429,2211033885,721429,1,0.75854,0.00342,0.63745,10.16,-53.42,-16.496
2026-06-01 15:24:54.429,2211033885,721429,2,1.02319,-0.19189,-0.00635,-12.534,-46.908,12.763
2026-06-01 15:24:55.629,2211035085,721629,1,0.95313,0.01196,0.62744,-14.015,-17.672,-16.084
2026-06-01 15:24:55.629,2211035085,721629,2,1.03198,-0.22998,-0.05322,-7.496,-15.74,5.435
2026-06-01 15:24:55.829,2211035285,721829,1,0.92993,-0.04004,0.62231,-25.153,-3.542,-24.466
2026-06-01 15:24:55.829,2211035285,721829,2,1.00171,-0.27271,-0.09375,-5.977,6.351,1.374
2026-06-01 15:24:55.029,2211034485,722029,1,0.91943,0.02051,0.677,5.779,23.649,9.534
2026-06-01 15:24:55.029,2211034485,722029,2,1.02588,-0.29346,-0.02515,23.061,26.885,-3.832
2026-06-01 15:24:55.229,2211034685,722229,1,0.7085,0.01367,0.65601,-5.992,70.206,19.519
2026-06-01 15:24:55.229,2211034685,722229,2,0.8916,-0.19214,0.11182,56.809,68.519,-8.168
2026-06-01 15:24:55.429,2211034885,722429,1,0.41016,-0.10474,0.81714,-8.977,75.534,21.824
2026-06-01 15:24:55.429,2211034885,722429,2,0.82397,-0.10498,0.2688,44.542,69.947,-22.221
2026-06-01 15:24:56.629,2211036085,722629,1,0.31714,-0.09497,1.05859,3.214,43.863,19.061
2026-06-01 15:24:56.629,2211036085,722629,2,0.88208,-0.03638,0.46265,-13.901,35.908,-14.481
2026-06-01 15:24:56.829,2211036285,722829,1,0.25879,-0.19019,1.12915,-5.145,18.931,8.542
2026-06-01 15:24:56.829,2211036285,722829,2,0.79126,-0.11914,0.6106,-26.687,3.733,2.313
2026-06-01 15:24:56.029,2211035485,723029,1,0.32202,-0.21973,1.28906,-3.305,8.427,3.038
2026-06-01 15:24:56.029,2211035485,723029,2,0.86694,-0.14648,0.79565,-5.374,8.305,2.687
2026-06-01 15:24:56.229,2211035685,723229,1,0.27026,-0.2666,1.18408,14.954,8.198,11.397
2026-06-01 15:24:56.229,2211035685,723229,2,0.76099,-0.08081,0.68506,9.053,1.87,-6.382
2026-06-01 15:24:56.429,2211035885,723429,1,0.25366,-0.19116,1.1311,11.611,5.725,2.779
2026-06-01 15:24:56.429,2211035885,723429,2,0.7771,-0.04761,0.56421,-9.237,-11.122,3.939
2026-06-01 15:24:57.629,2211037085,723629,1,0.23096,-0.27832,1.30688,4.786,-12.809,-4.168
2026-06-01 15:24:57.629,2211037085,723629,2,0.97827,0.03076,0.73193,23.893,-29.29,-5.053
2026-06-01 15:24:57.829,2211037285,723829,1,0.34009,-0.13745,1.2644,6.473,-13.038,-7.313
2026-06-01 15:24:57.829,2211037285,723829,2,0.94775,0.09546,0.53003,3.137,-29.603,4.206
2026-06-01 15:24:57.029,2211036485,724029,1,0.33472,-0.10278,1.02173,-0.618,-41.076,-15.084
2026-06-01 15:24:57.029,2211036485,724029,2,0.80737,-0.04272,0.3479,-19.985,-36.031,10.542
2026-06-01 15:24:57.229,2211036685,724229,1,0.46118,-0.03442,0.81885,4.115,-59.87,-14.191
2026-06-01 15:24:57.229,2211036685,724229,2,0.82544,-0.11621,0.22021,-50.573,-54.351,15.115
2026-06-01 15:24:57.429,2211036885,724429,1,0.71753,0.00269,0.70215,15.779,-54.389,-10.069
2026-06-01 15:24:57.429,2211036885,724429,2,0.96558,-0.10986,0.1123,-55.748,-43.878,-0.84
2026-06-01 15:24:58.629,2211038085,724629,1,0.90967,0.01929,0.69312,9.275,-2.641,0.534
2026-06-01 15:24:58.629,2211038085,724629,2,1.03418,-0.16846,-0.021,-1.206,-1.649,-2.885
2026-06-01 15:24:58.829,2211038285,724829,1,0.87427,0.03223,0.66309,5.344,13.664,3.687
2026-06-01 15:24:58.829,2211038285,724829,2,1.02563,-0.19507,-0.0293,6.954,11.252,2.947
2026-06-01 15:24:58.029,2211037485,725029,1,0.73193,0.03564,0.70288,7.092,47.603,19.534
2026-06-01 15:24:58.029,2211037485,725029,2,0.92676,-0.11206,0.11646,37.206,58.16,4.954
2026-06-01 15:24:58.229,2211037685,725229,1,0.51392,-0.06567,0.81006,-5.137,61.29,10.786
2026-06-01 15:24:58.229,2211037685,725229,2,0.79663,-0.10645,0.14673,53.008,58.954,-6.191
2026-06-01 15:24:58.429,2211037885,725429,1,0.40308,-0.09619,0.92334,-8.214,46.908,0.702
2026-06-01 15:24:58.429,2211037885,725429,2,0.86646,-0.09229,0.30981,-4.588,33.107,-8.908
2026-06-01 15:24:59.629,2211039085,725629,1,0.38916,-0.11768,1.15967,-7.634,20.137,-2.992
2026-06-01 15:24:59.629,2211039085,725629,2,0.91528,-0.13843,0.58203,-9.893,18.855,-1.305
2026-06-01 15:24:59.829,2211039285,725829,1,0.36694,-0.07471,1.22192,3.802,9.718,5.298
2026-06-01 15:24:59.829,2211039285,725829,2,0.94897,0.02148,0.60693,5.29,11.191,2.344
2026-06-01 15:24:59.029,2211038485,726029,1,0.29785,-0.10449,1.14331,-4.191,11.908,2.794
2026-06-01 15:24:59.029,2211038485,726029,2,0.84863,-0.00366,0.59082,0.221,9.656,0.427
2026-06-01 15:24:59.229,2211038685,726229,1,0.3064,-0.17993,1.18848,-11.695,-16.954,-0.336
2026-06-01 15:24:59.229,2211038685,726229,2,0.82129,-0.09253,0.66309,7.122,-0.42,2.832
2026-06-01 15:24:59.429,2211038885,726429,1,0.28467,-0.18506,1.42188,-2.611,-16.183,-0.046
2026-06-01 15:24:59.429,2211038885,726429,2,0.96094,-0.0896,0.71265,-2.183,-26.878,3.588
2026-06-01 15:25:00.629,2211040085,726629,1,0.41895,-0.14136,1.15649,11.679,-32.664,-4.557
2026-06-01 15:25:00.629,2211040085,726629,2,0.89868,-0.07153,0.41455,-1.527,-48.664,6.275
2026-06-01 15:25:00.829,2211040285,726829,1,0.45996,-0.0752,0.84595,5.389,-55.405,-10.328
2026-06-01 15:25:00.829,2211040285,726829,2,0.82568,-0.13647,0.23169,-8.015,-52.71,17.58
2026-06-01 15:25:00.029,2211039485,727029,1,0.52832,-0.06396,0.63721,14.282,-58.565,-6.771
2026-06-01 15:25:00.029,2211039485,727029,2,0.90259,-0.17432,0.10132,8.817,-52.176,22.0
2026-06-01 15:25:00.229,2211039685,727229,1,0.83936,0.03467,0.68042,-1.099,-26.893,-9.031
2026-06-01 15:25:00.229,2211039685,727229,2,1.04224,-0.22339,0.04102,-15.076,-20.008,7.244
2026-06-01 15:25:00.429,2211039885,727429,1,0.87036,0.00732,0.6875,1.641,-0.198,-5.145
2026-06-01 15:25:00.429,2211039885,727429,2,1.00659,-0.2688,-0.02148,-14.954,6.153,-1.55
2026-06-01 15:25:01.629,2211041085,727629,1,0.896,-0.00366,0.65088,-0.221,29.298,5.382
2026-06-01 15:25:01.629,2211041085,727629,2,1.0127,-0.22021,0.1189,28.893,45.168,-7.344
2026-06-01 15:25:01.829,2211041285,727829,1,0.53296,-0.00854,0.63892,-9.008,85.336,23.031
2026-06-01 15:25:01.829,2211041285,727829,2,0.76929,-0.07983,0.30127,70.275,75.046,-36.847
2026-06-01 15:25:01.094,2211040550,728094,1,0.27344,-0.11035,1.00708,8.611,61.397,17.916
2026-06-01 15:25:01.094,2211040550,728094,2,0.7666,0.00317,0.4519,-24.076,57.031,-25.458
2026-06-01 15:25:01.294,2211040750,728294,1,0.11255,-0.16357,1.24146,-9.573,15.237,-3.29
2026-06-01 15:25:01.294,2211040750,728294,2,0.81689,0.03223,0.729,-43.618,4.344,3.366
2026-06-01 15:25:01.494,2211040950,728494,1,0.24561,-0.27368,1.27197,-0.565,-21.29,-8.855
2026-06-01 15:25:01.494,2211040950,728494,2,0.92798,-0.0459,0.80005,-14.214,-7.237,5.885
2026-06-01 15:25:02.694,2211042150,728694,1,0.27295,-0.16968,1.13184,-4.824,1.313,-5.267
2026-06-01 15:25:02.694,2211042150,728694,2,0.82324,-0.08716,0.66406,-15.908,1.87,1.137
2026-06-01 15:25:02.894,2211042350,728894,1,0.25366,-0.1626,1.11694,0.87,10.061,-9.947
2026-06-01 15:25:02.894,2211042350,728894,2,0.79395,-0.09326,0.58618,-0.084,-2.198,-5.939
2026-06-01 15:25:02.094,2211041550,729094,1,0.2644,-0.19922,1.17212,-18.534,-9.611,-15.282
2026-06-01 15:25:02.094,2211041550,729094,2,0.81763,-0.10815,0.7041,-5.565,-11.427,-6.939
2026-06-01 15:25:02.294,2211041750,729294,1,0.2605,-0.18213,1.28394,-4.626,-27.702,-14.008
2026-06-01 15:25:02.294,2211041750,729294,2,0.87134,-0.11377,0.66504,-2.84,-30.45,4.626
2026-06-01 15:25:02.494,2211041950,729494,1,0.31348,-0.14868,1.08423,12.718,-43.786,-3.87
2026-06-01 15:25:02.494,2211041950,729494,2,0.82324,-0.07861,0.37744,-1.763,-40.061,13.969
2026-06-01 15:25:03.694,2211043150,729694,1,0.40405,-0.06616,0.81201,2.664,-60.962,-6.069
2026-06-01 15:25:03.694,2211043150,729694,2,0.77246,-0.03052,0.16357,-16.26,-55.13,18.878
2026-06-01 15:25:03.894,2211043350,729894,1,0.7417,-0.03979,0.71948,14.55,-52.855,-1.183
2026-06-01 15:25:03.894,2211043350,729894,2,0.91724,-0.18433,0.17725,-29.45,-27.893,2.504
2026-06-01 15:25:03.094,2211042550,730094,1,0.89014,-0.02319,0.70215,5.679,-7.802,-3.046
2026-06-01 15:25:03.094,2211042550,730094,2,1.0354,-0.16333,0.05518,-11.481,-0.092,-5.71
2026-06-01 15:25:03.294,2211042750,730294,1,0.88257,0.0376,0.65308,-3.962,31.58,-3.992
2026-06-01 15:25:03.294,2211042750,730294,2,0.98169,-0.16553,0.1626,5.908,39.985,-5.237
2026-06-01 15:25:03.494,2211042950,730494,1,0.6272,-0.01587,0.75903,-5.053,84.74,21.092
2026-06-01 15:25:03.494,2211042950,730494,2,0.90063,-0.12183,0.15015,80.855,81.863,-14.275
2026-06-01 15:25:04.694,2211044150,730694,1,0.26929,-0.17334,0.89551,-21.954,72.74,6.344
2026-06-01 15:25:04.694,2211044150,730694,2,0.64771,-0.03052,0.39404,34.824,75.16,-7.664
2026-06-01 15:25:04.894,2211044350,730894,1,0.1543,-0.21851,1.08472,-10.031,3.191,1.947
2026-06-01 15:25:04.894,2211044350,730894,2,0.80957,0.06787,0.57202,-32.794,3.282,-3.443
2026-06-01 15:25:04.094,2211043550,731094,1,0.18896,-0.20874,1.25928,-1.511,-10.603,-15.29
2026-06-01 15:25:04.094,2211043550,731094,2,0.94531,-0.02319,0.68994,-32.481,-16.45,-3.382
2026-06-01 15:25:04.294,2211043750,731294,1,0.31934,-0.177,1.18652,1.718,1.618,-5.237
2026-06-01 15:25:04.294,2211043750,731294,2,0.85938,-0.05859,0.60498,-10.855,7.168,5.244
2026-06-01 15:25:04.494,2211043950,731494,1,0.2583,-0.23462,1.21582,-22.504,1.382,-14.023
2026-06-01 15:25:04.494,2211043950,731494,2,0.87671,-0.07104,0.59912,18.702,6.519,4.397
2026-06-01 15:25:05.694,2211045150,731694,1,0.24219,-0.28223,1.2417,3.412,-9.725,-8.985
2026-06-01 15:25:05.694,2211045150,731694,2,0.89111,-0.03906,0.74341,4.595,-1.092,-3.962
2026-06-01 15:25:05.894,2211045350,731894,1,0.2583,-0.24023,1.24219,-8.511,-27.74,-21.87
2026-06-01 15:25:05.894,2211045350,731894,2,0.82568,-0.04956,0.53027,28.191,-50.794,14.45
2026-06-01 15:25:05.094,2211044550,732094,1,0.40552,-0.16479,0.9856,0.557,-50.015,-28.908
2026-06-01 15:25:05.094,2211044550,732094,2,0.90918,-0.08179,0.3645,-24.771,-43.733,10.046
2026-06-01 15:25:05.294,2211044750,732294,1,0.53784,-0.12158,0.8313,-8.534,-48.672,-39.115
2026-06-01 15:25:05.294,2211044750,732294,2,0.85083,-0.13989,0.22412,-46.748,-30.931,-1.321
2026-06-01 15:25:05.494,2211044950,732494,1,0.65503,-0.03125,0.83545,-10.901,-47.511,-38.137
2026-06-01 15:25:05.494,2211044950,732494,2,0.92725,-0.20068,0.08252,-65.397,-29.481,-14.687
2026-06-01 15:25:06.694,2211046150,732694,1,0.82397,-0.03979,0.729,10.786,-23.092,-2.046
2026-06-01 15:25:06.694,2211046150,732694,2,1.01758,-0.23218,0.04614,-1.794,-23.45,0.779
2026-06-01 15:25:06.894,2211046350,732894,1,0.88257,-0.02588,0.68677,20.893,-4.962,9.565
2026-06-01 15:25:06.894,2211046350,732894,2,1.0105,-0.17432,-0.15039,10.298,-12.366,-5.824
2026-06-01 15:25:06.094,2211045550,733094,1,0.97876,0.1062,0.63745,32.328,-4.763,12.023
2026-06-01 15:25:06.094,2211045550,733094,2,1.08105,-0.15039,-0.15527,7.962,4.405,-3.557
2026-06-01 15:25:06.294,2211045750,733294,1,0.93848,-0.00684,0.71899,17.947,28.55,18.595
2026-06-01 15:25:06.294,2211045750,733294,2,1.11035,-0.1626,-0.0061,59.359,29.519,4.733
2026-06-01 15:25:06.494,2211045950,733494,1,0.83594,0.0354,0.75391,13.725,48.412,29.168
2026-06-01 15:25:06.494,2211045950,733494,2,0.88232,-0.09985,0.12622,62.038,53.473,4.519
2026-06-01 15:25:07.694,2211047150,733694,1,0.2771,-0.06323,0.79199,-1.198,86.336,35.534
2026-06-01 15:25:07.694,2211047150,733694,2,0.72705,-0.03003,0.20874,-9.313,31.321,-7.58
2026-06-01 15:25:07.894,2211047350,733894,1,0.3606,-0.11987,0.91675,2.618,33.939,7.206
2026-06-01 15:25:07.894,2211047350,733894,2,0.86499,0.08789,0.52979,51.588,30.939,-7.023
2026-06-01 15:25:07.094,2211046550,734094,1,0.36743,-0.15137,1.21045,-3.0,24.893,-4.71
2026-06-01 15:25:07.094,2211046550,734094,2,0.87256,-0.08447,0.65649,-45.931,22.527,-5.229
2026-06-01 15:25:07.294,2211046750,734294,1,0.25171,-0.17627,1.24854,-7.748,4.878,-1.58
2026-06-01 15:25:07.294,2211046750,734294,2,0.83179,-0.15234,0.64893,-20.924,1.58,6.634
2026-06-01 15:25:07.494,2211046950,734494,1,0.30249,-0.21216,1.2146,-8.328,12.267,2.679
2026-06-01 15:25:07.494,2211046950,734494,2,0.86646,-0.02539,0.77441,20.519,12.344,-5.557
2026-06-01 15:25:08.694,2211048150,734694,1,0.24463,-0.26563,1.15894,-36.359,20.351,5.237
2026-06-01 15:25:08.694,2211048150,734694,2,0.74268,0.02515,0.71021,7.58,-0.504,1.351
2026-06-01 15:25:08.894,2211048350,734894,1,0.14526,-0.20239,1.09326,25.664,1.298,6.74
2026-06-01 15:25:08.894,2211048350,734894,2,0.73828,-0.01074,0.61694,-17.16,-10.145,-0.588
2026-06-01 15:25:08.110,2211047566,735110,1,0.27783,-0.20093,1.27881,15.443,-13.214,-0.824
2026-06-01 15:25:08.110,2211047566,735110,2,0.97656,0.09229,0.6272,0.122,-27.87,8.855
2026-06-01 15:25:08.322,2211047778,735322,1,0.28271,-0.15088,1.14136,4.42,-26.977,-7.916
2026-06-01 15:25:08.322,2211047778,735322,2,0.89038,-0.00708,0.45996,-7.076,-34.916,13.489
2026-06-01 15:25:08.522,2211047978,735522,1,0.44019,-0.14526,0.95068,8.832,-40.29,-9.748
2026-06-01 15:25:08.522,2211047978,735522,2,0.77344,-0.0791,0.26221,-25.389,-30.427,12.214
2026-06-01 15:25:09.722,2211049178,735722,1,0.47339,-0.17114,0.78857,-4.084,-58.153,-20.321
2026-06-01 15:25:09.722,2211049178,735722,2,0.83911,-0.19141,0.19434,-34.771,-55.038,-0.168
2026-06-01 15:25:09.922,2211049378,735922,1,0.77832,-0.03174,0.75024,22.511,-41.863,-7.084
2026-06-01 15:25:09.922,2211049378,735922,2,0.9646,-0.12646,0.11133,-34.328,-38.26,-6.366
2026-06-01 15:25:09.122,2211048578,736122,1,0.82495,-0.03442,0.73022,4.031,-9.969,-5.893
2026-06-01 15:25:09.122,2211048578,736122,2,1.0708,-0.1521,-0.03052,-3.099,-15.038,-7.573
2026-06-01 15:25:09.322,2211048778,736322,1,0.91919,0.03027,0.67749,7.916,15.634,3.267
2026-06-01 15:25:09.322,2211048778,736322,2,1.03638,-0.11353,0.00781,11.221,23.275,2.763
2026-06-01 15:25:09.522,2211048978,736522,1,0.80933,-0.01611,0.70508,-9.466,41.702,2.695
2026-06-01 15:25:09.522,2211048978,736522,2,0.96191,-0.10962,0.13574,41.061,56.893,4.29
2026-06-01 15:25:10.722,2211050178,736722,1,0.53955,-0.03833,0.82666,-19.527,70.634,6.473
2026-06-01 15:25:10.722,2211050178,736722,2,0.67212,0.04541,0.34204,55.58,64.076,-8.031
2026-06-01 15:25:10.922,2211050378,736922,1,0.33813,-0.21118,0.99292,-6.893,45.863,0.229
2026-06-01 15:25:10.922,2211050378,736922,2,0.79639,-0.03296,0.37549,34.962,47.305,-13.908
2026-06-01 15:25:10.122,2211049578,737122,1,0.28442,-0.14209,1.1438,0.87,14.718,7.489
2026-06-01 15:25:10.122,2211049578,737122,2,0.8728,-0.03027,0.57861,-14.229,15.885,0.206
2026-06-01 15:25:10.322,2211049778,737322,1,0.27051,-0.20093,1.17773,-2.435,20.527,9.351
2026-06-01 15:25:10.322,2211049778,737322,2,0.94897,-0.01172,0.62793,-8.443,2.954,-0.153
2026-06-01 15:25:10.522,2211049978,737522,1,0.27979,-0.16431,1.15039,-1.221,6.076,1.038
2026-06-01 15:25:10.522,2211049978,737522,2,0.86987,-0.00342,0.57813,-13.481,3.519,0.382
2026-06-01 15:25:11.722,2211051178,737722,1,0.30737,-0.14819,1.14722,3.183,-1.786,3.55
2026-06-01 15:25:11.722,2211051178,737722,2,0.83252,0.01367,0.56543,4.221,11.435,6.038
2026-06-01 15:25:11.922,2211051378,737922,1,0.27124,-0.26685,1.27686,4.779,-5.71,7.031
2026-06-01 15:25:11.922,2211051378,737922,2,0.98193,-0.03857,0.73218,2.191,0.038,1.756
2026-06-01 15:25:11.122,2211050578,738122,1,0.3042,-0.24072,1.25342,12.198,-22.641,-0.473
2026-06-01 15:25:11.122,2211050578,738122,2,0.90649,-0.02148,0.48267,15.641,-45.015,7.275
2026-06-01 15:25:11.322,2211050778,738322,1,0.36328,-0.10303,0.91577,0.489,-50.794,-13.115
2026-06-01 15:25:11.322,2211050778,738322,2,0.83276,-0.01563,0.28613,-2.267,-54.962,21.298
2026-06-01 15:25:11.522,2211050978,738522,1,0.47339,-0.09595,0.80884,0.26,-52.779,-21.496
2026-06-01 15:25:11.522,2211050978,738522,2,0.78247,-0.11938,0.17041,-27.0,-47.756,23.115
2026-06-01 15:25:12.722,2211052178,738722,1,0.71021,-0.06445,0.6792,3.122,-58.794,-18.962
2026-06-01 15:25:12.722,2211052178,738722,2,0.96533,-0.21167,0.09888,-17.885,-30.321,11.748
2026-06-01 15:25:12.922,2211052378,738922,1,0.90234,-0.01855,0.68164,-0.595,-21.328,-12.427
2026-06-01 15:25:12.922,2211052378,738922,2,1.02051,-0.23926,-0.02295,-5.626,-12.55,6.802
2026-06-01 15:25:12.122,2211051578,739122,1,0.90259,0.0061,0.6792,-7.023,1.725,-5.26
2026-06-01 15:25:12.122,2211051578,739122,2,1.0376,-0.26465,-0.04395,1.298,3.756,6.84
2026-06-01 15:25:12.322,2211051778,739322,1,0.93286,0.00781,0.64941,3.702,29.557,9.878
2026-06-01 15:25:12.322,2211051778,739322,2,1.0,-0.24268,0.04688,24.298,30.687,-9.458
2026-06-01 15:25:12.522,2211051978,739522,1,0.72144,-0.03955,0.71436,-7.061,70.565,19.328
2026-06-01 15:25:12.522,2211051978,739522,2,0.88208,-0.18286,0.20239,48.71,67.244,-14.023
2026-06-01 15:25:13.722,2211053178,739722,1,0.35645,-0.17505,0.79932,-4.092,89.366,24.282
2026-06-01 15:25:13.722,2211053178,739722,2,0.80273,-0.05054,0.24463,7.435,77.29,-42.321
2026-06-01 15:25:13.922,2211053378,739922,1,0.21411,-0.13916,1.10156,4.885,57.74,14.458
2026-06-01 15:25:13.922,2211053378,739922,2,0.80322,0.08594,0.47705,-4.679,43.733,-21.015
2026-06-01 15:25:13.122,2211052578,740122,1,0.13574,-0.1814,1.22974,-10.885,14.893,-3.916
2026-06-01 15:25:13.122,2211052578,740122,2,0.75708,0.08594,0.68066,-17.985,17.687,-5.603
2026-06-01 15:25:13.322,2211052778,740322,1,0.11353,-0.23999,1.2207,-4.947,-2.863,-6.42
2026-06-01 15:25:13.322,2211052778,740322,2,0.81006,0.04468,0.74097,-17.969,-2.794,0.656
2026-06-01 15:25:13.522,2211052978,740522,1,0.18286,-0.23315,1.15723,8.718,3.366,-4.847
2026-06-01 15:25:13.522,2211052978,740522,2,0.74487,0.03906,0.70483,-15.695,3.405,-10.221
2026-06-01 15:25:14.722,2211054178,740722,1,0.11914,-0.25439,1.19653,4.756,0.603,-4.618
2026-06-01 15:25:14.722,2211054178,740722,2,0.77954,-0.01709,0.69653,4.214,-14.099,-3.0
2026-06-01 15:25:14.922,2211054378,740922,1,0.16528,-0.16943,1.15747,14.702,-12.786,0.748
2026-06-01 15:25:14.922,2211054378,740922,2,0.91479,-0.04297,0.7124,-9.817,-19.321,1.641
2026-06-01 15:25:14.238,2211053694,741238,1,0.29883,-0.22339,1.1499,0.763,-26.145,-10.924
2026-06-01 15:25:14.238,2211053694,741238,2,0.90332,-0.05347,0.44556,7.84,-29.13,11.275
2026-06-01 15:25:14.438,2211053894,741438,1,0.36328,-0.15796,1.02075,11.931,-41.389,-2.542
2026-06-01 15:25:14.438,2211053894,741438,2,0.89014,-0.04419,0.3252,0.473,-42.237,13.122
2026-06-01 15:25:15.638,2211055094,741638,1,0.38892,-0.07788,0.7373,3.824,-59.221,-7.298
2026-06-01 15:25:15.638,2211055094,741638,2,0.80957,-0.05542,0.15576,-23.176,-61.763,23.87
2026-06-01 15:25:15.838,2211055294,741838,1,0.70898,-0.02734,0.79199,-8.489,-51.557,-14.824
2026-06-01 15:25:15.838,2211055294,741838,2,0.96899,-0.16235,0.08984,-23.168,-39.298,30.244
2026-06-01 15:25:15.038,2211054494,742038,1,0.88086,-0.09399,0.71631,-3.344,-31.168,-13.405
2026-06-01 15:25:15.038,2211054494,742038,2,0.98633,-0.20581,-0.0083,-27.771,-16.649,-8.756
2026-06-01 15:25:15.238,2211054694,742238,1,0.93872,-0.06567,0.66138,2.618,-9.84,-11.733
2026-06-01 15:25:15.238,2211054694,742238,2,1.03979,-0.23828,-0.08179,-6.901,0.26,1.0
2026-06-01 15:25:15.438,2211054894,742438,1,0.89697,-0.08984,0.65674,14.359,13.901,5.634
2026-06-01 15:25:15.438,2211054894,742438,2,1.02832,-0.21289,-0.02173,30.305,21.282,-5.084
2026-06-01 15:25:16.638,2211056094,742638,1,0.77612,-0.0603,0.74536,8.26,44.588,7.573
2026-06-01 15:25:16.638,2211056094,742638,2,1.0376,-0.16943,0.06519,22.061,43.122,-11.168
2026-06-01 15:25:16.838,2211056294,742838,1,0.5166,-0.07983,0.81494,-5.908,83.198,14.771
2026-06-01 15:25:16.838,2211056294,742838,2,0.75879,-0.06104,0.27417,28.26,69.496,-23.191
2026-06-01 15:25:16.038,2211055494,743038,1,0.28394,-0.1123,0.93774,-12.458,49.763,4.885
2026-06-01 15:25:16.038,2211055494,743038,2,0.70972,-0.0188,0.37964,29.092,35.046,-4.733
2026-06-01 15:25:16.238,2211055694,743238,1,0.28931,-0.16699,1.07568,-10.191,-0.885,1.336
2026-06-01 15:25:16.238,2211055694,743238,2,0.89722,-0.00488,0.49194,-24.672,6.702,5.0
2026-06-01 15:25:16.438,2211055894,743438,1,0.33984,-0.17749,1.17163,-5.992,-2.565,0.443
2026-06-01 15:25:16.438,2211055894,743438,2,0.94824,-0.08716,0.55005,-25.344,-6.229,1.053
2026-06-01 15:25:17.638,2211057094,743638,1,0.42041,-0.20874,1.19971,-0.122,3.466,3.198
2026-06-01 15:25:17.638,2211057094,743638,2,1.03052,-0.06274,0.59595,-7.817,1.878,-0.557
2026-06-01 15:25:17.838,2211057294,743838,1,0.19727,-0.21143,1.25317,-3.794,13.351,-3.992
2026-06-01 15:25:17.838,2211057294,743838,2,0.9729,-0.0769,0.5542,0.16,3.344,-5.687
2026-06-01 15:25:17.038,2211056494,744038,1,0.29248,-0.23975,1.20361,-1.504,2.466,-0.992
2026-06-01 15:25:17.038,2211056494,744038,2,0.96558,-0.05176,0.65063,-2.412,4.351,1.427
2026-06-01 15:25:17.238,2211056694,744238,1,0.32935,-0.25366,1.31226,-3.557,-27.45,-11.71
2026-06-01 15:25:17.238,2211056694,744238,2,0.97705,-0.04468,0.56055,-5.702,-39.565,3.435
2026-06-01 15:25:17.438,2211056894,744438,1,0.37231,-0.13354,0.92969,-4.366,-51.366,-24.053
2026-06-01 15:25:17.438,2211056894,744438,2,0.86499,-0.06982,0.26123,-19.084,-42.351,19.443
2026-06-01 15:25:18.638,2211058094,744638,1,0.51245,-0.06299,0.68188,-1.153,-61.664,-23.153
2026-06-01 15:25:18.638,2211058094,744638,2,0.79004,-0.13062,0.1687,-45.687,-49.527,10.626
2026-06-01 15:25:18.838,2211058294,744838,1,0.78613,-0.06592,0.69995,-20.573,-28.679,-20.221
2026-06-01 15:25:18.838,2211058294,744838,2,0.9624,-0.17627,0.09009,-39.405,-16.221,13.382
2026-06-01 15:25:18.038,2211057494,745038,1,0.86597,-0.04321,0.72998,-13.015,-1.229,-23.649
2026-06-01 15:25:18.038,2211057494,745038,2,0.97778,-0.26782,0.00977,-33.412,-1.344,2.748
2026-06-01 15:25:18.238,2211057694,745238,1,0.83325,-0.00293,0.73389,-25.71,-5.0,-33.603
2026-06-01 15:25:18.238,2211057694,745238,2,0.99805,-0.26611,-0.05249,-47.809,-3.221,9.145
2026-06-01 15:25:18.438,2211057894,745438,1,0.86841,0.02051,0.67358,-41.069,-9.45,-43.519
2026-06-01 15:25:18.438,2211057894,745438,2,0.96973,-0.37207,-0.1062,-48.435,1.053,11.053
2026-06-01 15:25:19.638,2211059094,745638,1,0.93433,-0.00439,0.63135,-27.16,-2.817,-19.275
2026-06-01 15:25:19.638,2211059094,745638,2,0.96191,-0.37671,-0.14697,-17.412,3.939,3.557
2026-06-01 15:25:19.838,2211059294,745838,1,0.93433,-0.02905,0.6355,-4.542,0.885,1.679
2026-06-01 15:25:19.838,2211059294,745838,2,0.95947,-0.40015,-0.15234,5.336,3.015,4.626
2026-06-01 15:25:19.038,2211058494,746038,1,0.94336,-0.11548,0.60718,22.145,5.168,10.672
2026-06-01 15:25:19.038,2211058494,746038,2,0.92773,-0.45068,-0.12524,16.977,-3.786,-15.122
2026-06-01 15:25:19.238,2211058694,746238,1,0.94775,-0.03345,0.66528,45.893,21.321,38.198
2026-06-01 15:25:19.238,2211058694,746238,2,1.05054,-0.22168,-0.11084,86.252,1.435,-39.099
2026-06-01 15:25:19.438,2211058894,746438,1,0.76929,0.12158,0.77734,80.214,38.832,59.985
2026-06-01 15:25:19.438,2211058894,746438,2,1.01025,-0.04077,-0.12183,89.076,4.603,-35.786
2026-06-01 15:25:20.638,2211060094,746638,1,0.68555,0.19678,0.84839,60.473,12.534,25.588
2026-06-01 15:25:20.638,2211060094,746638,2,1.02441,0.04077,-0.07056,40.626,-5.473,-8.382
2026-06-01 15:25:20.838,2211060294,746838,1,0.71606,0.26978,0.8313,13.336,0.16,1.0
2026-06-01 15:25:20.838,2211060294,746838,2,1.03003,0.06738,-0.06958,2.26,-2.252,5.58
2026-06-01 15:25:20.038,2211059494,747038,1,0.67017,0.3335,0.84204,-20.656,-3.366,0.992
2026-06-01 15:25:20.038,2211059494,747038,2,1.0354,0.03271,-0.08936,-39.58,-0.901,31.702
2026-06-01 15:25:20.238,2211059694,747238,1,0.81982,-0.01343,0.71509,-65.771,-11.534,1.527
2026-06-01 15:25:20.238,2211059694,747238,2,1.03687,-0.11646,0.04272,-2.0,31.687,28.748
2026-06-01 15:25:20.438,2211059894,747438,1,0.81348,-0.2771,0.6582,-34.489,27.832,-4.168
2026-06-01 15:25:20.438,2211059894,747438,2,0.86963,-0.44385,0.03418,44.115,20.534,9.115
2026-06-01 15:25:21.638,2211061094,747638,1,0.84668,-0.3186,0.77393,11.298,49.252,48.481
2026-06-01 15:25:21.638,2211061094,747638,2,1.16455,0.03516,0.1687,171.229,98.908,-65.481
2026-06-01 15:25:21.838,2211061294,747838,1,0.23389,-0.18359,0.70801,-22.679,144.427,9.084
2026-06-01 15:25:21.838,2211061294,747838,2,0.74707,0.03711,0.5835,19.962,140.885,-65.756
2026-06-01 15:25:21.038,2211060494,748038,1,-0.29248,-0.2168,1.07031,-7.832,131.504,36.458
2026-06-01 15:25:21.038,2211060494,748038,2,0.50122,0.30762,0.67456,42.168,106.87,-40.191
2026-06-01 15:25:21.238,2211060694,748238,1,-0.7019,-0.31372,1.04004,-17.931,60.237,19.366
2026-06-01 15:25:21.238,2211060694,748238,2,0.24292,0.38257,0.9126,-3.809,36.588,-13.901
2026-06-01 15:25:21.438,2211060894,748438,1,-0.73267,-0.30713,0.89355,-8.29,16.634,3.863
2026-06-01 15:25:21.438,2211060894,748438,2,0.11279,0.31396,0.93896,-14.985,5.229,-3.489
2026-06-01 15:25:22.638,2211062094,748638,1,-0.75732,-0.19702,0.93286,12.099,-31.015,-11.137
2026-06-01 15:25:22.638,2211062094,748638,2,0.26514,0.26123,0.84595,-24.779,-24.885,17.534
2026-06-01 15:25:22.838,2211062294,748838,1,-0.53296,-0.29956,1.07178,18.985,-29.267,-14.771
2026-06-01 15:25:22.838,2211062294,748838,2,0.36084,0.29834,0.97437,-8.26,-43.29,25.672
2026-06-01 15:25:22.038,2211061494,749038,1,-0.35156,-0.17188,1.01709,13.168,-76.107,-23.366
2026-06-01 15:25:22.038,2211061494,749038,2,0.61011,0.11328,0.62695,-64.74,-88.702,25.863
2026-06-01 15:25:22.238,2211061694,749238,1,-0.02002,-0.22144,0.98511,9.565,-83.679,-24.244
2026-06-01 15:25:22.238,2211061694,749238,2,0.84912,-0.00903,0.48804,-26.252,-74.374,31.351
2026-06-01 15:25:22.438,2211061894,749438,1,0.2439,-0.17432,0.95898,15.511,-88.412,-21.771
2026-06-01 15:25:22.438,2211061894,749438,2,0.97388,-0.09839,0.33984,-72.756,-77.221,0.191
2026-06-01 15:25:23.638,2211063094,749638,1,0.53174,-0.0918,0.86523,14.038,-78.282,-20.954
2026-06-01 15:25:23.638,2211063094,749638,2,0.99072,-0.09692,0.02856,-48.916,-48.931,-10.275
2026-06-01 15:25:23.838,2211063294,749838,1,0.78125,0.01538,0.76929,7.405,-49.031,-12.557
2026-06-01 15:25:23.838,2211063294,749838,2,1.05859,-0.06763,-0.17773,-21.405,-33.817,-2.092
2026-06-01 15:25:23.038,2211062494,750038,1,0.95801,0.05396,0.67114,-15.198,-15.756,-16.634
2026-06-01 15:25:23.038,2211062494,750038,2,1.03882,-0.07324,-0.22339,-25.176,-9.427,9.985
2026-06-01 15:25:23.238,2211062694,750238,1,0.84766,-0.05225,0.71851,-7.931,-1.855,-19.496
2026-06-01 15:25:23.238,2211062694,750238,2,1.00562,-0.11377,-0.2395,-16.198,-1.985,1.107
2026-06-01 15:25:23.438,2211062894,750438,1,0.87183,0.01392,0.70361,-6.824,6.435,-7.687
2026-06-01 15:25:23.438,2211062894,750438,2,1.01929,-0.12549,-0.23877,-6.466,6.954,2.527
2026-06-01 15:25:24.638,2211064094,750638,1,0.83911,0.00562,0.72876,-6.618,10.84,-1.397
2026-06-01 15:25:24.638,2211064094,750638,2,1.00879,-0.1106,-0.22119,-6.198,8.374,3.519
2026-06-01 15:25:24.838,2211064294,750838,1,0.81543,-0.00391,0.75586,-2.962,2.237,-2.13
2026-06-01 15:25:24.838,2211064294,750838,2,1.01929,-0.11011,-0.21362,-4.435,1.863,2.458
2026-06-01 15:25:24.038,2211063494,751038,1,0.80933,-0.01123,0.76929,-1.786,4.076,-1.008
2026-06-01 15:25:24.038,2211063494,751038,2,1.01733,-0.10693,-0.20142,-2.244,2.351,0.641
2026-06-01 15:25:24.238,2211063694,751238,1,0.81104,-0.01587,0.77222,-2.389,2.0,-3.29
2026-06-01 15:25:24.238,2211063694,751238,2,1.02075,-0.11694,-0.2124,-1.038,1.214,0.313
2026-06-01 15:25:24.438,2211063894,751438,1,0.80957,0.00049,0.76807,-0.679,2.282,-0.756
2026-06-01 15:25:24.438,2211063894,751438,2,1.02466,-0.10889,-0.21118,-3.382,0.878,0.366
2026-06-01 15:25:25.638,2211065094,751638,1,0.81787,-0.0105,0.77173,-1.679,1.954,-2.313
2026-06-01 15:25:25.638,2211065094,751638,2,1.01563,-0.11841,-0.20093,-1.656,0.679,-0.58
2026-06-01 15:25:25.838,2211065294,751838,1,0.81763,-0.00488,0.76343,-5.573,2.702,-5.687
2026-06-01 15:25:25.838,2211065294,751838,2,1.02466,-0.09546,-0.21021,-3.802,2.229,0.58
2026-06-01 15:25:25.038,2211064494,752038,1,0.80688,-0.01392,0.77344,-6.336,3.084,-6.038
2026-06-01 15:25:25.038,2211064494,752038,2,1.01611,-0.12598,-0.19702,-9.481,1.481,1.496
2026-06-01 15:25:25.238,2211064694,752238,1,0.80762,-0.02246,0.77759,-4.023,2.305,-3.107
2026-06-01 15:25:25.238,2211064694,752238,2,1.02466,-0.12085,-0.20264,-5.176,1.794,1.733
2026-06-01 15:25:25.438,2211064894,752438,1,0.81372,-0.01025,0.77466,-4.748,1.908,-2.802
2026-06-01 15:25:25.438,2211064894,752438,2,1.00488,-0.11719,-0.19238,-4.527,1.542,2.55
2026-06-01 15:25:26.638,2211066094,752638,1,0.80762,-0.01001,0.77319,-1.893,1.885,-3.122
2026-06-01 15:25:26.638,2211066094,752638,2,1.01636,-0.1228,-0.18237,-3.443,0.71,0.489
2026-06-01 15:25:26.838,2211066294,752838,1,0.79004,-0.01611,0.77686,-5.252,2.931,-2.977
2026-06-01 15:25:26.838,2211066294,752838,2,1.0188,-0.12817,-0.18726,-3.924,1.412,0.908
2026-06-01 15:25:26.038,2211065494,753038,1,0.80518,-0.02026,0.77417,-1.473,1.786,-1.748
2026-06-01 15:25:26.038,2211065494,753038,2,1.02319,-0.12646,-0.19434,-1.412,0.198,0.435
2026-06-01 15:25:26.238,2211065694,753238,1,0.81055,-0.0144,0.77246,-1.939,2.954,-1.267
2026-06-01 15:25:26.238,2211065694,753238,2,1.02563,-0.11182,-0.18384,0.206,2.947,-0.122
2026-06-01 15:25:26.438,2211065894,753438,1,0.79688,,0.77759,-8.061,8.824,0.756
2026-06-01 15:25:26.438,2211065894,753438,2,1.04199,-0.12061,-0.16016,0.313,11.656,6.305
2026-06-01 15:25:27.638,2211067094,753638,1,0.79321,-0.04907,0.77856,-4.13,25.84,13.221
2026-06-01 15:25:27.638,2211067094,753638,2,1.04419,-0.14722,-0.08154,16.496,32.458,6.16
2026-06-01 15:25:27.838,2211067294,753838,1,0.67407,-0.08154,0.85205,6.603,44.13,36.405
2026-06-01 15:25:27.838,2211067294,753838,2,0.99805,-0.19556,0.08105,43.031,55.282,11.573
2026-06-01 15:25:27.038,2211066494,754038,1,0.50122,-0.15894,0.90234,6.893,66.893,54.069
2026-06-01 15:25:27.038,2211066494,754038,2,0.8916,-0.18091,0.17041,99.763,81.595,9.786
2026-06-01 15:25:27.238,2211066694,754238,1,0.14575,-0.26025,1.02393,3.046,74.0,43.313
2026-06-01 15:25:27.238,2211066694,754238,2,0.79761,-0.01709,0.44434,43.076,61.672,-13.496
2026-06-01 15:25:27.438,2211066894,754438,1,-0.10986,-0.24536,1.08496,-2.031,51.45,16.832
2026-06-01 15:25:27.438,2211066894,754438,2,0.65723,0.146,0.6709,18.641,42.412,-14.511
2026-06-01 15:25:28.638,2211068094,754638,1,-0.20801,-0.27246,1.13208,-5.84,16.641,8.511
2026-06-01 15:25:28.638,2211068094,754638,2,0.67407,0.16479,0.79248,5.588,14.969,-2.756
2026-06-01 15:25:28.838,2211068294,754838,1,-0.20898,-0.23047,1.10938,-1.824,14.504,-5.771
2026-06-01 15:25:28.838,2211068294,754838,2,0.61304,0.20093,0.82031,-3.252,15.87,-7.389
2026-06-01 15:25:28.038,2211067494,755038,1,-0.15991,-0.2749,1.0293,-1.359,-5.008,-13.008
2026-06-01 15:25:28.038,2211067494,755038,2,0.51245,0.25171,0.81836,4.954,7.084,-5.565
2026-06-01 15:25:28.238,2211067694,755238,1,-0.24805,-0.29614,1.06421,-7.573,-1.206,-18.397
2026-06-01 15:25:28.238,2211067694,755238,2,0.54126,0.23657,0.85474,-13.374,-16.183,-12.588
2026-06-01 15:25:28.438,2211067894,755438,1,-0.26172,-0.50659,1.23608,22.023,-18.076,-49.153
2026-06-01 15:25:28.438,2211067894,755438,2,0.67896,0.14478,0.73901,-34.336,-57.641,-33.076
2026-06-01 15:25:29.638,2211069094,755638,1,-0.06714,-0.38013,1.06885,12.985,-33.229,-97.71
2026-06-01 15:25:29.638,2211069094,755638,2,0.79224,-0.0686,0.48022,-106.466,-89.763,-45.641
2026-06-01 15:25:29.838,2211069294,755838,1,0.2124,-0.40674,1.03052,-30.832,-79.969,-108.168
2026-06-01 15:25:29.838,2211069294,755838,2,0.77148,0.25,0.24121,-109.076,-50.702,-50.26
2026-06-01 15:25:29.038,2211068494,756038,1,0.61768,-0.15527,0.9248,-123.061,-17.344,-168.023
2026-06-01 15:25:29.038,2211068494,756038,2,0.87109,-0.21265,0.08667,-202.947,-21.74,-36.847
2026-06-01 15:25:29.238,2211068694,756238,1,0.70313,-0.07837,0.61157,-75.603,-36.229,-114.687
2026-06-01 15:25:29.238,2211068694,756238,2,1.15918,-0.52295,-0.53101,-219.725,-44.008,-6.779
2026-06-01 15:25:29.438,2211068894,756438,1,1.81836,-0.38086,0.92627,140.962,-93.817,33.191
2026-06-01 15:25:29.438,2211068894,756438,2,1.72876,-0.52612,-0.26416,140.504,-10.725,27.908
2026-06-01 15:25:30.638,2211070094,756638,1,0.39844,-0.46143,0.39917,-69.13,33.351,-73.069
2026-06-01 15:25:30.638,2211070094,756638,2,0.52856,-0.5979,-0.06543,-78.069,-66.756,24.931
2026-06-01 15:25:30.838,2211070294,756838,1,0.54565,-0.23633,0.72583,10.832,42.252,47.099
2026-06-01 15:25:30.838,2211070294,756838,2,0.81201,-0.29785,-0.00952,13.244,-29.267,19.71
2026-06-01 15:25:30.038,2211069494,757038,1,0.85596,-0.38647,0.58887,28.725,-2.305,1.634
2026-06-01 15:25:30.038,2211069494,757038,2,0.76758,-0.59692,-0.12329,-7.901,-40.611,-7.679
2026-06-01 15:25:30.238,2211069694,757238,1,1.72852,0.09839,0.71313,32.702,-14.656,10.664
2026-06-01 15:25:30.238,2211069694,757238,2,0.75342,-0.65161,-0.07715,17.656,-4.626,34.595
2026-06-01 15:25:30.438,2211069894,757438,1,0.88647,-0.08374,0.59692,63.366,5.183,16.603
2026-06-01 15:25:30.438,2211069894,757438,2,1.08569,-0.17651,-0.12817,47.366,13.023,-14.664
2026-06-01 15:25:31.638,2211071094,757638,1,0.92334,0.01807,0.66968,-6.794,6.046,2.664
2026-06-01 15:25:31.638,2211071094,757638,2,0.99609,-0.22485,-0.12622,27.092,11.137,-22.664
2026-06-01 15:25:31.838,2211071294,757838,1,0.80225,0.05444,0.8064,-2.328,-2.046,-16.382
2026-06-01 15:25:31.838,2211071294,757838,2,0.9939,-0.19629,-0.00854,-43.412,-4.786,5.45
2026-06-01 15:25:31.038,2211070494,758038,1,0.76172,-0.15649,0.67773,-12.008,10.466,5.687
2026-06-01 15:25:31.038,2211070494,758038,2,0.92334,-0.26221,0.01392,-12.267,1.58,5.374
2026-06-01 15:25:31.238,2211070694,758238,1,0.83911,-0.12476,0.71069,13.427,12.71,21.916
2026-06-01 15:25:31.238,2211070694,758238,2,0.97876,-0.30908,-0.02246,-9.656,-7.313,6.725
2026-06-01 15:25:31.438,2211070894,758438,1,0.86523,-0.23511,0.64282,6.565,-2.344,6.389
2026-06-01 15:25:31.438,2211070894,758438,2,0.96436,-0.34106,-0.09644,40.122,9.359,-1.931
2026-06-01 15:25:32.638,2211072094,758638,1,0.89282,-0.17041,0.73584,13.939,-1.977,7.382
2026-06-01 15:25:32.638,2211072094,758638,2,0.98877,-0.25098,-0.03711,39.305,5.038,-1.031
2026-06-01 15:25:32.838,2211072294,758838,1,0.8645,-0.13623,0.69043,6.595,-4.702,-1.275
2026-06-01 15:25:32.838,2211072294,758838,2,1.01782,-0.20483,-0.05322,9.595,0.832,-10.435
2026-06-01 15:25:32.038,2211071494,759038,1,0.83325,-0.10864,0.79419,11.229,-4.55,-9.443
2026-06-01 15:25:32.038,2211071494,759038,2,0.93774,-0.21069,-0.14844,-46.511,9.038,-8.008
2026-06-01 15:25:32.238,2211071694,759238,1,0.86011,-0.10278,0.72925,3.573,-0.55,-6.947
2026-06-01 15:25:32.238,2211071694,759238,2,0.97632,-0.2666,-0.05469,37.351,-3.176,4.74
2026-06-01 15:25:32.438,2211071894,759438,1,0.79907,-0.07446,0.72437,4.198,-11.29,-8.695
2026-06-01 15:25:32.438,2211071894,759438,2,0.98438,-0.22241,-0.03076,5.947,-1.71,-1.13
2026-06-01 15:25:33.638,2211073094,759638,1,0.89063,-0.03857,0.65479,0.084,4.634,-3.023
2026-06-01 15:25:33.638,2211073094,759638,2,1.0271,-0.18726,-0.18506,5.336,-12.809,0.282
2026-06-01 15:25:33.838,2211073294,759838,1,0.88135,-0.05591,0.64575,2.863,-0.847,-6.573
2026-06-01 15:25:33.838,2211073294,759838,2,0.93384,-0.19507,-0.15405,-26.962,-5.725,12.038
2026-06-01 15:25:33.038,2211072494,760038,1,0.94507,-0.02979,0.63599,-15.13,3.565,-11.939
2026-06-01 15:25:33.038,2211072494,760038,2,0.92334,-0.21924,-0.22412,-6.405,0.733,-12.939
2026-06-01 15:25:33.238,2211072694,760238,1,0.9292,0.04541,0.55542,25.023,-10.45,-17.565
2026-06-01 15:25:33.238,2211072694,760238,2,0.97974,-0.2207,-0.08936,-14.275,-0.573,8.878
2026-06-01 15:25:33.438,2211072894,760438,1,0.85474,0.05322,0.67969,30.45,-5.031,13.901
2026-06-01 15:25:33.438,2211072894,760438,2,1.09326,-0.22998,-0.19434,29.573,-7.618,-3.397
2026-06-01 15:25:34.638,2211074094,760638,1,0.87402,0.0415,0.64795,19.336,13.458,16.496
2026-06-01 15:25:34.638,2211074094,760638,2,0.93921,-0.19995,-0.16602,-1.069,15.725,-1.13
2026-06-01 15:25:34.838,2211074294,760838,1,0.84644,-0.01489,0.70093,-2.618,8.511,6.565
2026-06-01 15:25:34.838,2211074294,760838,2,0.97949,-0.2439,-0.15894,-31.397,0.099,-0.282
2026-06-01 15:25:34.038,2211073494,761038,1,1.04761,0.02173,0.57666,1.183,15.183,3.374
2026-06-01 15:25:34.038,2211073494,761038,2,0.88574,-0.23511,-0.12793,16.084,13.634,-5.099
2026-06-01 15:25:34.238,2211073694,761238,1,0.97388,-0.04004,0.79858,39.16,-0.298,10.137
2026-06-01 15:25:34.238,2211073694,761238,2,1.07617,-0.26318,-0.04614,27.664,7.527,-3.229
2026-06-01 15:25:34.438,2211073894,761438,1,0.81763,-0.02319,0.72803,-6.985,11.389,2.397
2026-06-01 15:25:34.438,2211073894,761438,2,0.98608,-0.19507,-0.08398,6.595,8.45,-4.359
2026-06-01 15:25:35.638,2211075094,761638,1,0.81348,-0.0249,0.7522,3.481,5.962,5.916
2026-06-01 15:25:35.638,2211075094,761638,2,0.95752,-0.23242,-0.00879,8.504,1.893,0.183
2026-06-01 15:25:35.838,2211075294,761838,1,0.75513,-0.0271,0.7749,12.008,1.824,10.298
2026-06-01 15:25:35.838,2211075294,761838,2,0.94165,-0.2373,-0.00635,-9.58,-3.366,3.71
2026-06-01 15:25:35.038,2211074494,762038,1,0.81055,-0.01172,0.78491,17.336,-4.107,10.206
2026-06-01 15:25:35.038,2211074494,762038,2,1.04565,-0.22217,-0.07349,19.58,-15.489,-0.321
2026-06-01 15:25:35.238,2211074694,762238,1,0.85815,0.09448,0.70898,33.702,1.305,32.321
2026-06-01 15:25:35.238,2211074694,762238,2,0.99316,-0.17114,-0.12305,46.626,2.618,-8.573
2026-06-01 15:25:35.438,2211074894,762438,1,0.76343,0.12817,0.81372,39.122,4.916,68.557
2026-06-01 15:25:35.438,2211074894,762438,2,1.0022,-0.07813,-0.14551,72.092,5.45,15.176
2026-06-01 15:25:36.638,2211076094,762638,1,0.97046,0.02173,0.62842,40.695,13.443,31.26
2026-06-01 15:25:36.638,2211076094,762638,2,1.03418,-0.0127,-0.1084,57.565,-8.046,-4.511
2026-06-01 15:25:36.838,2211076294,762838,1,0.90088,-0.0769,0.67383,-17.55,4.519,-19.534
2026-06-01 15:25:36.838,2211076294,762838,2,1.03442,-0.14063,-0.06665,-22.931,13.023,11.672
2026-06-01 15:25:36.038,2211075494,763038,1,0.92725,-0.13916,0.67651,-2.603,12.55,-10.008
2026-06-01 15:25:36.038,2211075494,763038,2,1.01099,-0.12378,-0.05493,14.26,16.351,-0.557
2026-06-01 15:25:36.238,2211075694,763238,1,0.75806,-0.13135,0.77734,-31.779,-4.107,-24.641
2026-06-01 15:25:36.238,2211075694,763238,2,1.00513,-0.2146,0.01807,-37.702,3.824,16.107
2026-06-01 15:25:36.438,2211075894,763438,1,0.74194,-0.04443,0.78101,-19.786,1.115,-22.099
2026-06-01 15:25:36.438,2211075894,763438,2,0.99414,-0.26074,-0.02856,-73.168,-6.573,-3.695
2026-06-01 15:25:37.638,2211077094,763638,1,0.80762,-0.00391,0.76758,-4.244,-4.374,-3.237
2026-06-01 15:25:37.638,2211077094,763638,2,1.00366,-0.2605,-0.0061,-43.924,2.336,3.496
2026-06-01 15:25:37.838,2211077294,763838,1,0.81982,-0.04419,0.7417,-13.366,2.29,-4.756
2026-06-01 15:25:37.838,2211077294,763838,2,1.01245,-0.26782,-0.0647,-10.87,-1.076,3.412
2026-06-01 15:25:37.038,2211076494,764038,1,0.85938,-0.04956,0.73071,0.87,-4.336,0.405
2026-06-01 15:25:37.038,2211076494,764038,2,1.00928,-0.25415,-0.06226,-1.198,-3.74,2.527
2026-06-01 15:25:37.238,2211076694,764238,1,0.86206,-0.03955,0.72119,6.176,-2.374,-3.435
2026-06-01 15:25:37.238,2211076694,764238,2,1.00293,-0.24023,-0.06299,0.672,-8.557,-0.489
2026-06-01 15:25:37.438,2211076894,764438,1,0.94653,-0.02026,0.65771,-3.786,5.748,-0.038
2026-06-01 15:25:37.438,2211076894,764438,2,1.0083,-0.24927,-0.052,18.229,10.855,-5.45
2026-06-01 15:25:38.638,2211078094,764638,1,0.82007,-0.02881,0.72437,5.366,27.878,12.664
2026-06-01 15:25:38.638,2211078094,764638,2,0.98291,-0.21167,-0.0061,35.069,10.038,-9.611
2026-06-01 15:25:38.838,2211078294,764838,1,0.72339,0.00146,0.87036,18.466,18.275,19.786
2026-06-01 15:25:38.838,2211078294,764838,2,0.96606,-0.16187,-0.01514,17.756,4.832,-5.328
2026-06-01 15:25:38.038,2211077494,765038,1,0.72803,-0.01416,0.86157,9.832,-4.74,7.069
2026-06-01 15:25:38.038,2211077494,765038,2,0.99829,-0.15698,0.00537,2.084,-8.55,3.237
2026-06-01 15:25:38.238,2211077694,765238,1,0.771,-0.03687,0.81592,8.427,-8.947,0.985
2026-06-01 15:25:38.238,2211077694,765238,2,1.01367,-0.16431,0.01001,7.718,-11.626,-3.344
2026-06-01 15:25:38.438,2211077894,765438,1,0.80591,-0.03247,0.76074,39.496,15.756,12.069
2026-06-01 15:25:38.438,2211077894,765438,2,1.03735,-0.10645,0.0459,49.084,0.489,-21.802
2026-06-01 15:25:39.638,2211079094,765638,1,0.69409,0.18823,0.90649,39.191,21.359,18.649
2026-06-01 15:25:39.638,2211079094,765638,2,0.9895,-0.03711,0.01172,26.427,-4.786,0.969
2026-06-01 15:25:39.838,2211079294,765838,1,0.67017,0.198,0.89478,-3.137,-13.687,28.328
2026-06-01 15:25:39.838,2211079294,765838,2,1.04004,0.0105,-0.09521,11.26,-6.511,29.115
2026-06-01 15:25:39.038,2211078494,766038,1,0.75757,0.10791,0.79883,-20.916,-22.718,-10.924
2026-06-01 15:25:39.038,2211078494,766038,2,1.06494,-0.05396,-0.08765,-29.122,-10.771,16.71
2026-06-01 15:25:39.238,2211078694,766238,1,0.84644,-0.01294,0.70776,-81.267,-23.206,-27.099
2026-06-01 15:25:39.238,2211078694,766238,2,1.09692,-0.2688,-0.16138,-31.55,-9.664,8.947
2026-06-01 15:25:39.438,2211078894,766438,1,0.89795,-0.17773,0.63135,-71.107,-7.107,-55.901
2026-06-01 15:25:39.438,2211078894,766438,2,0.84326,-0.50806,-0.19409,-34.962,5.672,24.191
2026-06-01 15:25:40.638,2211080094,766638,1,0.90356,-0.27637,0.66577,84.099,6.435,51.931
2026-06-01 15:25:40.638,2211080094,766638,2,1.00342,-0.30981,-0.20142,94.603,25.656,-6.099
2026-06-01 15:25:40.838,2211080294,766838,1,1.18823,-0.0459,0.64893,177.702,33.718,88.641
2026-06-01 15:25:40.838,2211080294,766838,2,0.96411,-0.04834,-0.15259,194.496,-21.198,-56.595
2026-06-01 15:25:40.038,2211079494,767038,1,0.88525,0.21265,0.7749,134.168,44.939,96.382
2026-06-01 15:25:40.038,2211079494,767038,2,1.01147,-0.16992,-0.16113,146.863,2.809,-30.13
2026-06-01 15:25:40.238,2211079694,767238,1,0.81226,0.31128,0.80444,65.931,25.321,85.824
2026-06-01 15:25:40.238,2211079694,767238,2,1.0708,-0.12988,-0.23413,137.771,0.779,1.618
2026-06-01 15:25:40.438,2211079894,767438,1,0.78198,0.22144,0.77637,79.16,0.313,78.298
2026-06-01 15:25:40.438,2211079894,767438,2,0.91455,0.10815,-0.35107,21.489,-40.809,-45.908
2026-06-01 15:25:41.638,2211081094,767638,1,1.0022,0.0354,0.6897,73.366,-61.16,37.42
2026-06-01 15:25:41.638,2211081094,767638,2,1.1543,-0.04956,-0.13501,84.588,-32.16,0.756
2026-06-01 15:25:41.838,2211081294,767838,1,1.11206,0.04858,0.53345,87.0,-6.603,44.176
2026-06-01 15:25:41.838,2211081294,767838,2,0.95508,-0.25928,-0.17041,144.176,12.313,35.786
2026-06-01 15:25:41.038,2211080494,768038,1,0.92505,0.01221,0.56934,32.282,25.489,48.023
2026-06-01 15:25:41.038,2211080494,768038,2,0.91992,-0.23169,-0.23828,57.389,21.511,-2.863
2026-06-01 15:25:41.238,2211080694,768238,1,0.84277,-0.10962,0.57153,-5.985,29.084,26.092
2026-06-01 15:25:41.238,2211080694,768238,2,0.89014,-0.30054,-0.13062,-21.779,27.58,-1.13
2026-06-01 15:25:41.438,2211080894,768438,1,0.86157,-0.09766,0.60352,40.015,-12.611,1.16
2026-06-01 15:25:41.438,2211080894,768438,2,0.99536,-0.1748,-0.07373,51.565,-75.611,16.282
2026-06-01 15:25:42.638,2211082094,768638,1,0.55005,-0.1543,0.64185,-17.733,-1.603,-44.656
2026-06-01 15:25:42.638,2211082094,768638,2,1.10962,-0.10962,0.13281,37.282,-4.214,-1.817
2026-06-01 15:25:42.838,2211082294,768838,1,0.84082,-0.07568,0.68042,2.031,-6.275,14.046
2026-06-01 15:25:42.838,2211082294,768838,2,0.92749,-0.28052,-0.18335,-37.313,19.695,-57.061
2026-06-01 15:25:42.038,2211081494,769038,1,0.84619,0.02051,0.7356,-45.374,-3.626,-21.206
2026-06-01 15:25:42.038,2211081494,769038,2,1.09937,-0.12036,-0.13501,-120.252,-17.626,5.817
2026-06-01 15:25:42.238,2211081694,769238,1,0.93701,-0.27539,0.76074,32.84,-2.366,-42.55
2026-06-01 15:25:42.238,2211081694,769238,2,0.93237,-0.47559,0.03735,-61.672,14.771,17.0
2026-06-01 15:25:42.438,2211081894,769438,1,0.91016,-0.19702,0.49243,-26.702,10.527,-40.061
2026-06-01 15:25:42.438,2211081894,769438,2,0.91504,-0.24194,-0.10425,-14.176,13.55,-18.466
2026-06-01 15:25:43.638,2211083094,769638,1,1.80811,0.0105,0.90796,-11.603,-69.794,-37.076
2026-06-01 15:25:43.638,2211083094,769638,2,0.96973,-0.82031,-0.25391,-26.565,-10.84,43.542
2026-06-01 15:25:43.838,2211083294,769838,1,0.71362,0.04492,0.93604,-94.298,-1.366,-39.939
2026-06-01 15:25:43.838,2211083294,769838,2,1.08081,-0.25757,-0.27979,-58.809,33.481,-8.137
2026-06-01 15:25:43.038,2211082494,770038,1,0.78857,0.10449,0.75439,-127.382,9.061,-77.13
2026-06-01 15:25:43.038,2211082494,770038,2,1.00098,-0.08472,-0.04956,-80.427,66.756,29.183
2026-06-01 15:25:43.238,2211082694,770238,1,1.00732,0.04712,0.70605,-188.427,-13.45,-117.672
2026-06-01 15:25:43.238,2211082694,770238,2,0.65552,-0.59473,0.06421,-250.137,95.55,31.947
2026-06-01 15:25:43.438,2211082894,770438,1,0.78784,-0.34326,0.64795,-92.511,20.969,-49.542
2026-06-01 15:25:43.438,2211082894,770438,2,0.87402,-0.42993,-0.06567,-121.397,29.16,-7.023
2026-06-01 15:25:44.638,2211084094,770638,1,0.85742,-0.28564,0.69019,-76.527,3.748,-66.58
2026-06-01 15:25:44.638,2211084094,770638,2,0.98706,-0.32861,-0.09814,-119.038,20.786,-20.87
2026-06-01 15:25:44.838,2211084294,770838,1,0.8396,-0.10815,0.68872,-24.206,71.573,-47.603
2026-06-01 15:25:44.838,2211084294,770838,2,1.07202,-0.23364,0.04736,26.145,-4.206,-26.748
2026-06-01 15:25:44.038,2211083494,771038,1,0.73804,-0.18799,0.78564,9.908,-2.344,-19.687
2026-06-01 15:25:44.038,2211083494,771038,2,0.8728,-0.21924,0.02637,16.58,1.29,-13.313
2026-06-01 15:25:44.238,2211083694,771238,1,0.7085,-0.05786,0.86768,2.664,7.13,-28.817
2026-06-01 15:25:44.238,2211083694,771238,2,1.01538,-0.14233,0.00562,-16.092,-0.191,1.504
2026-06-01 15:25:44.438,2211083894,771438,1,0.71631,0.01074,0.83765,1.534,-12.023,-13.679
2026-06-01 15:25:44.438,2211083894,771438,2,1.02295,-0.12183,-0.01538,-12.626,1.71,-7.038
2026-06-01 15:25:45.638,2211085094,771638,1,0.49536,0.13818,0.67212,7.145,-16.191,4.046
2026-06-01 15:25:45.638,2211085094,771638,2,1.02173,-0.17065,0.02319,-17.779,-2.901,17.405
2026-06-01 15:25:45.838,2211085294,771838,1,0.68555,-0.01416,1.19458,12.954,-14.908,7.038
2026-06-01 15:25:45.838,2211085294,771838,2,1.00903,-0.20728,0.01807,-6.557,-4.29,7.634
2026-06-01 15:25:45.038,2211084494,772038,1,0.7832,0.00464,0.81104,5.244,0.473,-7.466
2026-06-01 15:25:45.038,2211084494,772038,2,1.01294,-0.19922,-0.01025,-7.733,7.733,-5.756
2026-06-01 15:25:45.238,2211084694,772238,1,0.7251,-0.01001,0.86523,2.618,26.458,-10.282
2026-06-01 15:25:45.238,2211084694,772238,2,1.00171,-0.20532,-0.00854,-17.55,2.557,-0.519
2026-06-01 15:25:45.438,2211084894,772438,1,1.10474,-0.19263,0.98999,-55.351,-8.275,-48.0
2026-06-01 15:25:45.438,2211084894,772438,2,0.99731,-0.24609,0.00464,-17.176,13.626,-2.275
2026-06-01 15:25:46.638,2211086094,772638,1,0.7644,0.13818,0.60571,-24.527,-47.076,-15.198
2026-06-01 15:25:46.638,2211086094,772638,2,1.02271,-0.25122,0.04541,-27.069,7.481,7.878
2026-06-01 15:25:46.838,2211086294,772838,1,0.87109,-0.00073,0.78296,25.969,41.458,-11.023
2026-06-01 15:25:46.838,2211086294,772838,2,1.03516,-0.25098,-0.07031,-35.87,18.824,10.916
2026-06-01 15:25:46.038,2211085494,773038,1,0.91382,0.05249,0.58154,-3.992,-25.214,1.336
2026-06-01 15:25:46.038,2211085494,773038,2,0.88623,-0.27051,0.06641,-9.809,7.26,11.023
2026-06-01 15:25:46.238,2211085694,773238,1,0.57959,-0.01416,0.82202,-7.198,-14.26,-1.756
2026-06-01 15:25:46.238,2211085694,773238,2,0.99658,-0.30005,-0.05688,12.351,-22.771,3.305
2026-06-01 15:25:46.438,2211085894,773438,1,0.85132,0.06738,0.72314,0.298,3.695,-5.725
2026-06-01 15:25:46.438,2211085894,773438,2,1.01245,-0.3606,-0.00806,18.275,-2.45,-16.832
2026-06-01 15:25:47.638,2211087094,773638,1,0.84937,0.10352,0.79224,10.053,-5.473,22.985
2026-06-01 15:25:47.638,2211087094,773638,2,1.052,-0.14014,0.03564,-43.863,-15.084,-8.84
2026-06-01 15:25:47.838,2211087294,773838,1,0.93286,0.18042,0.65894,-4.053,51.305,45.015
2026-06-01 15:25:47.838,2211087294,773838,2,1.03394,-0.21802,0.02002,19.359,37.237,-3.679
2026-06-01 15:25:47.038,2211086494,774038,1,0.66406,-0.03125,0.96436,-3.473,20.359,14.092
2026-06-01 15:25:47.038,2211086494,774038,2,0.94775,-0.22485,0.23315,-15.023,14.313,14.328
2026-06-01 15:25:47.238,2211086694,774238,1,0.68579,-0.16357,0.88647,5.718,0.229,14.496
2026-06-01 15:25:47.238,2211086694,774238,2,0.97144,-0.18848,0.11768,-20.901,-9.901,2.687
2026-06-01 15:25:47.438,2211086894,774438,1,0.74609,-0.12134,0.81494,-3.527,-5.847,-10.893
2026-06-01 15:25:47.438,2211086894,774438,2,1.02051,-0.17432,0.11499,-8.855,-12.389,7.481
2026-06-01 15:25:48.638,2211088094,774638,1,0.80225,-0.09814,0.77661,7.664,-5.794,-9.458
2026-06-01 15:25:48.638,2211088094,774638,2,1.00903,-0.18335,0.07275,0.504,-11.534,4.252
2026-06-01 15:25:48.838,2211088294,774838,1,0.81201,-0.08081,0.77271,7.489,-0.962,-1.847
2026-06-01 15:25:48.838,2211088294,774838,2,0.99341,-0.21631,-0.0022,-2.458,-11.313,2.634
2026-06-01 15:25:48.038,2211087494,775038,1,0.81519,-0.04297,0.75586,4.679,4.977,0.55
2026-06-01 15:25:48.038,2211087494,775038,2,1.021,-0.21875,0.00659,5.046,-6.901,4.313
2026-06-01 15:25:48.238,2211087694,775238,1,0.84619,-0.06519,0.75342,13.626,7.55,13.496
2026-06-01 15:25:48.238,2211087694,775238,2,1.01367,-0.19775,0.0022,10.221,1.336,-2.198
2026-06-01 15:25:48.438,2211087894,775438,1,0.80859,-0.05811,0.73706,3.885,4.992,8.817
2026-06-01 15:25:48.438,2211087894,775438,2,1.01099,-0.18042,-0.00488,8.053,3.664,0.328
2026-06-01 15:25:49.638,2211089094,775638,1,0.81445,-0.08154,0.76196,1.298,2.115,-1.534
2026-06-01 15:25:49.638,2211089094,775638,2,1.01099,-0.19531,-0.01855,-4.595,-0.221,0.198
2026-06-01 15:25:49.838,2211089294,775838,1,0.80933,-0.08057,0.75439,5.145,-1.565,-4.237
2026-06-01 15:25:49.838,2211089294,775838,2,0.99707,-0.20776,-0.00171,-10.985,1.779,-0.504
2026-06-01 15:25:49.038,2211088494,776038,1,0.81592,-0.12427,0.70313,-52.412,-23.267,-36.26
2026-06-01 15:25:49.038,2211088494,776038,2,1.00854,-0.23315,-0.03784,-29.305,-4.137,10.351
2026-06-01 15:25:49.238,2211088694,776238,1,0.89673,-0.04907,0.6687,-22.015,-4.992,-10.893
2026-06-01 15:25:49.238,2211088694,776238,2,1.00977,-0.1958,-0.06055,-1.756,-10.687,-4.053
2026-06-01 15:25:49.438,2211088894,776438,1,1.29712,-0.13232,0.86035,4.305,15.527,-47.374
2026-06-01 15:25:49.438,2211088894,776438,2,0.91309,-0.24585,-0.12109,-25.863,3.427,4.076
2026-06-01 15:25:50.638,2211090094,776638,1,0.8252,-0.00684,0.33936,-38.458,-55.206,-30.115
2026-06-01 15:25:50.638,2211090094,776638,2,0.97632,-0.09839,0.01318,-33.221,27.74,-5.0
2026-06-01 15:25:50.838,2211090294,776838,1,0.875,0.02905,0.56982,7.122,6.634,-10.076
2026-06-01 15:25:50.838,2211090294,776838,2,0.89258,-0.09668,-0.17822,-17.725,-11.221,16.053
2026-06-01 15:25:50.038,2211089494,777038,1,1.01123,0.14819,0.62939,11.725,6.931,-6.298
2026-06-01 15:25:50.038,2211089494,777038,2,0.99854,-0.09741,-0.18652,-40.206,-20.351,1.603
2026-06-01 15:25:50.276,2211089732,777275,1,0.73755,0.05103,0.59497,-67.0,-3.809,-23.344
2026-06-01 15:25:50.276,2211089732,777275,2,1.07373,-0.36963,-0.37549,27.0,12.779,4.939
2026-06-01 15:25:50.475,2211089931,777475,1,0.89087,0.02466,0.58374,-15.649,0.008,6.344
2026-06-01 15:25:50.475,2211089931,777475,2,1.02563,-0.27417,-0.24634,-5.351,-12.023,2.595
2026-06-01 15:25:51.675,2211091131,777675,1,0.87427,0.03784,0.49854,-22.366,-14.435,15.336
2026-06-01 15:25:51.675,2211091131,777675,2,0.98999,-0.22241,-0.27026,-26.74,5.427,0.557
2026-06-01 15:25:51.875,2211091331,777875,1,0.93848,0.02808,0.64893,26.481,-0.046,9.023
2026-06-01 15:25:51.875,2211091331,777875,2,0.88696,-0.20532,-0.11646,54.847,11.191,-3.198
2026-06-01 15:25:51.075,2211090531,778075,1,0.9646,0.01123,0.65747,27.443,8.977,-4.855
2026-06-01 15:25:51.075,2211090531,778075,2,1.09253,-0.06494,-0.36792,-5.916,-7.977,-14.565
2026-06-01 15:25:51.275,2211090731,778275,1,1.00635,0.03613,0.62012,9.321,8.969,-4.481
2026-06-01 15:25:51.275,2211090731,778275,2,1.00464,-0.09912,-0.15723,14.786,-8.275,-8.634
2026-06-01 15:25:51.475,2211090931,778475,1,0.96509,0.06592,0.52905,4.053,13.412,-6.641
2026-06-01 15:25:51.475,2211090931,778475,2,1.02759,-0.11548,-0.16309,-9.618,-2.893,3.748
2026-06-01 15:25:52.675,2211092131,778675,1,0.88184,0.05762,0.5564,-0.061,18.099,-5.779
2026-06-01 15:25:52.675,2211092131,778675,2,1.00684,-0.125,-0.21533,-3.168,6.74,3.817
2026-06-01 15:25:52.875,2211092331,778875,1,1.23584,0.0752,0.71704,9.847,25.725,-1.672
2026-06-01 15:25:52.875,2211092331,778875,2,0.99512,-0.11206,-0.33691,-2.969,-2.115,-1.481
2026-06-01 15:25:52.075,2211091531,779075,1,0.9585,0.06177,0.60913,0.069,12.939,-0.725
2026-06-01 15:25:52.075,2211091531,779075,2,1.03174,-0.07715,-0.28564,-0.351,7.053,5.305
2026-06-01 15:25:52.275,2211091731,779275,1,0.93188,0.07202,0.57007,-6.481,-0.496,3.809
2026-06-01 15:25:52.275,2211091731,779275,2,1.02124,-0.14526,-0.17505,-0.466,7.695,-4.725
2026-06-01 15:25:52.475,2211091931,779475,1,0.94312,0.08691,0.58789,-0.992,-0.405,-8.779
2026-06-01 15:25:52.475,2211091931,779475,2,1.0249,-0.12109,-0.17725,-2.351,0.443,2.008
2026-06-01 15:25:53.748,2211093204,779748,1,0.9209,0.06348,0.60278,-1.145,1.046,2.008
2026-06-01 15:25:53.748,2211093204,779748,2,1.02124,-0.1272,-0.15625,-0.13,3.641,-0.176
2026-06-01 15:25:53.045,2211092501,780045,1,0.89331,0.07446,0.58862,21.092,6.809,15.939
2026-06-01 15:25:53.045,2211092501,780045,2,1.00415,-0.13647,-0.15503,25.473,12.618,8.145
2026-06-01 15:25:53.310,2211092766,780309,1,0.71338,0.01367,0.80908,-6.756,7.275,12.679
2026-06-01 15:25:53.310,2211092766,780309,2,1.11621,-0.17529,-0.14917,-8.038,12.962,2.847
2026-06-01 15:25:53.509,2211092965,780509,1,0.81543,-0.10352,0.7373,26.122,8.122,0.977
2026-06-01 15:25:53.509,2211092965,780509,2,1.00269,-0.25635,-0.11597,12.16,11.634,-12.908
2026-06-01 15:25:54.757,2211094213,780757,1,0.84619,-0.10059,0.62769,1.832,-10.87,-6.832
2026-06-01 15:25:54.757,2211094213,780757,2,1.00635,-0.24683,-0.1228,-3.069,-18.939,5.366
2026-06-01 15:25:54.091,2211093547,781091,1,0.74316,0.03418,0.48657,28.656,-15.29,-12.74
2026-06-01 15:25:54.091,2211093547,781091,2,1.01855,-0.2124,-0.0918,4.252,7.206,-2.573
2026-06-01 15:25:54.291,2211093747,781291,1,0.96777,0.12378,0.5896,11.405,1.191,-2.954
2026-06-01 15:25:54.291,2211093747,781291,2,1.01758,-0.22559,-0.09497,-3.282,0.695,-0.847
2026-06-01 15:25:54.491,2211093947,781491,1,1.03833,0.20508,0.42554,-0.29,-12.023,-9.557
2026-06-01 15:25:54.491,2211093947,781491,2,1.01318,-0.20801,-0.06396,-5.443,4.893,-0.137
2026-06-01 15:25:55.691,2211095147,781691,1,0.89917,0.13525,0.63208,4.053,1.244,-2.786
2026-06-01 15:25:55.691,2211095147,781691,2,1.01563,-0.22168,-0.08105,-4.672,2.237,1.542
2026-06-01 15:25:55.891,2211095347,781891,1,0.84937,0.14526,0.61353,-4.168,4.405,-1.351
2026-06-01 15:25:55.891,2211095347,781891,2,1.00708,-0.22729,-0.0791,3.122,0.244,0.344
2026-06-01 15:25:55.091,2211094547,782091,1,1.07861,0.15259,0.646,2.328,5.466,-1.588
2026-06-01 15:25:55.091,2211094547,782091,2,1.00024,-0.21289,-0.04907,2.489,3.008,-1.863
2026-06-01 15:25:55.291,2211094747,782291,1,0.88794,0.13965,0.63403,-2.176,3.496,1.962
2026-06-01 15:25:55.291,2211094747,782291,2,1.01123,-0.21851,-0.06763,-3.855,2.198,0.015
2026-06-01 15:25:55.491,2211094947,782491,1,0.90039,0.13257,0.61914,0.145,2.031,1.725
2026-06-01 15:25:55.491,2211094947,782491,2,1.01392,-0.21851,-0.06665,-3.565,-0.267,0.267
2026-06-01 15:25:56.691,2211096147,782691,1,0.89771,0.13037,0.62842,1.71,2.328,1.412
2026-06-01 15:25:56.691,2211096147,782691,2,1.00415,-0.21631,-0.0625,-1.198,0.046,0.71
2026-06-01 15:25:56.891,2211096347,782891,1,0.89136,0.13818,0.62793,3.031,0.924,-0.618
2026-06-01 15:25:56.891,2211096347,782891,2,1.01587,-0.20801,-0.05688,-6.931,-1.954,2.771
2026-06-01 15:25:56.091,2211095547,783091,1,0.9165,0.13892,0.64038,1.496,0.046,2.069
2026-06-01 15:25:56.091,2211095547,783091,2,1.0022,-0.24341,-0.04907,0.191,-0.046,2.076
2026-06-01 15:25:56.291,2211095747,783291,1,0.92773,0.11694,0.60962,3.916,-0.183,-1.924
2026-06-01 15:25:56.291,2211095747,783291,2,1.00562,-0.22778,-0.07617,-1.214,2.672,-0.122
2026-06-01 15:25:56.491,2211095947,783491,1,0.91284,0.13403,0.60107,0.641,-3.061,-0.496
2026-06-01 15:25:56.491,2211095947,783491,2,1.00366,-0.23828,-0.06543,-5.611,1.16,-0.313
2026-06-01 15:25:57.691,2211097147,783691,1,0.92456,0.12329,0.57568,-0.344,0.466,1.183
2026-06-01 15:25:57.691,2211097147,783691,2,1.01733,-0.2356,-0.07617,-10.809,0.45,-1.13
2026-06-01 15:25:57.891,2211097347,783891,1,0.8772,0.11987,0.58667,0.29,-8.137,-4.672
2026-06-01 15:25:57.891,2211097347,783891,2,1.01025,-0.2356,-0.06958,-0.489,1.076,-0.344
2026-06-01 15:25:57.091,2211096547,784091,1,0.91968,0.10571,0.58618,-1.802,-0.237,0.603
2026-06-01 15:25:57.091,2211096547,784091,2,1.01782,-0.21606,-0.07422,-4.282,0.489,2.069
2026-06-01 15:25:57.291,2211096747,784291,1,0.92627,0.10669,0.59082,-0.16,2.565,-1.824
2026-06-01 15:25:57.291,2211096747,784291,2,1.01172,-0.22632,-0.0769,-0.496,-0.374,0.985
2026-06-01 15:25:57.491,2211096947,784491,1,0.92578,0.12207,0.57422,-0.359,0.611,-0.84
2026-06-01 15:25:57.491,2211096947,784491,2,1.00659,-0.22705,-0.08569,-0.977,1.603,0.832
2026-06-01 15:25:58.691,2211098147,784691,1,0.91846,0.12524,0.5896,1.122,2.687,-1.107
2026-06-01 15:25:58.691,2211098147,784691,2,1.00562,-0.2124,-0.08984,-8.977,4.656,9.0
2026-06-01 15:25:58.891,2211098347,784891,1,0.93774,0.12915,0.59058,1.588,1.282,-5.008
2026-06-01 15:25:58.891,2211098347,784891,2,1.01025,-0.25415,-0.07373,1.725,-4.344,-1.008
2026-06-01 15:25:58.091,2211097547,785091,1,0.90381,0.14673,0.60229,-0.344,8.137,-7.954
2026-06-01 15:25:58.091,2211097547,785091,2,0.98438,-0.21069,-0.03979,-5.794,-1.954,-2.626
2026-06-01 15:25:58.291,2211097747,785291,1,0.99292,0.18701,0.57275,3.45,11.275,-2.122
2026-06-01 15:25:58.291,2211097747,785291,2,1.00049,-0.24023,-0.07129,0.771,4.626,-0.237
2026-06-01 15:25:58.491,2211097947,785491,1,0.90405,0.15625,0.61597,-0.237,3.351,2.534
2026-06-01 15:25:58.491,2211097947,785491,2,1.00122,-0.23145,-0.08374,-1.328,2.26,0.725
2026-06-01 15:25:59.691,2211099147,785691,1,0.84204,0.16577,0.698,-1.42,3.107,5.389
2026-06-01 15:25:59.691,2211099147,785691,2,0.99658,-0.20825,-0.06104,-4.351,1.076,0.336
2026-06-01 15:25:59.891,2211099347,785891,1,0.90601,0.16943,0.60547,2.924,-0.359,-2.267
2026-06-01 15:25:59.891,2211099347,785891,2,1.00366,-0.23975,-0.05371,-1.374,-1.099,-1.0
2026-06-01 15:25:59.091,2211098547,786091,1,0.90137,0.17969,0.61743,-3.015,8.542,-4.58
2026-06-01 15:25:59.091,2211098547,786091,2,1.01245,-0.21899,-0.08643,-1.626,-1.076,-2.229
2026-06-01 15:25:59.291,2211098747,786291,1,0.9082,0.18188,0.58276,0.924,-5.275,-1.466
2026-06-01 15:25:59.291,2211098747,786291,2,1.01465,-0.22656,-0.08154,-8.13,2.939,-0.405
2026-06-01 15:25:59.491,2211098947,786491,1,0.90356,0.18701,0.59106,1.405,3.115,-0.053
2026-06-01 15:25:59.491,2211098947,786491,2,1.00415,-0.22754,-0.06689,-3.092,3.046,2.916
2026-06-01 15:26:00.691,2211100147,786691,1,0.9021,0.17896,0.5835,3.29,0.664,0.198
2026-06-01 15:26:00.691,2211100147,786691,2,1.01147,-0.229,-0.0564,-1.45,1.168,1.573
2026-06-01 15:26:00.891,2211100347,786891,1,0.91113,0.16504,0.59741,1.718,0.435,0.16
2026-06-01 15:26:00.891,2211100347,786891,2,0.93018,-0.1106,-0.06128,-12.336,2.076,1.275
2026-06-01 15:26:00.091,2211099547,787091,1,0.90552,0.17529,0.61768,-2.443,3.313,1.962
2026-06-01 15:26:00.091,2211099547,787091,2,1.04224,-0.17993,-0.12549,-3.947,-2.74,0.382
2026-06-01 15:26:00.291,2211099747,787291,1,0.90112,0.15088,0.63574,7.626,0.916,-0.214
