datetime,epoch_ms,ts_millis,mpu_id,ax,ay,az,gx,gy,gz
2026-06-01 16:55:03.178,2216442634,576178,1,0.87695,-0.37573,0.55127,0.206,1.824,-0.282
2026-06-01 16:55:03.178,2216442634,576178,2,0.98193,-0.13379,-0.35474,-1.87,0.313,0.55
2026-06-01 16:55:03.378,2216442834,576378,1,0.89331,-0.37842,0.54443,0.29,1.748,-0.802
2026-06-01 16:55:03.378,2216442834,576378,2,0.97998,-0.13184,-0.35864,-1.634,0.672,0.481
2026-06-01 16:55:03.578,2216443034,576578,1,0.88354,-0.37817,0.55029,0.649,1.901,-0.695
2026-06-01 16:55:03.578,2216443034,576578,2,0.98022,-0.13184,-0.35474,-1.664,0.565,0.45
2026-06-01 16:55:03.778,2216443234,576778,1,0.88062,-0.36987,0.55322,1.061,1.656,-0.206
2026-06-01 16:55:03.778,2216443234,576778,2,0.98193,-0.13354,-0.35986,-1.763,0.122,0.656
2026-06-01 16:55:03.978,2216443434,576978,1,0.88818,-0.37524,0.5542,0.252,1.489,-0.435
2026-06-01 16:55:03.978,2216443434,576978,2,0.97827,-0.12939,-0.36523,-1.656,0.573,0.664
2026-06-01 16:55:04.178,2216443634,577178,1,0.88818,-0.37085,0.55664,0.366,1.847,-0.038
2026-06-01 16:55:04.178,2216443634,577178,2,0.97949,-0.13379,-0.35522,-1.618,0.534,0.618
2026-06-01 16:55:04.378,2216443834,577378,1,0.87939,-0.37109,0.54956,0.557,2.282,-0.405
2026-06-01 16:55:04.378,2216443834,577378,2,0.98413,-0.13232,-0.35864,-1.74,0.16,0.595
2026-06-01 16:55:04.578,2216444034,577578,1,0.88037,-0.37939,0.55176,0.496,1.595,-1.832
2026-06-01 16:55:04.578,2216444034,577578,2,0.979,-0.13062,-0.36523,-1.847,0.565,0.687
2026-06-01 16:55:04.778,2216444234,577778,1,0.88794,-0.37671,0.55054,0.435,1.794,0.153
2026-06-01 16:55:04.778,2216444234,577778,2,0.97803,-0.1355,-0.34839,-1.595,0.466,0.473
2026-06-01 16:55:04.978,2216444434,577978,1,0.88818,-0.37256,0.54956,0.786,1.58,-0.305
2026-06-01 16:55:04.978,2216444434,577978,2,0.97998,-0.12671,-0.34985,-1.58,0.137,0.74
2026-06-01 16:55:05.178,2216444634,578178,1,0.88916,-0.37036,0.54321,0.893,1.504,-0.901
2026-06-01 16:55:05.178,2216444634,578178,2,0.98047,-0.12939,-0.35815,-1.611,0.542,0.634
2026-06-01 16:55:05.378,2216444834,578378,1,0.88647,-0.39087,0.54443,1.519,0.718,-5.252
2026-06-01 16:55:05.378,2216444834,578378,2,0.97632,-0.13428,-0.36865,-1.092,0.618,0.473
2026-06-01 16:55:05.578,2216445034,578578,1,0.87231,-0.35278,0.51245,1.802,7.351,-7.969
2026-06-01 16:55:05.578,2216445034,578578,2,0.98193,-0.13501,-0.3562,-2.595,2.611,0.153
2026-06-01 16:55:05.778,2216445234,578778,1,0.87207,-0.32715,0.57983,-1.321,14.405,-1.885
2026-06-01 16:55:05.778,2216445234,578778,2,0.98633,-0.13306,-0.36157,-0.611,0.573,0.695
2026-06-01 16:55:05.978,2216445434,578978,1,0.84009,-0.33276,0.57764,0.969,-1.298,2.794
2026-06-01 16:55:05.978,2216445434,578978,2,0.979,-0.13574,-0.35645,-3.137,-2.008,0.817
2026-06-01 16:55:06.178,2216445634,579178,1,0.87598,-0.35156,0.56055,1.504,-13.656,8.183
2026-06-01 16:55:06.178,2216445634,579178,2,0.98071,-0.12524,-0.3623,-1.29,-2.824,0.985
2026-06-01 16:55:06.378,2216445834,579378,1,0.91357,-0.375,0.51294,-9.313,-15.275,-5.069
2026-06-01 16:55:06.378,2216445834,579378,2,0.97803,-0.13306,-0.3772,0.802,-0.298,0.969
2026-06-01 16:55:06.578,2216446034,579578,1,0.94092,-0.37524,0.40845,-12.137,-19.542,-5.649
2026-06-01 16:55:06.578,2216446034,579578,2,0.97437,-0.13477,-0.37817,0.038,-1.71,1.779
2026-06-01 16:55:06.783,2216446239,579783,1,0.97437,-0.36816,0.35034,-1.863,-14.206,-7.221
2026-06-01 16:55:06.783,2216446239,579783,2,0.97144,-0.14917,-0.38306,-1.527,-2.008,1.061
2026-06-01 16:55:06.983,2216446439,579983,1,1.00098,-0.33667,0.2854,-13.344,-10.908,-8.328
2026-06-01 16:55:06.983,2216446439,579983,2,0.96655,-0.13208,-0.37793,-0.672,-0.901,1.023
2026-06-01 16:55:07.287,2216446743,580287,1,1.03735,-0.29663,0.10083,-35.779,-5.374,-1.618
2026-06-01 16:55:07.287,2216446743,580287,2,0.97168,-0.13867,-0.38745,-2.153,1.901,0.305
2026-06-01 16:55:07.518,2216446974,580518,1,1.02051,-0.31738,0.09399,-13.183,3.191,-2.496
2026-06-01 16:55:07.518,2216446974,580518,2,0.97876,-0.13696,-0.38232,-2.603,-0.206,0.58
2026-06-01 16:55:07.718,2216447174,580718,1,1.00879,-0.29614,0.12036,2.71,0.588,-4.427
2026-06-01 16:55:07.718,2216447174,580718,2,0.9707,-0.14185,-0.38647,-3.168,-0.756,0.931
2026-06-01 16:55:07.918,2216447374,580918,1,1.03223,-0.25537,0.07788,22.901,-3.55,-14.634
2026-06-01 16:55:07.918,2216447374,580918,2,0.96997,-0.14233,-0.39282,-1.641,-0.901,0.824
2026-06-01 16:55:08.118,2216447574,581118,1,1.02881,-0.23755,0.09253,14.351,-7.992,-5.84
2026-06-01 16:55:08.118,2216447574,581118,2,0.9668,-0.13525,-0.38037,0.16,-1.382,1.099
2026-06-01 16:55:08.318,2216447774,581318,1,1.06812,-0.21362,0.04053,7.29,1.29,6.008
2026-06-01 16:55:08.318,2216447774,581318,2,0.98804,-0.12842,-0.39307,-2.031,0.985,1.214
2026-06-01 16:55:08.518,2216447974,581518,1,1.073,-0.19214,0.0498,2.725,8.099,6.786
2026-06-01 16:55:08.518,2216447974,581518,2,0.96875,-0.14478,-0.38672,-0.382,0.725,0.405
2026-06-01 16:55:08.718,2216448174,581718,1,1.04077,-0.20264,0.09229,-4.42,-2.809,7.634
2026-06-01 16:55:08.718,2216448174,581718,2,0.96533,-0.14282,-0.38257,-3.206,-1.015,0.916
2026-06-01 16:55:08.918,2216448374,581918,1,1.03564,-0.25195,0.02905,-1.588,5.061,-1.366
2026-06-01 16:55:08.918,2216448374,581918,2,0.96704,-0.146,-0.38818,-0.748,1.618,0.405
2026-06-01 16:55:09.118,2216448574,582118,1,1.04102,-0.28149,0.0813,-8.221,7.008,-1.115
2026-06-01 16:55:09.118,2216448574,582118,2,0.96753,-0.14331,-0.39429,-2.038,0.519,0.565
2026-06-01 16:55:09.318,2216448774,582318,1,1.03027,-0.27759,0.05347,4.695,7.687,0.153
2026-06-01 16:55:09.318,2216448774,582318,2,0.96436,-0.14404,-0.39258,-1.519,0.802,0.534
2026-06-01 16:55:09.518,2216448974,582518,1,1.00684,-0.30347,0.11133,1.962,10.634,-1.13
2026-06-01 16:55:09.518,2216448974,582518,2,0.96484,-0.14673,-0.39771,-0.901,0.412,0.656
2026-06-01 16:55:09.718,2216449174,582718,1,1.01685,-0.27295,0.1377,16.237,5.977,2.893
2026-06-01 16:55:09.718,2216449174,582718,2,0.96777,-0.15112,-0.40186,-1.435,-0.336,0.687
2026-06-01 16:55:09.066,2216448522,583066,1,1.02661,-0.28076,0.13672,4.847,-4.275,-3.847
2026-06-01 16:55:09.066,2216448522,583066,2,0.96582,-0.14355,-0.40112,-1.397,0.321,0.618
2026-06-01 16:55:10.418,2216449874,583418,1,1.03418,-0.2832,0.10181,2.649,1.275,-1.153
2026-06-01 16:55:10.418,2216449874,583418,2,0.95923,-0.14722,-0.40894,-1.496,0.55,0.588
2026-06-01 16:55:10.618,2216450074,583618,1,1.03491,-0.2688,0.11841,2.031,0.718,-0.878
2026-06-01 16:55:10.618,2216450074,583618,2,0.96313,-0.14063,-0.39307,-1.191,0.176,0.695
2026-06-01 16:55:10.818,2216450274,583818,1,1.02148,-0.271,0.12256,-0.069,-6.206,-1.015
2026-06-01 16:55:10.818,2216450274,583818,2,0.96289,-0.1499,-0.39746,0.336,-0.107,0.679
2026-06-01 16:55:10.018,2216449474,584018,1,1.02905,-0.28198,0.08911,-3.305,-4.107,1.847
2026-06-01 16:55:10.018,2216449474,584018,2,0.95947,-0.14648,-0.39355,-0.954,-0.214,0.763
2026-06-01 16:55:11.218,2216450674,584218,1,1.02002,-0.25562,0.06226,-7.901,-9.267,-0.519
2026-06-01 16:55:11.218,2216450674,584218,2,0.95923,-0.1543,-0.39868,-1.183,-0.252,0.817
2026-06-01 16:55:11.418,2216450874,584418,1,1.05469,-0.30127,0.00391,-11.672,-0.786,2.832
2026-06-01 16:55:11.418,2216450874,584418,2,0.96777,-0.15552,-0.40918,-1.634,0.725,0.656
2026-06-01 16:55:11.618,2216451074,584618,1,1.04199,-0.26709,-0.00903,0.405,3.145,-0.008
2026-06-01 16:55:11.618,2216451074,584618,2,0.95752,-0.15063,-0.39624,-2.305,0.55,0.641
2026-06-01 16:55:11.818,2216451274,584818,1,1.01367,-0.29517,0.0376,16.763,9.344,3.458
2026-06-01 16:55:11.818,2216451274,584818,2,0.96265,-0.146,-0.39404,-1.603,-0.214,0.702
2026-06-01 16:55:11.018,2216450474,585018,1,1.03491,-0.28687,0.10815,4.145,29.771,20.969
2026-06-01 16:55:11.018,2216450474,585018,2,0.96411,-0.14868,-0.39258,-2.679,3.191,0.397
2026-06-01 16:55:12.218,2216451674,585218,1,0.97192,-0.45264,0.21509,40.084,39.481,32.107
2026-06-01 16:55:12.218,2216451674,585218,2,0.96509,-0.14795,-0.40137,-3.16,8.725,-0.344
2026-06-01 16:55:12.420,2216451876,585420,1,0.93604,-0.42651,0.36426,35.321,49.679,9.382
2026-06-01 16:55:12.420,2216451876,585420,2,0.98755,-0.1438,-0.35034,1.985,16.954,-1.847
2026-06-01 16:55:12.620,2216452076,585620,1,0.83032,-0.4375,0.59277,21.908,42.252,-9.924
2026-06-01 16:55:12.620,2216452076,585620,2,1.00781,-0.12427,-0.27246,14.954,25.763,2.427
2026-06-01 16:55:12.820,2216452276,585820,1,0.80005,-0.36865,0.7002,-11.809,13.893,4.046
2026-06-01 16:55:12.820,2216452276,585820,2,1.0835,-0.15942,-0.05054,61.664,93.008,-11.023
2026-06-01 16:55:12.021,2216451477,586020,1,0.71387,-0.41406,0.771,6.603,21.832,1.634
2026-06-01 16:55:12.021,2216451477,586020,2,1.05225,-0.0354,0.11597,-3.611,29.779,-16.374
2026-06-01 16:55:13.220,2216452676,586220,1,0.6394,-0.37061,0.80151,-0.214,13.664,-3.176
2026-06-01 16:55:13.220,2216452676,586220,2,0.97168,-0.04663,0.20654,-6.267,12.565,-4.573
2026-06-01 16:55:13.420,2216452876,586420,1,0.68359,-0.4209,0.76685,-3.229,1.397,1.87
2026-06-01 16:55:13.420,2216452876,586420,2,0.99878,-0.05347,0.20801,-3.42,3.87,-3.771
2026-06-01 16:55:13.620,2216453076,586620,1,0.69556,-0.40894,0.78491,6.176,2.626,2.832
2026-06-01 16:55:13.620,2216453076,586620,2,0.97559,-0.03467,0.23584,-2.809,14.878,-8.29
2026-06-01 16:55:13.820,2216453276,586820,1,0.71436,-0.39917,0.78198,-7.878,8.237,0.061
2026-06-01 16:55:13.820,2216453276,586820,2,0.9834,0.00562,0.24634,-2.634,10.328,2.656
2026-06-01 16:55:13.020,2216452476,587020,1,0.68433,-0.43896,0.77954,-12.656,20.206,-1.954
2026-06-01 16:55:13.020,2216452476,587020,2,0.86865,-0.08545,0.38525,-5.26,12.863,-2.267
2026-06-01 16:55:14.552,2216454008,587552,1,0.5603,-0.58203,0.72754,-21.435,-0.298,3.137
2026-06-01 16:55:14.552,2216454008,587552,2,0.88989,-0.04761,0.39771,-3.176,4.176,3.435
2026-06-01 16:55:14.752,2216454208,587752,1,0.54492,-0.63379,0.75391,-3.626,3.153,-1.962
2026-06-01 16:55:14.752,2216454208,587752,2,0.9165,-0.08521,0.40161,1.13,2.298,0.29
2026-06-01 16:55:14.952,2216454408,587952,1,0.54248,-0.62988,0.74951,4.282,2.962,-1.084
2026-06-01 16:55:14.952,2216454408,587952,2,0.90942,-0.08008,0.4187,0.313,1.939,-0.901
2026-06-01 16:55:15.152,2216454608,588152,1,0.54785,-0.61743,0.76416,5.122,0.069,-0.756
2026-06-01 16:55:15.152,2216454608,588152,2,0.91138,-0.06104,0.40967,-0.565,1.466,-0.427
2026-06-01 16:55:15.352,2216454808,588352,1,0.55029,-0.61768,0.76782,1.695,2.252,-2.221
2026-06-01 16:55:15.352,2216454808,588352,2,0.91309,-0.06299,0.40991,-0.557,0.069,-0.305
2026-06-01 16:55:15.552,2216455008,588552,1,0.53589,-0.60205,0.77051,0.427,3.71,-1.489
2026-06-01 16:55:15.552,2216455008,588552,2,0.91846,-0.05005,0.40723,-1.321,-1.573,-0.061
2026-06-01 16:55:15.752,2216455208,588752,1,0.54614,-0.59595,0.77197,-1.137,1.405,-1.756
2026-06-01 16:55:15.752,2216455208,588752,2,0.91357,-0.05444,0.40771,-0.237,-0.42,0.351
2026-06-01 16:55:15.952,2216455408,588952,1,0.54248,-0.59961,0.77124,-0.13,1.702,-1.779
2026-06-01 16:55:15.952,2216455408,588952,2,0.91357,-0.05054,0.42065,-0.366,0.42,0.664
2026-06-01 16:55:16.152,2216455608,589152,1,0.5459,-0.60425,0.7688,-1.603,0.725,-1.427
2026-06-01 16:55:16.152,2216455608,589152,2,0.9104,-0.05225,0.41357,0.092,0.481,0.992
2026-06-01 16:55:16.352,2216455808,589352,1,0.53906,-0.604,0.75317,2.313,2.809,-1.42
2026-06-01 16:55:16.352,2216455808,589352,2,0.91089,-0.05298,0.41919,0.015,0.855,-0.053
2026-06-01 16:55:16.552,2216456008,589552,1,0.54858,-0.58789,0.78247,1.595,2.748,-1.74
2026-06-01 16:55:16.552,2216456008,589552,2,0.91016,-0.05005,0.41846,-0.695,0.557,-0.107
2026-06-01 16:55:16.752,2216456208,589752,1,0.53662,-0.59302,0.77466,0.496,2.198,-1.122
2026-06-01 16:55:16.752,2216456208,589752,2,0.91626,-0.05029,0.4187,0.092,0.725,0.702
2026-06-01 16:55:16.952,2216456408,589952,1,0.53491,-0.58081,0.77515,-0.954,3.443,-0.328
2026-06-01 16:55:16.952,2216456408,589952,2,0.90576,-0.04834,0.41919,-1.542,0.092,1.977
2026-06-01 16:55:17.152,2216456608,590152,1,0.53662,-0.55371,0.81836,10.748,1.863,1.908
2026-06-01 16:55:17.152,2216456608,590152,2,0.90259,-0.03247,0.40674,-1.588,0.328,2.084
2026-06-01 16:55:17.352,2216456808,590352,1,0.51978,-0.53516,0.8208,16.565,2.443,-10.802
2026-06-01 16:55:17.352,2216456808,590352,2,0.90259,-0.05493,0.40698,-3.931,-2.626,1.832
2026-06-01 16:55:17.552,2216457008,590552,1,0.53833,-0.48975,0.88062,5.176,3.221,-10.756
2026-06-01 16:55:17.552,2216457008,590552,2,0.91284,-0.0459,0.39917,-4.214,-6.863,1.053
2026-06-01 16:55:17.752,2216457208,590752,1,0.55103,-0.3562,0.89429,16.595,-12.557,-13.298
2026-06-01 16:55:17.752,2216457208,590752,2,0.92456,-0.05029,0.36548,2.008,-7.221,-1.977
2026-06-01 16:55:17.952,2216457408,590952,1,0.56787,-0.3855,0.89429,-9.908,-19.29,-3.84
2026-06-01 16:55:17.952,2216457408,590952,2,0.92627,-0.06274,0.34985,12.267,-16.153,0.137
2026-06-01 16:55:18.152,2216457608,591152,1,0.68018,-0.37158,0.80298,-10.084,-26.191,1.687
2026-06-01 16:55:18.152,2216457608,591152,2,0.98975,-0.02539,0.27344,0.809,-8.382,-2.015
2026-06-01 16:55:18.352,2216457808,591352,1,0.68042,-0.42065,0.76514,3.847,-25.565,2.695
2026-06-01 16:55:18.352,2216457808,591352,2,0.94629,-0.03101,0.24683,6.328,-20.939,-0.74
2026-06-01 16:55:18.552,2216458008,591552,1,0.72778,-0.4375,0.73071,15.038,-21.244,3.634
2026-06-01 16:55:18.552,2216458008,591552,2,0.96558,0.10107,0.0835,-56.618,-98.931,-4.298
2026-06-01 16:55:18.752,2216458208,591752,1,0.77588,-0.36987,0.68848,20.183,-37.519,4.0
2026-06-01 16:55:18.752,2216458208,591752,2,0.94385,-0.01392,-0.33716,-63.939,-79.542,6.733
2026-06-01 16:55:18.952,2216458408,591952,1,0.88013,-0.28882,0.55786,0.748,-23.008,-14.26
2026-06-01 16:55:18.952,2216458408,591952,2,0.99536,-0.03076,-0.40186,-5.061,-22.115,4.046
2026-06-01 16:55:19.152,2216458608,592152,1,1.00342,-0.28833,0.48193,-8.084,2.878,1.115
2026-06-01 16:55:19.152,2216458608,592152,2,0.98145,-0.01196,-0.37573,-4.595,5.405,0.015
2026-06-01 16:55:19.352,2216458808,592352,1,0.89282,-0.35645,0.56006,2.336,10.092,2.504
2026-06-01 16:55:19.352,2216458808,592352,2,0.98804,-0.01343,-0.39038,1.649,3.481,0.092
2026-06-01 16:55:19.552,2216459008,592552,1,0.88477,-0.33984,0.56543,-0.58,0.038,-0.771
2026-06-01 16:55:19.552,2216459008,592552,2,0.9834,-0.01538,-0.3374,-2.916,3.443,0.481
2026-06-01 16:55:19.752,2216459208,592752,1,0.87036,-0.33496,0.58789,-1.809,3.031,0.313
2026-06-01 16:55:19.752,2216459208,592752,2,0.99878,-0.01489,-0.33838,-2.183,1.634,0.305
2026-06-01 16:55:19.952,2216459408,592952,1,0.90527,-0.32959,0.55713,7.046,6.817,0.282
2026-06-01 16:55:19.952,2216459408,592952,2,0.99048,-0.00391,-0.34009,-2.099,2.84,0.397
2026-06-01 16:55:20.152,2216459608,593152,1,0.85791,-0.33618,0.60132,3.046,8.191,2.076
2026-06-01 16:55:20.152,2216459608,593152,2,0.98853,-0.01855,-0.33228,-0.969,1.74,0.435
2026-06-01 16:55:20.352,2216459808,593352,1,0.90845,-0.34204,0.57861,7.122,4.863,2.908
2026-06-01 16:55:20.352,2216459808,593352,2,0.99072,-0.0144,-0.34106,0.076,1.771,0.405
2026-06-01 16:55:20.552,2216460008,593552,1,0.85962,-0.35132,0.58496,-10.519,-1.748,2.191
2026-06-01 16:55:20.552,2216460008,593552,2,0.98389,-0.01392,-0.33545,-0.053,-0.847,0.718
2026-06-01 16:55:20.752,2216460208,593752,1,0.86353,-0.33325,0.59204,3.191,-1.527,6.603
2026-06-01 16:55:20.752,2216460208,593752,2,0.98828,-0.0144,-0.34473,-1.603,-1.756,0.641
2026-06-01 16:55:20.952,2216460408,593952,1,0.85718,-0.40503,0.59644,3.87,-9.168,3.511
2026-06-01 16:55:20.952,2216460408,593952,2,0.98779,-0.01172,-0.34644,-0.718,-2.473,0.687
2026-06-01 16:55:21.152,2216460608,594152,1,0.87476,-0.3728,0.55762,-12.008,-8.198,-1.588
2026-06-01 16:55:21.152,2216460608,594152,2,0.98486,-0.01782,-0.36719,-2.695,-4.473,0.939
2026-06-01 16:55:21.352,2216460808,594352,1,0.9209,-0.42822,0.48315,-5.534,-0.13,-3.855
2026-06-01 16:55:21.352,2216460808,594352,2,0.97803,-0.01733,-0.36792,-1.435,0.168,0.405
2026-06-01 16:55:21.552,2216461008,594552,1,0.91187,-0.4126,0.50781,4.863,2.107,-0.87
2026-06-01 16:55:21.552,2216461008,594552,2,0.97852,-0.01416,-0.37549,-2.107,1.275,0.489
2026-06-01 16:55:21.752,2216461208,594752,1,0.88354,-0.37402,0.5376,-0.092,-0.878,1.115
2026-06-01 16:55:21.752,2216461208,594752,2,0.98267,-0.01221,-0.36621,-2.084,-0.771,0.534
2026-06-01 16:55:21.952,2216461408,594952,1,0.9668,-0.44434,0.427,26.74,8.496,10.198
2026-06-01 16:55:21.952,2216461408,594952,2,0.98877,-0.01514,-0.44775,-4.641,10.786,-0.397
2026-06-01 16:55:22.152,2216461608,595152,1,0.9082,-0.41333,0.48413,-20.267,51.275,-31.374
2026-06-01 16:55:22.152,2216461608,595152,2,0.80542,0.31152,0.05322,42.718,62.855,18.466
2026-06-01 16:55:22.352,2216461808,595352,1,0.77173,-0.44897,0.65527,17.237,62.244,5.542
2026-06-01 16:55:22.352,2216461808,595352,2,1.00244,0.04517,0.17798,-18.855,48.244,-31.649
2026-06-01 16:55:22.552,2216462008,595552,1,0.59375,-0.37744,0.81445,50.351,44.802,12.328
2026-06-01 16:55:22.552,2216462008,595552,2,0.87012,0.16992,0.27563,24.0,52.534,-39.282
2026-06-01 16:55:22.752,2216462208,595752,1,0.49805,-0.31104,1.04907,-16.847,20.206,7.443
2026-06-01 16:55:22.752,2216462208,595752,2,0.75,0.34253,0.56909,-2.84,29.092,-9.137
2026-06-01 16:55:22.952,2216462408,595952,1,0.3916,-0.38721,0.95117,-18.733,18.557,-13.214
2026-06-01 16:55:22.952,2216462408,595952,2,0.72803,0.29834,0.55981,-9.26,2.924,-22.038
2026-06-01 16:55:23.152,2216462608,596152,1,0.50708,-0.47925,1.27197,9.267,-23.611,-11.13
2026-06-01 16:55:23.152,2216462608,596152,2,0.81616,0.31128,0.58716,-1.214,-41.305,5.901
2026-06-01 16:55:23.352,2216462808,596352,1,0.61841,-0.28149,0.86011,-6.588,-29.702,-30.153
2026-06-01 16:55:23.352,2216462808,596352,2,0.85938,0.30542,0.48657,3.336,-39.145,0.519
2026-06-01 16:55:23.552,2216463008,596552,1,0.67896,-0.1936,0.73389,-0.794,-21.756,-7.87
2026-06-01 16:55:23.552,2216463008,596552,2,0.77783,0.22388,0.25342,-3.947,-38.924,25.015
2026-06-01 16:55:23.752,2216463208,596752,1,0.71948,-0.21582,0.6377,12.252,-16.382,9.313
2026-06-01 16:55:23.752,2216463208,596752,2,0.92407,0.21704,0.18774,-7.29,-19.168,9.588
2026-06-01 16:55:23.952,2216463408,596952,1,0.76929,-0.27124,0.71509,-8.168,0.069,-7.069
2026-06-01 16:55:23.952,2216463408,596952,2,0.96655,0.21509,0.19897,-9.244,-4.359,-1.84
2026-06-01 16:55:24.152,2216463608,597152,1,0.82959,-0.31177,0.78271,-11.618,5.908,-19.275
2026-06-01 16:55:24.152,2216463608,597152,2,1.13232,0.25757,0.1792,-34.0,-7.359,-19.718
2026-06-01 16:55:24.352,2216463808,597352,1,0.69238,-0.42139,0.67554,-55.214,25.977,-65.466
2026-06-01 16:55:24.352,2216463808,597352,2,0.85498,-0.01123,0.26978,-79.794,-14.985,-32.13
2026-06-01 16:55:24.552,2216464008,597552,1,0.82153,-0.34912,0.72266,-94.107,7.924,-47.794
2026-06-01 16:55:24.552,2216464008,597552,2,1.22705,0.14258,0.18628,-89.763,-35.137,24.115
2026-06-01 16:55:24.752,2216464208,597752,1,0.93042,-0.23828,0.62866,-118.328,13.71,-59.198
2026-06-01 16:55:24.752,2216464208,597752,2,0.9624,0.17017,0.14063,-78.947,-13.595,32.954
2026-06-01 16:55:24.952,2216464408,597952,1,0.74292,-0.40308,0.45605,-87.992,31.603,-69.282
2026-06-01 16:55:24.952,2216464408,597952,2,0.94702,-0.08936,0.16968,-84.939,4.618,-48.809
2026-06-01 16:55:25.152,2216464608,598152,1,0.91016,-0.29443,0.52222,-12.771,9.115,-20.702
2026-06-01 16:55:25.152,2216464608,598152,2,0.948,-0.05493,0.03857,-7.084,-2.427,-4.748
2026-06-01 16:55:25.352,2216464808,598352,1,1.2168,-0.44629,0.78418,20.0,-52.008,-17.229
2026-06-01 16:55:25.352,2216464808,598352,2,1.05786,0.0354,0.29346,39.092,3.893,-4.847
2026-06-01 16:55:25.552,2216465008,598552,1,0.93091,-0.32446,0.58398,69.023,12.359,26.649
2026-06-01 16:55:25.552,2216465008,598552,2,0.81689,-0.11426,0.08936,77.237,11.13,6.588
2026-06-01 16:55:25.752,2216465208,598752,1,0.80542,-0.45557,0.59644,76.397,-8.641,43.237
2026-06-01 16:55:25.752,2216465208,598752,2,1.12183,-0.07788,0.04468,107.321,-24.832,15.405
2026-06-01 16:55:25.952,2216465408,598952,1,0.94312,-0.06494,0.58984,74.679,-26.084,38.45
2026-06-01 16:55:25.952,2216465408,598952,2,1.05713,0.22534,0.01709,92.275,0.26,36.382
2026-06-01 16:55:26.152,2216465608,599152,1,0.86914,-0.15405,0.57202,47.031,-5.107,37.252
2026-06-01 16:55:26.152,2216465608,599152,2,0.91089,0.07471,-0.13086,45.527,-13.947,11.496
2026-06-01 16:55:26.352,2216465808,599352,1,0.85034,-0.12231,0.66479,32.29,3.473,20.427
2026-06-01 16:55:26.352,2216465808,599352,2,0.94336,0.21118,-0.04199,11.626,3.687,2.0
2026-06-01 16:55:26.552,2216466008,599552,1,0.88037,-0.18848,0.62573,21.977,-7.511,5.092
2026-06-01 16:55:26.552,2216466008,599552,2,1.00928,0.12524,0.0686,19.855,1.588,7.55
2026-06-01 16:55:26.752,2216466208,599752,1,0.90381,-0.19263,0.61133,6.489,-2.176,3.275
2026-06-01 16:55:26.752,2216466208,599752,2,1.00513,0.09058,0.073,-4.214,-1.901,0.557
2026-06-01 16:55:26.952,2216466408,599952,1,0.90771,-0.20264,0.62476,-20.809,6.305,-13.0
2026-06-01 16:55:26.952,2216466408,599952,2,1.0293,0.06885,0.07983,-14.328,-0.038,7.649
2026-06-01 16:55:27.152,2216466608,600152,1,0.95581,-0.15527,0.57983,-25.55,7.084,-11.008
2026-06-01 16:55:27.152,2216466608,600152,2,1.0061,0.01733,0.16089,-37.672,16.511,11.939
2026-06-01 16:55:27.352,2216466808,600352,1,0.79663,-0.42212,0.59131,-69.878,42.504,-29.046
2026-06-01 16:55:27.352,2216466808,600352,2,0.90234,-0.17407,0.18994,-69.489,19.748,-13.847
2026-06-01 16:55:27.552,2216467008,600552,1,0.8064,-0.58398,0.63037,18.954,-2.87,0.618
2026-06-01 16:55:27.552,2216467008,600552,2,0.94287,-0.29468,0.14624,36.786,-17.42,-4.985
2026-06-01 16:55:27.752,2216467208,600752,1,0.77905,-0.10083,0.64893,30.389,14.45,34.802
2026-06-01 16:55:27.752,2216467208,600752,2,0.67749,-0.19922,0.32959,48.176,16.672,21.26
2026-06-01 16:55:27.952,2216467408,600952,1,0.87329,-0.14722,0.71484,16.267,9.145,29.382
2026-06-01 16:55:27.952,2216467408,600952,2,0.96558,0.15845,0.00317,1.366,-14.237,-7.809
2026-06-01 16:55:28.152,2216467608,601152,1,0.85449,-0.14282,0.72095,5.595,-21.87,6.733
2026-06-01 16:55:28.152,2216467608,601152,2,0.8811,0.05762,0.20117,-2.26,-15.427,13.748
2026-06-01 16:55:28.352,2216467808,601352,1,0.85742,-0.26636,0.56714,-9.779,-8.931,-3.588
2026-06-01 16:55:28.352,2216467808,601352,2,1.09644,0.05835,0.05078,-4.198,-21.0,13.137
2026-06-01 16:55:28.552,2216468008,601552,1,0.88501,-0.28833,0.56641,-6.84,1.122,-2.695
2026-06-01 16:55:28.552,2216468008,601552,2,1.06543,-0.02612,0.01392,0.267,-0.802,-1.542
2026-06-01 16:55:28.752,2216468208,601752,1,0.9209,-0.28223,0.52954,1.191,-1.832,-0.809
2026-06-01 16:55:28.752,2216468208,601752,2,1.01416,-0.00439,0.06128,-13.313,-1.504,-6.092
2026-06-01 16:55:28.952,2216468408,601952,1,0.82593,-0.29517,0.61792,10.397,3.008,-5.168
2026-06-01 16:55:28.952,2216468408,601952,2,1.02856,-0.02197,0.06592,-5.977,-6.038,-0.748
2026-06-01 16:55:29.152,2216468608,602152,1,0.97388,-0.22241,0.5376,-0.74,-3.718,-6.351
2026-06-01 16:55:29.152,2216468608,602152,2,1.05054,-0.01074,-0.05371,3.008,-7.527,1.763
2026-06-01 16:55:29.352,2216468808,602352,1,0.94629,-0.22998,0.51172,-1.511,4.702,-0.802
2026-06-01 16:55:29.352,2216468808,602352,2,1.02686,-0.02319,-0.03394,3.763,-1.183,1.015
2026-06-01 16:55:29.552,2216469008,602552,1,0.98193,-0.22974,0.52173,-4.069,0.969,4.481
2026-06-01 16:55:29.552,2216469008,602552,2,1.03784,0.01611,0.00952,-6.992,13.924,2.901
2026-06-01 16:55:29.752,2216469208,602752,1,0.89746,-0.27832,0.58862,-7.679,8.374,-8.496
2026-06-01 16:55:29.752,2216469208,602752,2,1.03784,-0.04517,0.09717,-0.542,6.29,3.84
2026-06-01 16:55:29.952,2216469408,602952,1,0.90649,-0.2627,0.57593,-6.382,2.099,-6.916
2026-06-01 16:55:29.952,2216469408,602952,2,1.01074,-0.03784,0.08984,-3.489,0.58,6.0
2026-06-01 16:55:30.152,2216469608,603152,1,0.90747,-0.24146,0.57983,4.237,-2.557,1.885
2026-06-01 16:55:30.152,2216469608,603152,2,1.00049,-0.04199,0.11206,3.679,0.023,3.84
2026-06-01 16:55:30.352,2216469808,603352,1,0.91895,-0.25171,0.56274,-1.229,-1.84,2.901
2026-06-01 16:55:30.352,2216469808,603352,2,1.03516,-0.0481,0.05518,-5.489,-1.107,-1.137
2026-06-01 16:55:30.552,2216470008,603552,1,0.9165,-0.26904,0.5332,-13.412,23.061,5.977
2026-06-01 16:55:30.552,2216470008,603552,2,0.97217,-0.01807,0.05518,-28.588,21.038,-2.076
2026-06-01 16:55:30.757,2216470213,603757,1,0.91748,-0.17529,0.51782,-40.282,10.557,-2.435
2026-06-01 16:55:30.757,2216470213,603757,2,0.96802,-0.14307,0.11255,-26.557,57.725,6.305
2026-06-01 16:55:30.957,2216470413,603957,1,0.86646,-0.53345,0.55103,-42.473,37.718,-35.695
2026-06-01 16:55:30.957,2216470413,603957,2,0.88208,-0.24341,0.18018,-33.649,1.496,-11.718
2026-06-01 16:55:31.157,2216470613,604157,1,0.90552,-0.23633,0.7356,-28.511,14.679,-40.366
2026-06-01 16:55:31.157,2216470613,604157,2,1.01343,-0.23291,0.54858,-47.756,18.282,-0.969
2026-06-01 16:55:31.357,2216470813,604357,1,0.81299,-0.25293,0.59839,-24.977,2.557,-1.58
2026-06-01 16:55:31.357,2216470813,604357,2,0.97046,-0.03809,0.0957,-56.321,-1.756,-12.366
2026-06-01 16:55:31.557,2216471013,604557,1,0.88916,-0.29297,0.53418,-6.58,1.374,-9.656
2026-06-01 16:55:31.557,2216471013,604557,2,0.95728,0.02173,0.01489,-6.053,-13.863,-14.45
2026-06-01 16:55:31.757,2216471213,604757,1,0.83618,-0.41602,0.76978,-5.435,-11.031,-14.504
2026-06-01 16:55:31.757,2216471213,604757,2,0.76025,-0.04736,0.55713,-29.718,26.878,-31.641
2026-06-01 16:55:31.957,2216471413,604957,1,0.82007,-0.39404,0.61182,-39.71,36.084,-21.542
2026-06-01 16:55:31.957,2216471413,604957,2,0.92969,-0.13428,0.1897,-33.534,17.55,-2.511
2026-06-01 16:55:32.157,2216471613,605157,1,0.86938,-0.375,0.59814,-6.832,24.779,-10.733
2026-06-01 16:55:32.157,2216471613,605157,2,0.93408,-0.17017,0.26196,7.061,22.405,-4.305
2026-06-01 16:55:32.357,2216471813,605357,1,0.65503,-0.44775,0.68018,-24.023,-0.496,-4.977
2026-06-01 16:55:32.357,2216471813,605357,2,0.88916,-0.22192,0.14185,-28.595,-34.511,4.359
2026-06-01 16:55:32.557,2216472013,605557,1,0.82642,-0.33374,0.5896,-6.473,0.794,-26.374
2026-06-01 16:55:32.557,2216472013,605557,2,0.95093,0.04028,0.35547,46.611,24.084,-0.641
2026-06-01 16:55:32.757,2216472213,605757,1,0.86108,-0.23096,0.5437,0.527,7.672,2.397
2026-06-01 16:55:32.757,2216472213,605757,2,1.00952,0.13159,0.02612,-22.725,-3.817,-4.847
2026-06-01 16:55:32.957,2216472413,605957,1,0.80347,-0.13257,0.54053,-22.519,6.084,-7.794
2026-06-01 16:55:32.957,2216472413,605957,2,0.95093,-0.01587,0.0022,-27.863,-14.435,4.885
2026-06-01 16:55:33.157,2216472613,606157,1,0.80884,-0.33301,0.64258,-6.42,-2.466,7.511
2026-06-01 16:55:33.157,2216472613,606157,2,0.89722,0.01904,0.42529,-103.603,-8.58,-44.252
2026-06-01 16:55:33.357,2216472813,606357,1,0.75562,-0.35376,0.64673,-13.977,21.618,-13.023
2026-06-01 16:55:33.357,2216472813,606357,2,0.91138,-0.06665,0.18335,48.924,11.069,30.458
2026-06-01 16:55:33.557,2216473013,606557,1,0.85889,-0.33179,0.57397,21.504,-0.214,23.557
2026-06-01 16:55:33.557,2216473013,606557,2,0.97144,-0.13892,0.16431,9.916,7.58,-10.206
2026-06-01 16:55:33.757,2216473213,606757,1,0.87061,-0.38086,0.81934,-10.481,-29.779,-31.298
2026-06-01 16:55:33.757,2216473213,606757,2,1.42822,0.28198,0.38062,-40.305,13.916,-42.466
2026-06-01 16:55:33.957,2216473413,606957,1,0.85474,-0.23438,0.64038,-12.115,14.176,-20.443
2026-06-01 16:55:33.957,2216473413,606957,2,0.93188,-0.00122,0.1709,-21.565,-2.046,-23.641
2026-06-01 16:55:34.157,2216473613,607157,1,0.81079,-0.25513,0.55884,-2.473,6.26,-6.779
2026-06-01 16:55:34.157,2216473613,607157,2,0.90186,-0.06445,-0.01636,-34.0,-14.557,-32.298
2026-06-01 16:55:34.357,2216473813,607357,1,1.02148,-0.2207,0.67188,-33.802,-4.13,-10.336
2026-06-01 16:55:34.357,2216473813,607357,2,1.15771,0.17896,0.14355,-41.298,0.359,12.641
2026-06-01 16:55:34.557,2216474013,607557,1,0.84863,-0.31689,0.66162,-59.718,34.931,-38.557
2026-06-01 16:55:34.557,2216474013,607557,2,1.00488,-0.25024,0.10156,-53.092,13.198,13.641
2026-06-01 16:55:34.757,2216474213,607757,1,0.79175,-0.40015,0.54175,-5.137,18.756,2.092
2026-06-01 16:55:34.757,2216474213,607757,2,0.80371,-0.24756,0.11572,23.176,-12.191,9.405
2026-06-01 16:55:34.957,2216474413,607957,1,1.15015,-0.19141,0.72656,38.603,-12.748,34.076
2026-06-01 16:55:34.957,2216474413,607957,2,0.93896,0.03247,0.33228,25.664,9.916,69.26
2026-06-01 16:55:35.157,2216474613,608157,1,0.76196,-0.30054,0.67603,23.389,19.626,16.962
2026-06-01 16:55:35.157,2216474613,608157,2,0.97852,-0.06445,0.23047,-25.641,-12.534,-54.328
2026-06-01 16:55:35.357,2216474813,608357,1,0.88696,-0.18848,0.52417,-21.183,13.878,-8.252
2026-06-01 16:55:35.357,2216474813,608357,2,0.91968,0.0564,0.09204,-16.344,10.771,-8.336
2026-06-01 16:55:35.557,2216475013,608557,1,1.04077,-0.28833,0.74512,-9.588,1.321,7.221
2026-06-01 16:55:35.557,2216475013,608557,2,1.43823,0.03223,0.30273,11.305,13.687,12.504
2026-06-01 16:55:35.757,2216475213,608757,1,0.81689,-0.396,0.62183,-86.397,28.763,-74.771
2026-06-01 16:55:35.757,2216475213,608757,2,0.99512,-0.11621,0.40454,-78.435,23.641,9.122
2026-06-01 16:55:35.957,2216475413,608957,1,0.75537,-0.41187,0.56934,-61.748,37.046,-51.198
2026-06-01 16:55:35.957,2216475413,608957,2,0.80371,-0.3396,0.19189,-104.13,-7.214,14.794
2026-06-01 16:55:36.157,2216475613,609157,1,1.35449,-0.52075,0.66382,-10.58,-29.458,-38.115
2026-06-01 16:55:36.157,2216475613,609157,2,1.03711,-0.45435,0.29956,-12.695,-4.489,-18.328
2026-06-01 16:55:36.357,2216475813,609357,1,0.93799,-0.2251,0.66504,-1.122,22.321,5.573
2026-06-01 16:55:36.357,2216475813,609357,2,0.98608,-0.27368,0.12109,-38.802,17.641,-21.824
2026-06-01 16:55:36.557,2216476013,609557,1,0.67334,-0.34644,0.66187,9.115,-15.573,0.221
2026-06-01 16:55:36.557,2216476013,609557,2,1.01196,-0.14233,0.29321,1.107,-22.29,6.046
2026-06-01 16:55:36.757,2216476213,609757,1,0.93823,-0.34619,0.57007,122.038,-33.16,59.74
2026-06-01 16:55:36.757,2216476213,609757,2,1.12598,-0.26367,0.07764,123.992,-23.656,-6.397
2026-06-01 16:55:36.957,2216476413,609957,1,0.79883,-0.17334,0.73584,68.267,-11.786,35.252
2026-06-01 16:55:36.957,2216476413,609957,2,1.11426,,0.21143,64.489,12.107,21.702
2026-06-01 16:55:37.157,2216476613,610157,1,0.84619,-0.36743,0.53369,32.336,-7.473,23.206
2026-06-01 16:55:37.157,2216476613,610157,2,0.94702,-0.16284,0.24292,33.634,1.198,23.748
2026-06-01 16:55:37.357,2216476813,610357,1,0.77344,-0.36353,0.51904,67.496,-48.412,71.763
2026-06-01 16:55:37.357,2216476813,610357,2,1.61279,0.04956,0.31445,70.023,-57.061,48.618
2026-06-01 16:55:37.557,2216477013,610557,1,0.94263,-0.14551,0.39893,158.107,-16.809,103.847
2026-06-01 16:55:37.557,2216477013,610557,2,0.96191,0.33887,-0.09375,147.809,53.481,-25.985
2026-06-01 16:55:37.757,2216477213,610757,1,0.91406,0.03516,0.54761,74.221,-12.534,53.084
2026-06-01 16:55:37.757,2216477213,610757,2,0.93262,0.25732,0.18408,58.641,32.405,49.573
2026-06-01 16:55:37.957,2216477413,610957,1,0.72241,-0.6936,0.70923,25.069,-20.504,-4.046
2026-06-01 16:55:37.957,2216477413,610957,2,1.18994,-0.17334,0.36865,91.282,12.893,9.092
2026-06-01 16:55:38.157,2216477613,611157,1,0.64624,-0.4187,0.51392,90.672,-35.13,54.679
2026-06-01 16:55:38.157,2216477613,611157,2,0.98535,-0.15942,0.19897,132.015,-24.595,39.107
2026-06-01 16:55:38.357,2216477813,611357,1,1.125,-0.33618,0.81738,130.046,-37.473,89.969
2026-06-01 16:55:38.357,2216477813,611357,2,0.83472,0.57764,-0.21973,91.122,131.237,-35.511
2026-06-01 16:55:38.557,2216478013,611557,1,0.82153,-0.22192,0.62427,-10.473,26.504,5.863
2026-06-01 16:55:38.557,2216478013,611557,2,0.95605,0.08179,-0.00562,86.611,-6.885,40.992
2026-06-01 16:55:38.757,2216478213,611757,1,0.94434,-0.10376,0.71167,67.458,-17.13,33.725
2026-06-01 16:55:38.757,2216478213,611757,2,1.05811,0.02246,0.26001,41.916,0.893,21.641
2026-06-01 16:55:38.957,2216478413,611957,1,0.78125,-0.22046,0.68921,32.947,-16.45,22.321
2026-06-01 16:55:38.957,2216478413,611957,2,0.9707,0.03369,0.17505,10.26,-14.924,2.87
2026-06-01 16:55:39.157,2216478613,612157,1,0.85059,-0.30176,0.67725,9.359,-14.641,7.611
2026-06-01 16:55:39.157,2216478613,612157,2,1.17407,0.0437,0.0813,16.053,-24.473,4.092
2026-06-01 16:55:39.357,2216478813,612357,1,0.91064,-0.16479,0.55615,-20.382,-11.435,-11.137
2026-06-01 16:55:39.357,2216478813,612357,2,0.99658,-0.01099,0.08789,-32.282,0.053,9.191
2026-06-01 16:55:39.557,2216479013,612557,1,0.95361,-0.22388,0.5603,-29.298,14.069,-8.847
2026-06-01 16:55:39.557,2216479013,612557,2,1.00684,-0.03345,0.10718,-21.313,10.588,-0.786
2026-06-01 16:55:39.757,2216479213,612757,1,0.89868,-0.28125,0.56787,-33.565,20.573,-11.641
2026-06-01 16:55:39.757,2216479213,612757,2,1.00244,-0.073,0.12598,-43.13,11.107,-10.275
2026-06-01 16:55:39.957,2216479413,612957,1,0.89111,-0.3584,0.64331,-12.756,-6.534,-8.366
2026-06-01 16:55:39.957,2216479413,612957,2,1.00049,-0.06812,0.13281,-17.092,-14.847,-1.504
2026-06-01 16:55:40.157,2216479613,613157,1,0.89941,-0.20654,0.53613,-14.13,-10.443,-23.565
2026-06-01 16:55:40.157,2216479613,613157,2,1.02734,-0.06616,0.18994,-10.771,-0.29,4.893
2026-06-01 16:55:40.357,2216479813,613357,1,0.93042,-0.25146,0.54028,1.137,-3.298,4.053
2026-06-01 16:55:40.357,2216479813,613357,2,1.01196,-0.08691,0.1001,0.176,3.863,-9.527
2026-06-01 16:55:40.557,2216480013,613557,1,0.94897,-0.21606,0.54199,-2.336,1.618,-5.55
2026-06-01 16:55:40.557,2216480013,613557,2,1.03418,-0.09229,0.05713,-17.328,4.527,-9.298
2026-06-01 16:55:40.757,2216480213,613757,1,0.96729,-0.22632,0.52759,-12.511,13.214,-12.275
2026-06-01 16:55:40.757,2216480213,613757,2,1.01563,-0.05884,0.14429,6.84,9.931,-13.473
2026-06-01 16:55:40.957,2216480413,613957,1,0.88574,-0.19922,0.63501,13.252,14.244,1.29
2026-06-01 16:55:40.957,2216480413,613957,2,1.03784,-0.02148,0.08521,18.229,5.931,-1.244
2026-06-01 16:55:41.157,2216480613,614157,1,0.90576,-0.17383,0.61133,-3.809,5.496,-0.275
2026-06-01 16:55:41.157,2216480613,614157,2,0.99731,-0.00513,0.08008,1.985,3.664,0.55
2026-06-01 16:55:41.357,2216480813,614357,1,0.96997,-0.18921,0.59766,-10.229,-3.947,-4.229
2026-06-01 16:55:41.357,2216480813,614357,2,1.09253,-0.09009,0.17065,-11.771,-7.344,10.656
2026-06-01 16:55:41.557,2216481013,614557,1,0.90308,-0.19946,0.58545,-4.092,-11.282,-4.901
2026-06-01 16:55:41.557,2216481013,614557,2,1.0249,-0.07446,0.08154,-0.214,-4.137,6.992
2026-06-01 16:55:41.757,2216481213,614757,1,0.95825,-0.20874,0.54883,1.061,-7.45,-3.756
2026-06-01 16:55:41.757,2216481213,614757,2,1.04321,-0.05981,0.07739,-0.802,0.527,2.015
2026-06-01 16:55:41.957,2216481413,614957,1,0.94165,-0.18677,0.55273,-5.573,5.496,-2.924
2026-06-01 16:55:41.957,2216481413,614957,2,1.01538,-0.08447,0.07495,-12.084,-0.092,-0.405
2026-06-01 16:55:42.157,2216481613,615157,1,0.91724,-0.24976,0.57153,-0.366,8.939,2.122
2026-06-01 16:55:42.157,2216481613,615157,2,0.94482,0.01172,0.11328,-5.435,3.153,-5.008
2026-06-01 16:55:42.357,2216481813,615357,1,0.92017,-0.21729,0.56836,-13.603,1.664,-5.069
2026-06-01 16:55:42.357,2216481813,615357,2,1.052,-0.06787,0.05542,-5.794,-7.069,-3.763
2026-06-01 16:55:42.557,2216482013,615557,1,0.93579,-0.21875,0.55811,-8.748,1.611,-6.313
2026-06-01 16:55:42.557,2216482013,615557,2,1.02295,-0.07715,0.06787,-4.962,2.885,4.534
2026-06-01 16:55:42.757,2216482213,615757,1,0.92847,-0.23682,0.55762,-5.687,4.672,-1.771
2026-06-01 16:55:42.757,2216482213,615757,2,1.052,-0.10742,0.1167,-10.969,0.855,-1.519
2026-06-01 16:55:42.957,2216482413,615957,1,0.9436,-0.2561,0.55347,9.328,14.107,5.985
2026-06-01 16:55:42.957,2216482413,615957,2,1.07788,-0.08447,0.08423,-0.366,4.221,-8.038
2026-06-01 16:55:43.157,2216482613,616157,1,0.82251,-0.20972,0.60425,26.71,23.962,3.107
2026-06-01 16:55:43.157,2216482613,616157,2,0.93286,0.0896,0.05664,26.321,21.634,-17.931
2026-06-01 16:55:43.357,2216482813,616357,1,0.9043,-0.03711,0.69678,-14.87,22.45,-6.748
2026-06-01 16:55:43.357,2216482813,616357,2,1.00952,0.10034,-0.05664,-39.122,8.802,2.336
2026-06-01 16:55:43.557,2216483013,616557,1,1.16895,-0.22021,0.74023,-25.206,-2.786,-31.779
2026-06-01 16:55:43.557,2216483013,616557,2,0.75537,-0.05688,0.14893,-43.802,8.076,-20.183
2026-06-01 16:55:43.757,2216483213,616757,1,0.78833,-0.27148,0.84155,-20.038,4.015,-11.992
2026-06-01 16:55:43.757,2216483213,616757,2,1.03369,-0.09839,0.16211,-44.008,-13.565,17.107
2026-06-01 16:55:43.957,2216483413,616957,1,0.74268,-0.40259,0.62671,-33.092,-1.542,-7.679
2026-06-01 16:55:43.957,2216483413,616957,2,0.9436,-0.08984,0.25488,-21.328,-8.198,-1.588
2026-06-01 16:55:44.157,2216483613,617157,1,0.83984,-0.24683,0.57227,17.824,-17.0,0.229
2026-06-01 16:55:44.157,2216483613,617157,2,0.96191,-0.06714,0.29834,53.015,-5.069,36.275
2026-06-01 16:55:44.357,2216483813,617357,1,0.94653,-0.375,0.59961,26.13,0.542,10.542
2026-06-01 16:55:44.357,2216483813,617357,2,1.11206,-0.2312,0.02319,18.878,-11.45,6.863
2026-06-01 16:55:44.557,2216484013,617557,1,0.85278,-0.34766,0.5083,36.435,-1.947,25.153
2026-06-01 16:55:44.557,2216484013,617557,2,0.97534,-0.24609,0.22021,51.29,7.298,8.763
2026-06-01 16:55:44.757,2216484213,617757,1,0.78271,-0.48315,0.46997,96.542,-43.954,63.931
2026-06-01 16:55:44.757,2216484213,617757,2,0.90674,-0.33325,0.04834,125.397,-37.649,40.244
2026-06-01 16:55:44.957,2216484413,617957,1,1.03345,-0.25952,0.59692,137.053,-14.427,117.969
2026-06-01 16:55:44.957,2216484413,617957,2,0.97363,-0.11084,0.18481,216.153,-6.664,89.855
2026-06-01 16:55:45.157,2216484613,618157,1,0.70386,-0.13062,0.63647,121.244,-30.664,83.817
2026-06-01 16:55:45.157,2216484613,618157,2,0.83301,0.07324,0.14038,138.71,24.16,29.282
2026-06-01 16:55:45.357,2216484813,618357,1,0.89087,-0.20923,0.71265,91.901,-30.13,69.481
2026-06-01 16:55:45.357,2216484813,618357,2,1.12842,0.09668,0.14111,149.55,8.679,65.336
2026-06-01 16:55:45.557,2216485013,618557,1,0.75293,-0.19751,0.70093,94.26,-17.16,58.305
2026-06-01 16:55:45.557,2216485013,618557,2,1.17603,0.08008,0.37427,115.626,-6.237,22.84
2026-06-01 16:55:45.757,2216485213,618757,1,0.76953,-0.22632,0.76514,51.214,-17.336,24.42
2026-06-01 16:55:45.757,2216485213,618757,2,0.96362,-0.05615,0.26367,22.55,-10.046,19.389
2026-06-01 16:55:45.957,2216485413,618957,1,0.78052,-0.3457,0.5625,4.588,-31.305,24.489
2026-06-01 16:55:45.957,2216485413,618957,2,1.37695,-0.16748,0.03857,49.252,-39.244,72.382
2026-06-01 16:55:46.157,2216485613,619157,1,0.91382,-0.22339,0.55444,29.099,-19.672,18.794
2026-06-01 16:55:46.157,2216485613,619157,2,1.03174,0.08936,0.13672,16.13,2.725,8.244
2026-06-01 16:55:46.357,2216485813,619357,1,0.91602,-0.26221,0.6001,-9.389,13.405,-5.947
2026-06-01 16:55:46.357,2216485813,619357,2,1.01318,-0.06714,0.10132,-11.71,4.916,2.26
2026-06-01 16:55:46.557,2216486013,619557,1,0.8772,-0.30859,0.61475,-8.267,2.641,-2.076
2026-06-01 16:55:46.557,2216486013,619557,2,1.01782,-0.13867,0.09741,-16.26,2.748,-0.489
2026-06-01 16:55:46.757,2216486213,619757,1,0.88843,-0.302,0.59058,-7.763,-0.374,-0.863
2026-06-01 16:55:46.757,2216486213,619757,2,0.98682,-0.12061,0.10181,-15.977,-7.237,1.962
2026-06-01 16:55:46.957,2216486413,619957,1,0.91821,-0.31714,0.60498,-22.641,4.366,-5.74
2026-06-01 16:55:46.957,2216486413,619957,2,1.06714,-0.10059,0.10693,-14.588,5.435,3.496
2026-06-01 16:55:47.157,2216486613,620157,1,0.88354,-0.26807,0.552,-43.702,11.817,-16.496
2026-06-01 16:55:47.157,2216486613,620157,2,1.01855,-0.16431,0.10986,-30.641,6.336,14.84
2026-06-01 16:55:47.357,2216486813,620357,1,0.87866,-0.38843,0.53198,-4.893,5.695,-8.053
2026-06-01 16:55:47.357,2216486813,620357,2,1.03687,-0.18237,0.18677,-6.115,1.802,-8.244
2026-06-01 16:55:47.557,2216487013,620557,1,0.86426,-0.30005,0.60547,16.176,5.802,2.45
2026-06-01 16:55:47.557,2216487013,620557,2,0.99658,-0.2085,0.09375,-3.206,-4.198,-0.038
2026-06-01 16:55:47.757,2216487213,620757,1,0.8811,-0.30151,0.58179,12.908,-1.641,7.45
2026-06-01 16:55:47.757,2216487213,620757,2,0.98682,-0.1355,0.14258,8.786,-3.863,2.076
2026-06-01 16:55:47.957,2216487413,620957,1,0.87939,-0.33789,0.58691,16.092,-7.489,6.145
2026-06-01 16:55:47.957,2216487413,620957,2,1.01782,-0.1311,0.14185,13.58,-7.504,5.229
2026-06-01 16:55:48.157,2216487613,621157,1,0.90967,-0.302,0.57788,24.344,-2.763,12.519
2026-06-01 16:55:48.157,2216487613,621157,2,1.02734,-0.12646,0.09766,18.389,-1.359,0.092
2026-06-01 16:55:48.357,2216487813,621357,1,0.91235,-0.29907,0.57935,10.313,-1.603,4.962
2026-06-01 16:55:48.357,2216487813,621357,2,1.00928,-0.13501,0.09863,5.275,2.267,3.901
2026-06-01 16:55:48.557,2216488013,621557,1,0.91064,-0.38379,0.54224,-1.786,-0.901,-8.29
2026-06-01 16:55:48.557,2216488013,621557,2,1.01904,-0.09766,0.09619,-4.115,-12.038,-25.031
2026-06-01 16:55:48.757,2216488213,621757,1,0.99609,0.04834,0.55493,57.878,20.221,15.137
2026-06-01 16:55:48.757,2216488213,621757,2,1.07837,0.07861,-0.19531,25.908,11.733,-0.947
2026-06-01 16:55:48.957,2216488413,621957,1,0.98047,-0.10742,0.50562,-46.252,24.382,-18.817
2026-06-01 16:55:48.957,2216488413,621957,2,1.02954,0.02002,-0.04321,-45.015,26.191,-15.916
2026-06-01 16:55:49.157,2216488613,622157,1,0.86426,-0.40698,0.73975,-21.603,11.427,-47.977
2026-06-01 16:55:49.157,2216488613,622157,2,1.0542,0.01465,0.41943,-61.985,13.687,-24.702
2026-06-01 16:55:49.357,2216488813,622357,1,0.79321,-0.30078,0.65186,-79.321,47.847,-54.71
2026-06-01 16:55:49.357,2216488813,622357,2,1.07227,-0.15112,0.11353,-100.26,16.0,-4.29
2026-06-01 16:55:49.557,2216489013,622557,1,0.72046,-0.46143,0.67969,-71.885,44.748,-53.74
2026-06-01 16:55:49.557,2216489013,622557,2,0.84106,-0.23755,0.23975,-90.588,5.641,-26.634
2026-06-01 16:55:49.757,2216489213,622757,1,0.86377,-0.24365,0.83057,-51.519,-15.42,-60.557
2026-06-01 16:55:49.757,2216489213,622757,2,0.8147,-0.06006,0.29053,-92.74,-22.771,-39.496
2026-06-01 16:55:49.957,2216489413,622957,1,0.91699,-0.25757,0.63818,-67.817,12.588,-54.282
2026-06-01 16:55:49.957,2216489413,622957,2,1.04443,-0.07642,0.04517,-139.664,-5.84,-36.916
2026-06-01 16:55:50.157,2216489613,623157,1,0.8606,-0.22021,0.57788,-102.267,33.832,-67.015
2026-06-01 16:55:50.157,2216489613,623157,2,0.94116,-0.13086,-0.05225,-141.71,6.397,-22.389
2026-06-01 16:55:50.357,2216489813,623357,1,0.75269,-0.42358,0.56689,-92.29,18.763,-57.916
2026-06-01 16:55:50.357,2216489813,623357,2,0.86865,-0.31055,0.15479,-137.16,0.511,-38.466
2026-06-01 16:55:50.557,2216490013,623557,1,0.84424,-0.3645,0.67358,-61.267,42.053,-57.542
2026-06-01 16:55:50.557,2216490013,623557,2,0.90552,-0.22925,0.17432,-82.107,2.076,-13.71
2026-06-01 16:55:50.757,2216490213,623757,1,0.79028,-0.46143,0.6499,-45.458,18.275,-24.168
2026-06-01 16:55:50.757,2216490213,623757,2,0.8418,-0.23047,0.33813,-54.16,0.802,-16.649
2026-06-01 16:55:50.957,2216490413,623957,1,0.92383,-0.43994,0.78467,-6.099,-29.954,-1.718
2026-06-01 16:55:50.957,2216490413,623957,2,1.0293,0.01025,0.02612,-20.832,-0.824,-26.786
2026-06-01 16:55:51.157,2216490613,624157,1,0.84863,-0.28931,0.63257,-10.763,4.855,-8.954
2026-06-01 16:55:51.157,2216490613,624157,2,0.99805,0.03442,0.22168,-12.313,-12.298,-7.504
2026-06-01 16:55:51.357,2216490813,624357,1,0.86426,-0.22412,0.56616,-16.427,-5.893,-9.137
2026-06-01 16:55:51.357,2216490813,624357,2,0.97021,-0.00342,0.05859,-18.824,-13.947,9.405
2026-06-01 16:55:51.557,2216491013,624557,1,0.79834,-0.37256,0.62305,-12.099,8.397,-3.221
2026-06-01 16:55:51.557,2216491013,624557,2,0.97021,-0.04272,0.1189,8.939,-4.137,-5.344
2026-06-01 16:55:51.757,2216491213,624757,1,0.87671,-0.26465,0.64063,6.275,2.443,-1.634
2026-06-01 16:55:51.757,2216491213,624757,2,1.01147,-0.05933,0.16699,-17.42,-3.412,-4.076
2026-06-01 16:55:51.957,2216491413,624957,1,0.89746,-0.28564,0.5752,-12.489,19.55,-11.496
2026-06-01 16:55:51.957,2216491413,624957,2,1.04541,-0.08228,0.1582,-21.321,19.183,-13.885
2026-06-01 16:55:52.157,2216491613,625157,1,0.79663,-0.37329,0.70239,-14.626,23.29,-12.397
2026-06-01 16:55:52.157,2216491613,625157,2,0.96289,-0.11499,0.21973,-12.618,-0.962,-9.305
2026-06-01 16:55:52.357,2216491813,625357,1,0.83472,-0.35522,0.63062,5.244,-2.588,-2.702
2026-06-01 16:55:52.357,2216491813,625357,2,1.02197,-0.10498,0.21533,14.786,-4.099,-0.641
2026-06-01 16:55:52.557,2216492013,625557,1,0.80713,-0.24951,0.66162,5.496,3.931,-0.611
2026-06-01 16:55:52.557,2216492013,625557,2,1.09717,-0.07275,0.21582,6.947,-4.321,19.534
2026-06-01 16:55:52.757,2216492213,625757,1,0.83081,-0.22534,0.65088,22.611,-0.885,14.374
2026-06-01 16:55:52.757,2216492213,625757,2,0.9895,0.09058,0.0918,47.023,14.527,-10.198
2026-06-01 16:55:52.957,2216492413,625957,1,0.87451,-0.17383,0.64648,-10.344,-12.58,-0.573
2026-06-01 16:55:52.957,2216492413,625957,2,1.05493,-0.02026,0.08325,-3.458,-17.824,18.603
2026-06-01 16:55:53.157,2216492613,626157,1,0.84717,-0.33789,0.58398,-13.985,-6.466,-0.13
2026-06-01 16:55:53.157,2216492613,626157,2,1.00098,-0.09229,0.11377,-11.977,-16.817,2.84
2026-06-01 16:55:53.357,2216492813,626357,1,0.88428,-0.31177,0.58057,1.992,-6.214,1.901
2026-06-01 16:55:53.357,2216492813,626357,2,1.00757,-0.04346,0.10254,-15.435,-3.977,-2.992
2026-06-01 16:55:53.557,2216493013,626557,1,0.88501,-0.32617,0.54834,-1.901,3.435,-2.885
2026-06-01 16:55:53.557,2216493013,626557,2,1.00293,-0.07056,0.052,4.351,0.725,-5.221
2026-06-01 16:55:53.757,2216493213,626757,1,0.8999,-0.29956,0.56055,-2.321,-0.412,-0.74
2026-06-01 16:55:53.757,2216493213,626757,2,1.01587,-0.10547,0.09131,-5.244,-2.794,1.336
2026-06-01 16:55:53.957,2216493413,626957,1,0.92334,-0.29492,0.56055,-4.756,0.87,-3.672
2026-06-01 16:55:53.957,2216493413,626957,2,1.01758,-0.12354,0.10938,-8.061,-0.198,-2.244
2026-06-01 16:55:54.157,2216493613,627157,1,0.91284,-0.29443,0.55713,-1.779,2.0,-3.466
2026-06-01 16:55:54.157,2216493613,627157,2,1.01367,-0.12866,0.07642,-7.824,-1.771,-0.374
2026-06-01 16:55:54.357,2216493813,627357,1,0.93237,-0.29541,0.53784,-8.626,4.389,-3.267
2026-06-01 16:55:54.357,2216493813,627357,2,1.01538,-0.12622,0.0752,-9.0,-2.115,1.313
2026-06-01 16:55:54.557,2216494013,627557,1,0.93848,-0.29565,0.54248,-7.802,8.519,-3.58
2026-06-01 16:55:54.557,2216494013,627557,2,1.02246,-0.12744,0.08325,-12.481,1.16,-0.015
2026-06-01 16:55:54.757,2216494213,627757,1,0.91748,-0.27539,0.5354,-20.511,6.122,-10.679
2026-06-01 16:55:54.757,2216494213,627757,2,1.01929,-0.12354,0.0835,-27.702,1.366,-3.023
2026-06-01 16:55:54.957,2216494413,627957,1,0.91406,-0.29126,0.55688,-9.031,4.45,-7.168
2026-06-01 16:55:54.957,2216494413,627957,2,1.04614,-0.10254,0.08813,-7.366,4.527,-2.557
2026-06-01 16:55:55.157,2216494613,628157,1,0.91577,-0.28271,0.55347,-2.748,3.351,-4.855
2026-06-01 16:55:55.157,2216494613,628157,2,1.00879,-0.11426,0.08447,-4.382,0.458,0.122
2026-06-01 16:55:55.357,2216494813,628357,1,0.91064,-0.28076,0.5437,-3.656,1.962,-2.084
2026-06-01 16:55:55.357,2216494813,628357,2,1.00928,-0.1377,0.08301,-5.763,1.046,-0.13
2026-06-01 16:55:55.557,2216495013,628557,1,0.92798,-0.28467,0.53882,1.061,0.519,-0.023
2026-06-01 16:55:55.557,2216495013,628557,2,1.01538,-0.1311,0.07983,1.321,0.137,1.962
2026-06-01 16:55:55.757,2216495213,628757,1,0.9187,-0.2854,0.55103,0.58,0.611,-0.794
2026-06-01 16:55:55.757,2216495213,628757,2,1.01172,-0.13062,0.07251,-1.099,0.87,0.504
2026-06-01 16:55:55.957,2216495413,628957,1,0.92651,-0.29077,0.52637,1.611,0.634,-0.565
2026-06-01 16:55:55.957,2216495413,628957,2,1.01123,-0.14233,0.08545,0.13,-0.198,1.405
2026-06-01 16:55:56.157,2216495613,629157,1,0.92285,-0.29492,0.53247,6.427,-1.321,2.718
2026-06-01 16:55:56.157,2216495613,629157,2,1.01074,-0.14844,0.06714,4.824,1.267,-0.137
2026-06-01 16:55:56.357,2216495813,629357,1,0.92041,-0.29858,0.54175,4.611,-1.153,0.947
2026-06-01 16:55:56.357,2216495813,629357,2,1.01001,-0.10718,0.09521,-4.74,-3.42,1.198
2026-06-01 16:55:56.557,2216496013,629557,1,0.92236,-0.28345,0.54199,4.389,1.55,2.565
2026-06-01 16:55:56.557,2216496013,629557,2,1.01245,-0.13745,0.06055,4.397,-0.275,2.573
2026-06-01 16:55:56.757,2216496213,629757,1,0.91064,-0.28369,0.55615,5.305,-0.664,3.649
2026-06-01 16:55:56.757,2216496213,629757,2,1.00513,-0.13525,0.08789,1.679,0.122,0.191
2026-06-01 16:55:56.957,2216496413,629957,1,0.92822,-0.32227,0.50708,5.702,-2.267,2.153
2026-06-01 16:55:56.957,2216496413,629957,2,1.02271,-0.18726,0.06226,4.809,-3.061,-2.489
2026-06-01 16:55:57.157,2216496613,630157,1,0.93188,-0.27222,0.54346,37.137,-6.992,16.527
2026-06-01 16:55:57.157,2216496613,630157,2,1.0293,-0.09082,0.04395,23.786,-4.824,6.618
2026-06-01 16:55:57.357,2216496813,630357,1,0.93677,-0.26709,0.53735,9.992,-1.817,8.626
2026-06-01 16:55:57.357,2216496813,630357,2,1.01636,-0.10376,0.0647,3.031,-2.16,6.962
2026-06-01 16:55:57.557,2216497013,630557,1,0.97705,-0.35815,0.47412,-6.298,11.931,-1.588
2026-06-01 16:55:57.557,2216497013,630557,2,1.0083,-0.11279,0.08008,7.374,9.412,-11.901
2026-06-01 16:55:57.757,2216497213,630757,1,0.94604,-0.12012,0.60669,-13.427,17.939,-2.321
2026-06-01 16:55:57.757,2216497213,630757,2,0.97803,-0.07642,-0.10864,-33.221,-0.504,-3.832
2026-06-01 16:55:57.992,2216497448,630991,1,0.80713,-0.42529,0.62817,-30.229,21.374,-11.282
2026-06-01 16:55:57.992,2216497448,630991,2,0.93726,-0.03784,0.24121,-91.557,9.26,-39.878
2026-06-01 16:55:58.191,2216497647,631191,1,0.80469,-0.44507,0.66187,-40.382,18.489,-20.481
2026-06-01 16:55:58.191,2216497647,631191,2,0.94141,-0.16431,0.17749,-47.13,2.557,3.397
2026-06-01 16:55:58.391,2216497847,631391,1,0.79028,-0.37354,0.62646,-20.29,-10.137,-11.855
2026-06-01 16:55:58.391,2216497847,631391,2,1.02197,-0.06567,-0.00293,-15.42,-21.046,6.176
2026-06-01 16:55:58.591,2216498047,631591,1,0.89038,-0.35156,0.54077,-3.16,3.947,5.557
2026-06-01 16:55:58.591,2216498047,631591,2,0.99609,-0.00073,0.11182,-8.122,0.55,-7.115
2026-06-01 16:55:58.791,2216498247,631791,1,0.90527,-0.35791,0.54688,-8.702,0.282,-3.267
2026-06-01 16:55:58.791,2216498247,631791,2,1.02368,-0.11499,0.0918,-1.718,-0.382,-0.221
2026-06-01 16:55:58.991,2216498447,631991,1,0.89624,-0.36108,0.56445,5.267,1.733,0.878
2026-06-01 16:55:58.991,2216498447,631991,2,1.02661,-0.10815,0.13013,-3.748,0.466,-5.191
2026-06-01 16:55:59.191,2216498647,632191,1,0.87134,-0.33813,0.57983,3.183,5.076,-1.374
2026-06-01 16:55:59.191,2216498647,632191,2,1.01343,-0.09912,0.12231,1.244,-0.649,0.328
2026-06-01 16:55:59.391,2216498847,632391,1,0.87817,-0.33228,0.58276,2.847,2.237,-0.015
2026-06-01 16:55:59.391,2216498847,632391,2,1.00781,-0.0957,0.13257,4.267,-0.962,1.214
2026-06-01 16:55:59.591,2216499047,632591,1,0.89429,-0.33472,0.57544,2.099,-0.519,-0.977
2026-06-01 16:55:59.591,2216499047,632591,2,1.00977,-0.09204,0.12769,-1.718,-1.366,0.954
2026-06-01 16:55:59.791,2216499247,632791,1,0.89307,-0.32593,0.57275,-0.611,0.405,-0.603
2026-06-01 16:55:59.791,2216499247,632791,2,1.00879,-0.09546,0.12671,-1.519,-0.847,1.389
2026-06-01 16:55:59.991,2216499447,632991,1,0.89697,-0.33618,0.56787,0.099,1.176,-0.023
2026-06-01 16:55:59.991,2216499447,632991,2,1.0,-0.0896,0.12402,-1.634,0.244,1.023
2026-06-01 16:56:00.191,2216499647,633191,1,0.89771,-0.33594,0.56226,0.275,2.038,-0.099
2026-06-01 16:56:00.191,2216499647,633191,2,1.01611,-0.09253,0.11035,-2.305,-0.16,0.168
2026-06-01 16:56:00.391,2216499847,633391,1,0.89648,-0.33716,0.55615,-1.916,2.832,-1.977
2026-06-01 16:56:00.391,2216499847,633391,2,1.00952,-0.08862,0.11035,-5.786,-0.626,0.198
2026-06-01 16:56:00.591,2216500047,633591,1,0.90259,-0.3396,0.56201,-2.16,2.145,-2.29
2026-06-01 16:56:00.591,2216500047,633591,2,1.02075,-0.09717,0.11719,-3.786,1.366,-0.58
2026-06-01 16:56:00.791,2216500247,633791,1,0.89111,-0.33301,0.56006,0.176,2.863,-0.42
2026-06-01 16:56:00.791,2216500247,633791,2,1.01733,-0.09912,0.12329,-0.58,-0.214,1.954
2026-06-01 16:56:00.991,2216500447,633991,1,0.88843,-0.34082,0.5603,1.809,1.809,0.847
2026-06-01 16:56:00.991,2216500447,633991,2,1.01099,-0.09521,0.10791,-1.466,0.832,0.313
2026-06-01 16:56:01.191,2216500647,634191,1,0.88989,-0.33667,0.56299,2.053,2.786,0.511
2026-06-01 16:56:01.191,2216500647,634191,2,1.00146,-0.10425,0.12622,0.931,1.824,1.206
2026-06-01 16:56:01.391,2216500847,634391,1,0.8938,-0.35376,0.57349,5.481,-0.656,-0.389
2026-06-01 16:56:01.391,2216500847,634391,2,1.00903,-0.11816,0.11841,5.511,-0.992,1.275
2026-06-01 16:56:01.591,2216501047,634591,1,0.90405,-0.3396,0.56104,8.786,-2.71,3.176
2026-06-01 16:56:01.591,2216501047,634591,2,1.00977,-0.10547,0.10767,6.618,-1.542,0.733
2026-06-01 16:56:01.791,2216501247,634791,1,0.89014,-0.33838,0.56128,6.74,-1.756,1.473
2026-06-01 16:56:01.791,2216501247,634791,2,1.01904,-0.09131,0.11963,4.641,-1.908,1.305
2026-06-01 16:56:01.991,2216501447,634991,1,0.8938,-0.32349,0.56177,6.053,-0.947,0.771
2026-06-01 16:56:01.991,2216501447,634991,2,1.00708,-0.08032,0.1084,3.962,-0.519,-0.29
2026-06-01 16:56:02.191,2216501647,635191,1,0.91113,-0.31616,0.54224,-1.55,-1.374,-6.947
2026-06-01 16:56:02.191,2216501647,635191,2,1.0022,-0.10449,0.10156,-2.26,-4.817,1.71
2026-06-01 16:56:02.391,2216501847,635391,1,0.92358,-0.37036,0.49292,71.076,-25.168,30.42
2026-06-01 16:56:02.391,2216501847,635391,2,1.00977,-0.10547,0.03687,45.42,2.511,1.458
2026-06-01 16:56:02.591,2216502047,635591,1,0.92383,-0.27515,0.55103,23.115,0.863,9.145
2026-06-01 16:56:02.591,2216502047,635591,2,1.01929,-0.07446,0.07422,22.122,0.298,1.626
2026-06-01 16:56:02.791,2216502247,635791,1,0.90308,-0.27344,0.56152,16.221,-1.191,6.84
2026-06-01 16:56:02.791,2216502247,635791,2,1.01831,-0.07129,0.08862,9.176,-4.397,0.45
2026-06-01 16:56:02.991,2216502447,635991,1,0.91626,-0.27026,0.56982,5.87,4.336,1.565
2026-06-01 16:56:02.991,2216502447,635991,2,1.02051,-0.06226,0.08423,5.466,-1.802,4.26
2026-06-01 16:56:03.191,2216502647,636191,1,0.91211,-0.25952,0.57349,-7.878,3.969,-6.672
2026-06-01 16:56:03.191,2216502647,636191,2,1.02002,-0.0708,0.07251,-7.008,-1.794,4.137
2026-06-01 16:56:03.391,2216502847,636391,1,0.90454,-0.26563,0.59521,-8.511,3.718,-4.336
2026-06-01 16:56:03.391,2216502847,636391,2,1.01807,-0.07495,0.0835,-9.809,0.489,3.481
2026-06-01 16:56:03.591,2216503047,636591,1,0.89819,-0.27222,0.58081,-10.939,2.519,-4.573
2026-06-01 16:56:03.591,2216503047,636591,2,1.01465,-0.10205,0.07959,-10.183,-1.244,4.511
2026-06-01 16:56:03.791,2216503247,636791,1,0.90405,-0.29419,0.56689,-5.198,0.405,-2.282
2026-06-01 16:56:03.791,2216503247,636791,2,1.00781,-0.10815,0.08521,-8.885,-0.282,2.656
2026-06-01 16:56:03.991,2216503447,636991,1,0.91382,-0.30078,0.56763,-0.817,7.359,-1.359
2026-06-01 16:56:03.991,2216503447,636991,2,1.01392,-0.11938,0.07544,-4.977,-1.458,1.435
2026-06-01 16:56:04.191,2216503647,637191,1,0.90332,-0.29443,0.57007,-4.42,6.626,-4.107
2026-06-01 16:56:04.191,2216503647,637191,2,1.03076,-0.12402,0.06812,-5.221,4.794,-2.328
2026-06-01 16:56:04.391,2216503847,637391,1,0.89258,-0.28613,0.59546,-2.962,6.443,-4.542
2026-06-01 16:56:04.391,2216503847,637391,2,1.00513,-0.12427,0.09253,-5.893,2.244,-1.244
2026-06-01 16:56:04.591,2216504047,637591,1,0.89551,-0.28638,0.59253,-1.779,4.947,-3.969
2026-06-01 16:56:04.591,2216504047,637591,2,1.0249,-0.11646,0.09253,-6.389,1.275,-1.855
2026-06-01 16:56:04.791,2216504247,637791,1,0.88696,-0.26978,0.61206,-3.939,-0.252,-0.641
2026-06-01 16:56:04.791,2216504247,637791,2,1.00342,-0.09033,0.11792,-17.397,0.832,-2.015
2026-06-01 16:56:04.991,2216504447,637991,1,0.88013,-0.28076,0.61841,-15.115,1.565,1.359
2026-06-01 16:56:04.991,2216504447,637991,2,1.01367,-0.0896,0.09985,-12.992,1.885,1.435
2026-06-01 16:56:05.191,2216504647,638191,1,0.8877,-0.3208,0.58838,-7.802,3.649,-2.672
2026-06-01 16:56:05.191,2216504647,638191,2,1.00977,-0.12036,0.10571,-10.267,-1.282,1.313
2026-06-01 16:56:05.391,2216504847,638391,1,0.88965,-0.32129,0.58472,-4.725,2.618,-1.992
2026-06-01 16:56:05.391,2216504847,638391,2,1.06543,-0.08203,0.08081,-8.947,1.015,-3.115
2026-06-01 16:56:05.591,2216505047,638591,1,0.8894,-0.33643,0.58008,-1.321,3.252,-0.511
2026-06-01 16:56:05.591,2216505047,638591,2,0.9729,-0.12573,0.13501,-3.954,1.695,1.099
2026-06-01 16:56:05.791,2216505247,638791,1,0.8811,-0.3457,0.58179,2.969,2.649,0.115
2026-06-01 16:56:05.791,2216505247,638791,2,1.00806,-0.11084,0.11182,1.802,1.55,-1.527
2026-06-01 16:56:05.991,2216505447,638991,1,0.88403,-0.32861,0.59058,2.55,1.412,0.031
2026-06-01 16:56:05.991,2216505447,638991,2,1.01294,-0.1123,0.10425,1.565,-0.435,1.885
2026-06-01 16:56:06.191,2216505647,639191,1,0.89258,-0.34058,0.58203,0.534,1.435,0.244
2026-06-01 16:56:06.191,2216505647,639191,2,1.01196,-0.10815,0.11255,-0.229,0.771,0.794
2026-06-01 16:56:06.391,2216505847,639391,1,0.88062,-0.32422,0.5874,-0.908,2.802,2.122
2026-06-01 16:56:06.391,2216505847,639391,2,1.01172,-0.10376,0.10889,-3.275,3.198,0.542
2026-06-01 16:56:06.591,2216506047,639591,1,0.86987,-0.35522,0.58936,-0.718,4.382,1.115
2026-06-01 16:56:06.591,2216506047,639591,2,0.99927,-0.09985,0.13037,-4.634,1.687,-1.351
2026-06-01 16:56:06.791,2216506247,639791,1,0.86255,-0.34912,0.59668,-2.466,3.176,-2.695
2026-06-01 16:56:06.791,2216506247,639791,2,1.01123,-0.10913,0.13696,-2.489,0.672,1.718
2026-06-01 16:56:06.991,2216506447,639991,1,0.87158,-0.35498,0.5769,-1.183,1.076,-1.489
2026-06-01 16:56:06.991,2216506447,639991,2,1.00269,-0.11548,0.11768,-1.771,1.565,-0.229
2026-06-01T16:56:07.638528,,,,,,,,,
2026-06-01 16:56:07.191,2216506647,640191,1,0.86865,-0.34814,0.58716,5.107,-4.443,0.443
2026-06-01 16:56:07.191,2216506647,640191,2,1.00049,-0.11841,0.16333,3.992,-4.55,7.099
2026-06-01 16:56:07.391,2216506847,640391,1,0.89844,-0.36084,0.57251,10.817,-2.542,-0.641
2026-06-01 16:56:07.391,2216506847,640391,2,1.00562,-0.13818,0.125,11.527,-1.626,0.634
2026-06-01 16:56:07.591,2216507047,640591,1,0.90308,-0.31226,0.58032,15.496,-2.122,4.053
2026-06-01 16:56:07.591,2216507047,640591,2,1.00366,-0.12695,0.12988,10.443,-1.435,-1.389
2026-06-01 16:56:07.791,2216507247,640791,1,0.89014,-0.30566,0.58398,18.489,-3.145,7.466
2026-06-01 16:56:07.791,2216507247,640791,2,1.01758,-0.11572,0.09961,15.321,-2.092,-0.588
2026-06-01 16:56:07.991,2216507447,640991,1,0.87964,-0.29443,0.59546,16.809,-2.863,5.282
2026-06-01 16:56:07.991,2216507447,640991,2,1.0083,-0.07593,0.10962,13.885,-0.366,-1.641
2026-06-01 16:56:08.191,2216507647,641191,1,0.90088,-0.29102,0.58228,9.954,-0.679,3.16
2026-06-01 16:56:08.191,2216507647,641191,2,1.02295,-0.09302,0.08472,9.618,-4.29,1.13
2026-06-01 16:56:08.391,2216507847,641391,1,0.89746,-0.27637,0.59619,8.473,-0.725,0.969
2026-06-01 16:56:08.391,2216507847,641391,2,1.00977,-0.06787,0.08765,0.534,-1.863,-0.748
2026-06-01 16:56:08.591,2216508047,641591,1,0.90063,-0.27417,0.58936,11.137,-1.878,6.626
2026-06-01 16:56:08.591,2216508047,641591,2,1.00537,-0.07227,0.09521,5.031,-1.496,3.191
2026-06-01 16:56:08.791,2216508247,641791,1,0.88794,-0.28345,0.5835,6.214,-0.45,4.099
2026-06-01 16:56:08.791,2216508247,641791,2,1.01074,-0.07935,0.0979,1.328,-2.069,2.901
2026-06-01 16:56:08.991,2216508447,641991,1,0.90503,-0.29395,0.58203,-5.992,0.863,-1.313
2026-06-01 16:56:08.991,2216508447,641991,2,1.01782,-0.09277,0.07422,-4.527,-10.42,9.153
2026-06-01 16:56:09.191,2216508647,642191,1,0.92627,-0.30664,0.55005,-8.443,3.412,-2.344
2026-06-01 16:56:09.191,2216508647,642191,2,1.03833,-0.15112,0.02075,-15.458,-6.534,3.542
2026-06-01 16:56:09.629,2216509085,642629,1,0.90649,-0.27539,0.54443,-18.977,6.481,-8.71
2026-06-01 16:56:09.629,2216509085,642629,2,1.07056,-0.14404,0.04346,-6.992,9.985,-5.641
2026-06-01 16:56:09.829,2216509285,642829,1,0.85254,-0.32446,0.55225,-3.832,15.817,-8.466
2026-06-01 16:56:09.829,2216509285,642829,2,1.07495,-0.06763,-0.04443,-27.924,-2.221,-39.878
2026-06-01 16:56:09.029,2216508485,643029,1,0.896,-0.15894,0.5979,19.359,2.595,-1.588
2026-06-01 16:56:09.029,2216508485,643029,2,0.95996,0.00513,0.03345,-7.817,10.29,-16.542
2026-06-01 16:56:10.229,2216509685,643229,1,1.01855,-0.18799,0.62305,-17.435,3.847,-16.336
2026-06-01 16:56:10.229,2216509685,643229,2,1.06592,-0.0022,0.04053,-12.397,-12.29,-6.26
2026-06-01 16:56:10.057,2216509513,644057,1,0.95703,-0.32544,0.72339,-3.145,30.611,5.565
2026-06-01 16:56:10.057,2216509513,644057,2,0.9353,-0.13086,-0.01514,-2.557,-3.786,8.885
2026-06-01 16:56:11.257,2216510713,644257,1,1.0354,-0.30029,0.57568,9.252,4.122,21.763
2026-06-01 16:56:11.257,2216510713,644257,2,0.94189,-0.10156,0.17065,18.779,1.435,14.611
2026-06-01 16:56:11.457,2216510913,644457,1,0.85059,-0.23755,0.6062,13.298,7.779,10.519
2026-06-01 16:56:11.457,2216510913,644457,2,1.04834,-0.05884,0.12085,12.649,4.397,8.008
2026-06-01 16:56:11.657,2216511113,644657,1,0.80469,-0.22876,0.69727,21.771,-5.763,24.901
2026-06-01 16:56:11.657,2216511113,644657,2,1.00269,-0.03369,0.05298,-23.855,-22.45,-1.122
2026-06-01 16:56:11.857,2216511313,644857,1,1.06909,-0.27246,0.61719,14.802,-20.794,-0.718
2026-06-01 16:56:11.857,2216511313,644857,2,0.98779,-0.05591,-0.03027,-0.42,-30.573,7.87
2026-06-01 16:56:11.057,2216510513,645057,1,0.92334,-0.24023,0.52759,18.908,-16.206,2.443
2026-06-01 16:56:11.057,2216510513,645057,2,1.0354,-0.16479,0.02637,9.351,-11.481,3.916
2026-06-01 16:56:12.257,2216511713,645257,1,0.96387,-0.23804,0.53052,7.321,-3.191,-2.481
2026-06-01 16:56:12.257,2216511713,645257,2,1.0188,-0.12109,-0.01611,15.153,-4.45,7.008
2026-06-01 16:56:12.457,2216511913,645457,1,0.94434,-0.25562,0.50293,7.481,-5.153,2.527
2026-06-01 16:56:12.457,2216511913,645457,2,1.06934,-0.15698,-0.021,-4.229,-4.206,1.985
2026-06-01 16:56:12.657,2216512113,645657,1,0.94824,-0.26416,0.51001,-7.504,1.366,-1.908
2026-06-01 16:56:12.657,2216512113,645657,2,1.01807,-0.13794,0.00342,-7.771,0.145,1.405
2026-06-01 16:56:12.857,2216512313,645857,1,0.97534,-0.24902,0.47681,-8.588,4.244,-3.153
2026-06-01 16:56:12.857,2216512313,645857,2,1.03076,-0.17407,-0.03076,-4.924,3.733,0.031
2026-06-01 16:56:12.057,2216511513,646057,1,0.9519,-0.24316,0.50537,-0.779,3.443,2.878
2026-06-01 16:56:12.057,2216511513,646057,2,1.02808,-0.16113,-0.01025,-5.916,-4.458,0.435
2026-06-01 16:56:13.257,2216512713,646257,1,0.94165,-0.29663,0.48242,4.389,1.214,-0.557
2026-06-01 16:56:13.257,2216512713,646257,2,1.01025,-0.14624,0.01807,-0.076,4.855,-5.954
2026-06-01 16:56:13.457,2216512913,646457,1,0.95044,-0.25903,0.50244,1.061,2.046,2.763
2026-06-01 16:56:13.457,2216512913,646457,2,1.02051,-0.146,-0.00415,2.275,0.206,3.443
2026-06-01 16:56:13.657,2216513113,646657,1,0.95386,-0.2771,0.48999,3.435,2.221,1.878
2026-06-01 16:56:13.657,2216513113,646657,2,1.01855,-0.15308,0.00073,-1.802,-0.771,
2026-06-01 16:56:13.857,2216513313,646857,1,0.94727,-0.25952,0.51001,-0.405,0.397,-1.198
2026-06-01 16:56:13.857,2216513313,646857,2,1.01904,-0.13428,0.01221,-6.206,0.626,0.191
2026-06-01 16:56:13.057,2216512513,647057,1,0.96118,-0.27661,0.49805,-10.656,4.466,-3.527
2026-06-01 16:56:13.057,2216512513,647057,2,1.02686,-0.18237,-0.00171,-12.046,3.214,-0.298
2026-06-01 16:56:14.257,2216513713,647257,1,0.93555,-0.28882,0.49536,-3.786,2.252,-0.87
2026-06-01 16:56:14.257,2216513713,647257,2,1.0105,-0.1687,0.01563,-1.206,2.282,-1.313
2026-06-01 16:56:14.525,2216513981,647525,1,0.94287,-0.28735,0.49683,4.534,1.672,0.405
2026-06-01 16:56:14.525,2216513981,647525,2,1.01343,-0.13794,0.00684,5.74,2.947,1.305
2026-06-01 16:56:14.765,2216514221,647765,1,0.93921,-0.28979,0.50635,7.786,-1.641,1.702
2026-06-01 16:56:14.765,2216514221,647765,2,1.0144,-0.14673,0.02759,3.084,-1.443,-0.985
2026-06-01 16:56:14.965,2216514421,647965,1,0.92725,-0.27515,0.50122,8.13,-0.053,-0.313
2026-06-01 16:56:14.965,2216514421,647965,2,1.01318,-0.13403,0.02686,3.221,-0.168,-3.939
2026-06-01 16:56:15.165,2216514621,648165,1,0.9436,-0.2583,0.50684,3.931,-0.672,-1.672
2026-06-01 16:56:15.165,2216514621,648165,2,1.02026,-0.11597,0.00781,-0.16,-2.275,-2.985
2026-06-01 16:56:15.365,2216514821,648365,1,0.94385,-0.21484,0.53247,6.863,3.748,-2.595
2026-06-01 16:56:15.365,2216514821,648365,2,1.01953,-0.09521,0.01147,0.763,1.038,-1.076
2026-06-01 16:56:15.565,2216515021,648565,1,0.97485,-0.18774,0.50317,-7.695,12.55,-3.626
2026-06-01 16:56:15.565,2216515021,648565,2,1.01416,-0.09131,0.04932,-5.473,6.618,-3.061
2026-06-01 16:56:15.765,2216515221,648765,1,0.91699,-0.27441,0.56079,-3.359,11.557,7.344
2026-06-01 16:56:15.765,2216515221,648765,2,1.00537,-0.05908,0.09985,-7.779,18.366,-4.718
2026-06-01 16:56:15.965,2216515421,648965,1,0.89648,-0.23145,0.61816,2.183,12.29,3.908
2026-06-01 16:56:15.965,2216515421,648965,2,0.94604,0.01709,0.07983,-21.374,-21.458,6.198
2026-06-01 16:56:16.165,2216515621,649165,1,0.88623,-0.29102,0.5979,-15.137,2.191,-6.29
2026-06-01 16:56:16.165,2216515621,649165,2,0.99707,-0.11597,0.1228,-9.962,8.107,1.947
2026-06-01 16:56:16.365,2216515821,649365,1,0.90332,-0.28857,0.56812,-6.244,1.771,-5.137
2026-06-01 16:56:16.365,2216515821,649365,2,0.9978,-0.12549,0.12524,-4.71,-0.26,0.351
2026-06-01 16:56:16.565,2216516021,649565,1,0.8999,-0.29297,0.58105,9.321,0.496,2.832
2026-06-01 16:56:16.565,2216516021,649565,2,1.03516,-0.13818,0.09229,2.733,-5.107,-1.733
2026-06-01 16:56:16.765,2216516221,649765,1,0.9043,-0.2522,0.58472,5.382,4.282,-2.13
2026-06-01 16:56:16.765,2216516221,649765,2,1.00879,-0.12329,0.09937,6.786,-2.176,-1.618
2026-06-01 16:56:16.965,2216516421,649965,1,0.89917,-0.23486,0.60059,10.55,0.168,3.168
2026-06-01 16:56:16.965,2216516421,649965,2,1.01855,-0.12915,0.09546,12.176,-1.718,3.191
2026-06-01 16:56:17.266,2216516722,650265,1,0.91553,-0.2356,0.58618,11.603,0.405,5.0
2026-06-01 16:56:17.266,2216516722,650265,2,1.01367,-0.10522,0.07788,16.0,-1.466,1.099
2026-06-01 16:56:17.465,2216516921,650465,1,0.91089,-0.22925,0.59985,11.84,1.435,7.397
2026-06-01 16:56:17.465,2216516921,650465,2,1.01709,-0.10107,0.06299,9.977,-0.092,1.664
2026-06-01 16:56:17.665,2216517121,650665,1,0.90527,-0.23145,0.58838,5.29,-5.557,-0.076
2026-06-01 16:56:17.665,2216517121,650665,2,1.00879,-0.09375,0.06323,2.977,-0.824,-0.092
2026-06-01 16:56:17.865,2216517321,650865,1,0.91748,-0.23267,0.57788,3.641,0.466,2.695
2026-06-01 16:56:17.865,2216517321,650865,2,1.02319,-0.09814,0.06104,-4.649,-0.847,1.519
2026-06-01 16:56:17.065,2216516521,651065,1,0.90234,-0.25049,0.59546,-6.084,4.397,-2.336
2026-06-01 16:56:17.065,2216516521,651065,2,1.02002,-0.10229,0.06104,-5.679,-0.481,-0.183
2026-06-01 16:56:18.265,2216517721,651265,1,0.93921,-0.24219,0.56226,-10.305,-0.718,-12.496
2026-06-01 16:56:18.265,2216517721,651265,2,1.00928,-0.11084,0.06055,-10.626,1.382,2.046
2026-06-01 16:56:18.465,2216517921,651465,1,0.97046,-0.28857,0.59497,1.542,-1.481,-3.878
2026-06-01 16:56:18.465,2216517921,651465,2,1.00879,-0.1123,0.06494,-7.687,1.527,0.466
2026-06-01 16:56:18.665,2216518121,651665,1,0.90601,-0.24829,0.59619,-5.122,0.847,-1.008
2026-06-01 16:56:18.665,2216518121,651665,2,1.01514,-0.11401,0.06836,-3.26,0.328,1.214
2026-06-01 16:56:18.865,2216518321,651865,1,0.9231,-0.2522,0.5813,0.313,1.046,0.534
2026-06-01 16:56:18.865,2216518321,651865,2,1.01196,-0.13452,0.07007,0.351,0.641,0.344
2026-06-01 16:56:18.065,2216517521,652065,1,0.91113,-0.25391,0.57275,2.336,0.405,0.046
2026-06-01 16:56:18.065,2216517521,652065,2,1.01416,-0.12036,0.05762,0.84,-0.473,0.84
2026-06-01 16:56:19.265,2216518721,652265,1,0.91895,-0.24072,0.58472,0.244,-0.435,-0.74
2026-06-01 16:56:19.265,2216518721,652265,2,1.01538,-0.12036,0.05884,-3.099,-1.092,0.397
2026-06-01 16:56:19.465,2216518921,652465,1,0.91187,-0.25,0.57861,-0.55,0.374,-0.939
2026-06-01 16:56:19.465,2216518921,652465,2,1.01733,-0.12402,0.05737,-3.328,-0.397,0.74
2026-06-01 16:56:19.853,2216519309,652853,1,0.91772,-0.25122,0.56006,1.0,1.893,-0.359
2026-06-01 16:56:19.853,2216519309,652853,2,1.00415,-0.12988,0.05933,0.046,1.847,0.496
2026-06-01 16:56:19.053,2216518509,653053,1,0.9248,-0.24756,0.56738,1.412,0.748,-0.466
2026-06-01 16:56:19.053,2216518509,653053,2,1.01245,-0.1272,0.06396,-0.58,1.527,-0.176
2026-06-01 16:56:20.253,2216519709,653253,1,0.927,-0.2439,0.57104,0.824,2.519,-0.031
2026-06-01 16:56:20.253,2216519709,653253,2,1.01831,-0.1106,0.05518,-0.718,0.824,-0.214
2026-06-01 16:56:20.453,2216519909,653453,1,0.9187,-0.24609,0.56689,1.847,1.84,0.321
2026-06-01 16:56:20.453,2216519909,653453,2,1.02563,-0.11182,0.05884,-1.061,0.229,0.305
2026-06-01 16:56:20.653,2216520109,653653,1,0.91895,-0.25146,0.57617,1.939,0.489,0.42
2026-06-01 16:56:20.653,2216520109,653653,2,1.01587,-0.12476,0.06836,1.824,-0.595,1.366
2026-06-01 16:56:20.875,2216520331,653875,1,0.91479,-0.24878,0.56812,3.244,-0.298,0.489
2026-06-01 16:56:20.875,2216520331,653875,2,1.02344,-0.12354,0.06104,1.351,-0.519,0.916
2026-06-01 16:56:20.075,2216519531,654075,1,0.92651,-0.25049,0.55957,3.397,0.053,0.695
2026-06-01 16:56:20.075,2216519531,654075,2,1.01929,-0.11816,0.0498,2.076,0.023,0.588
2026-06-01 16:56:21.275,2216520731,654275,1,0.92407,-0.24561,0.55518,6.466,-0.611,2.359
2026-06-01 16:56:21.275,2216520731,654275,2,1.01904,-0.11523,0.06641,3.718,-0.931,-0.885
2026-06-01 16:56:21.475,2216520931,654475,1,0.92651,-0.24683,0.55688,6.702,-0.069,2.473
2026-06-01 16:56:21.475,2216520931,654475,2,1.01318,-0.11914,0.05591,4.397,-0.458,1.061
2026-06-01 16:56:21.675,2216521131,654675,1,0.92676,-0.24951,0.55542,4.878,0.229,1.305
2026-06-01 16:56:21.675,2216521131,654675,2,1.01611,-0.10742,0.04761,2.779,-0.725,1.282
2026-06-01 16:56:21.875,2216521331,654875,1,0.93091,-0.24121,0.55444,4.588,0.695,1.863
2026-06-01 16:56:21.875,2216521331,654875,2,1.02661,-0.10107,0.0542,-0.924,1.412,-0.16
2026-06-01 16:56:22.135,2216521591,655135,1,0.93066,-0.23511,0.55127,0.649,1.725,-1.008
2026-06-01 16:56:22.135,2216521591,655135,2,1.02051,-0.10986,0.05811,-2.908,0.802,-0.137
2026-06-01 16:56:22.335,2216521791,655335,1,0.93335,-0.23853,0.54077,0.092,2.191,-0.74
2026-06-01 16:56:22.335,2216521791,655335,2,1.02002,-0.1084,0.05493,-2.298,0.947,-0.42
2026-06-01 16:56:22.535,2216521991,655535,1,0.93188,-0.2417,0.55615,0.198,2.595,-0.656
2026-06-01 16:56:22.535,2216521991,655535,2,1.0166,-0.10571,0.04639,-1.229,0.237,0.634
2026-06-01 16:56:22.735,2216522191,655735,1,0.93091,-0.24097,0.55396,-3.176,3.901,-2.275
2026-06-01 16:56:22.735,2216522191,655735,2,1.01563,-0.10254,0.05078,-4.099,1.58,0.252
2026-06-01 16:56:22.935,2216522391,655935,1,0.93237,-0.23901,0.55981,-4.916,2.695,-2.672
2026-06-01 16:56:22.935,2216522391,655935,2,1.01978,-0.1123,0.05615,-5.71,1.069,0.626
2026-06-01 16:56:23.135,2216522591,656135,1,0.92456,-0.24707,0.56177,-4.58,2.435,-2.008
2026-06-01 16:56:23.135,2216522591,656135,2,1.02173,-0.11353,0.04443,-3.015,0.702,2.053
2026-06-01 16:56:23.335,2216522791,656335,1,0.91846,-0.25635,0.56299,-0.298,1.931,-1.664
2026-06-01 16:56:23.335,2216522791,656335,2,1.02393,-0.11035,0.05957,-0.466,0.794,-0.359
2026-06-01 16:56:23.535,2216522991,656535,1,0.9231,-0.24707,0.55615,1.817,1.87,-0.519
2026-06-01 16:56:23.535,2216522991,656535,2,1.01709,-0.11328,0.05542,0.824,0.504,0.336
2026-06-01 16:56:23.735,2216523191,656735,1,0.92383,-0.24146,0.5564,2.702,2.13,-0.008
2026-06-01 16:56:23.735,2216523191,656735,2,1.0249,-0.0979,0.05811,-1.672,0.725,-0.824
2026-06-01 16:56:23.935,2216523391,656935,1,0.92896,-0.24634,0.55933,2.26,-0.191,-0.405
2026-06-01 16:56:23.935,2216523391,656935,2,1.01587,-0.09985,0.05493,-1.191,-0.634,-0.137
2026-06-01 16:56:24.135,2216523591,657135,1,0.92773,-0.23242,0.54761,-0.237,-1.282,0.534
2026-06-01 16:56:24.135,2216523591,657135,2,1.02002,-0.10107,0.05127,-4.771,0.031,0.916
2026-06-01 16:56:24.335,2216523791,657335,1,0.93774,-0.24951,0.55225,-3.74,0.397,-0.641
2026-06-01 16:56:24.335,2216523791,657335,2,1.01001,-0.11597,0.04663,-6.206,1.099,1.58
2026-06-01 16:56:24.535,2216523991,657535,1,0.9292,-0.24756,0.54224,-5.145,2.038,-1.214
2026-06-01 16:56:24.535,2216523991,657535,2,1.01587,-0.1189,0.04321,-8.885,0.55,2.26
2026-06-01 16:56:24.735,2216524191,657735,1,0.93408,-0.25903,0.53052,-7.458,2.183,-4.824
2026-06-01 16:56:24.735,2216524191,657735,2,1.0127,-0.1228,0.04199,-11.122,0.634,0.695
2026-06-01 16:56:24.935,2216524391,657935,1,0.93848,-0.26367,0.53687,-8.198,1.664,-7.298
2026-06-01 16:56:24.935,2216524391,657935,2,1.01904,-0.12915,0.052,-10.176,1.038,0.076
2026-06-01 16:56:25.135,2216524591,658135,1,0.94189,-0.2627,0.52344,-1.435,1.931,-2.382
2026-06-01 16:56:25.135,2216524591,658135,2,1.02026,-0.12256,0.0437,-1.878,2.321,0.992
2026-06-01 16:56:25.335,2216524791,658335,1,0.94165,-0.26465,0.52222,0.748,1.763,-0.885
2026-06-01 16:56:25.335,2216524791,658335,2,1.02148,-0.1272,0.04834,-0.794,1.069,-1.305
2026-06-01 16:56:25.535,2216524991,658535,1,0.9353,-0.24487,0.53613,1.985,1.824,0.244
2026-06-01 16:56:25.535,2216524991,658535,2,1.02002,-0.12134,0.04517,0.443,0.863,0.076
2026-06-01 16:56:25.735,2216525191,658735,1,0.94214,-0.24316,0.53296,0.061,3.359,-1.924
2026-06-01 16:56:25.735,2216525191,658735,2,1.0249,-0.12305,0.04297,-2.504,1.794,-0.908
2026-06-01 16:56:25.935,2216525391,658935,1,0.95093,-0.24805,0.52783,-0.107,4.542,-1.725
2026-06-01 16:56:25.935,2216525391,658935,2,1.02441,-0.10791,0.05981,-2.473,1.542,0.45
2026-06-01 16:56:26.135,2216525591,659135,1,0.94385,-0.23364,0.54077,-5.679,5.092,-2.481
2026-06-01 16:56:26.135,2216525591,659135,2,1.00928,-0.13086,0.05298,-0.061,3.954,0.282
2026-06-01 16:56:26.335,2216525791,659335,1,0.9248,-0.21631,0.56836,-1.145,5.382,0.779
2026-06-01 16:56:26.335,2216525791,659335,2,1.01587,-0.13086,0.05396,-2.374,3.511,2.893
2026-06-01 16:56:26.535,2216525991,659535,1,0.93115,-0.25952,0.5481,-0.084,4.168,0.015
2026-06-01 16:56:26.535,2216525991,659535,2,1.01538,-0.12915,0.06909,2.573,5.046,-1.573
2026-06-01 16:56:26.735,2216526191,659735,1,0.91748,-0.26367,0.56006,-0.824,4.13,-1.618
2026-06-01 16:56:26.735,2216526191,659735,2,1.01636,-0.12451,0.06958,0.389,1.84,0.252
2026-06-01 16:56:26.935,2216526391,659935,1,0.90479,-0.24976,0.57178,1.817,1.992,0.237
2026-06-01 16:56:26.935,2216526391,659935,2,1.0105,-0.10864,0.0791,-0.046,-0.084,-0.046
2026-06-01 16:56:27.135,2216526591,660135,1,0.92505,-0.25171,0.56396,-3.473,1.58,-1.55
2026-06-01 16:56:27.135,2216526591,660135,2,1.02002,-0.12598,0.07617,-5.137,-2.282,3.824
2026-06-01 16:56:27.335,2216526791,660335,1,0.92676,-0.24707,0.55078,-1.26,5.244,-0.74
2026-06-01 16:56:27.335,2216526791,660335,2,1.03101,-0.13062,0.05786,0.885,-0.397,2.084
2026-06-01 16:56:27.535,2216526991,660535,1,0.91528,-0.24365,0.57446,-0.275,4.092,-0.626
2026-06-01 16:56:27.535,2216526991,660535,2,0.99951,-0.12988,0.06787,-3.221,0.916,0.672
2026-06-01 16:56:27.735,2216527191,660735,1,0.90723,-0.25293,0.59253,-1.58,2.443,
2026-06-01 16:56:27.735,2216527191,660735,2,1.01001,-0.13037,0.0603,-4.359,-0.29,1.321
2026-06-01 16:56:27.935,2216527391,660935,1,0.91797,-0.25,0.57837,0.405,0.427,0.252
2026-06-01 16:56:27.935,2216527391,660935,2,1.01782,-0.12939,0.07202,-1.847,0.13,0.718
2026-06-01 16:56:28.135,2216527591,661135,1,0.91479,-0.25464,0.58203,0.725,1.092,-0.511
2026-06-01 16:56:28.135,2216527591,661135,2,1.01636,-0.13452,0.06714,-0.916,0.649,0.763
2026-06-01 16:56:28.357,2216527813,661357,1,0.92065,-0.25513,0.57275,1.267,1.84,-0.435
2026-06-01 16:56:28.357,2216527813,661357,2,1.01514,-0.12622,0.06396,-3.008,0.756,0.031
2026-06-01 16:56:28.557,2216528013,661557,1,0.91528,-0.24634,0.57764,1.336,1.557,-0.397
2026-06-01 16:56:28.557,2216528013,661557,2,1.01367,-0.13403,0.06885,-2.802,0.244,0.489
2026-06-01 16:56:28.757,2216528213,661757,1,0.90991,-0.24951,0.57202,0.679,1.359,
2026-06-01 16:56:28.757,2216528213,661757,2,1.02124,-0.13086,0.05444,-1.511,-1.42,1.489
2026-06-01 16:56:28.957,2216528413,661957,1,0.91895,-0.25464,0.5791,0.718,2.031,0.328
2026-06-01 16:56:28.957,2216528413,661957,2,1.01099,-0.12695,0.06689,-1.504,-0.099,0.802
2026-06-01 16:56:29.157,2216528613,662157,1,0.91162,-0.25562,0.58179,1.16,2.466,0.58
2026-06-01 16:56:29.157,2216528613,662157,2,1.02344,-0.12939,0.05933,0.458,1.809,-0.664
2026-06-01 16:56:29.357,2216528813,662357,1,0.92236,-0.25586,0.58765,14.137,2.718,12.168
2026-06-01 16:56:29.357,2216528813,662357,2,1.0022,-0.146,0.06323,3.954,5.786,-4.924
2026-06-01 16:56:29.557,2216529013,662557,1,0.88989,-0.3042,0.59766,14.565,0.183,13.687
2026-06-01 16:56:29.557,2216529013,662557,2,0.99902,-0.12524,0.08423,14.527,1.718,3.985
2026-06-01 16:56:29.757,2216529213,662757,1,0.88867,-0.30762,0.59351,14.626,-1.794,15.443
2026-06-01 16:56:29.757,2216529213,662757,2,1.01367,-0.12183,0.07837,17.229,1.053,3.023
2026-06-01 16:56:29.957,2216529413,662957,1,0.87012,-0.31982,0.59082,11.183,-4.779,8.794
2026-06-01 16:56:29.957,2216529413,662957,2,1.01221,-0.10889,0.09619,9.687,-0.031,1.061
2026-06-01 16:56:30.157,2216529613,663157,1,0.88916,-0.33423,0.57153,6.412,-7.008,2.191
2026-06-01 16:56:30.157,2216529613,663157,2,1.01147,-0.10083,0.0874,-2.969,-4.061,1.55
2026-06-01 16:56:30.414,2216529870,663414,1,0.88525,-0.32666,0.56641,0.679,-5.252,1.824
2026-06-01 16:56:30.414,2216529870,663414,2,1.02783,-0.11279,0.05664,1.0,-1.611,2.656
2026-06-01 16:56:30.614,2216530070,663614,1,0.91333,-0.33521,0.54639,-0.962,-2.611,-3.771
2026-06-01 16:56:30.614,2216530070,663614,2,1.02173,-0.11182,0.06567,-2.565,-3.0,1.42
2026-06-01 16:56:30.814,2216530270,663814,1,0.91187,-0.32959,0.5415,-5.137,0.405,-8.489
2026-06-01 16:56:30.814,2216530270,663814,2,1.00562,-0.12646,0.05566,-3.962,-0.55,0.321
2026-06-01 16:56:30.014,2216529470,664014,1,0.9165,-0.30347,0.53735,-2.557,1.534,-3.84
2026-06-01 16:56:30.014,2216529470,664014,2,1.01636,-0.12451,0.0542,-3.084,-2.008,0.679
2026-06-01 16:56:31.214,2216530670,664214,1,0.92432,-0.30957,0.52881,-3.466,3.16,-1.237
2026-06-01 16:56:31.214,2216530670,664214,2,1.02783,-0.11963,0.04321,-4.603,-0.481,2.817
2026-06-01 16:56:31.414,2216530870,664414,1,0.91895,-0.31641,0.53809,-2.214,5.756,-2.847
2026-06-01 16:56:31.414,2216530870,664414,2,1.02246,-0.13867,0.01855,0.275,1.336,-1.275
2026-06-01 16:56:31.614,2216531070,664614,1,0.91821,-0.30249,0.53418,2.458,5.267,-1.412
2026-06-01 16:56:31.614,2216531070,664614,2,1.01685,-0.125,0.03711,1.107,0.641,-1.374
2026-06-01 16:56:31.814,2216531270,664814,1,0.90552,-0.30371,0.56421,3.603,4.969,0.405
2026-06-01 16:56:31.814,2216531270,664814,2,1.02832,-0.12109,0.03491,1.702,1.481,-0.985
2026-06-01 16:56:31.014,2216530470,665014,1,0.90015,-0.29907,0.57422,3.687,5.13,1.061
2026-06-01 16:56:31.014,2216530470,665014,2,1.00732,-0.11401,0.05225,0.275,2.328,-0.71
2026-06-01 16:56:32.214,2216531670,665214,1,0.8894,-0.28687,0.59131,1.87,3.519,0.282
2026-06-01 16:56:32.214,2216531670,665214,2,1.02319,-0.10132,0.05664,-1.763,1.542,0.046
2026-06-01 16:56:32.414,2216531870,665414,1,0.89038,-0.29932,0.5896,0.847,1.267,0.542
2026-06-01 16:56:32.414,2216531870,665414,2,1.04053,-0.1001,0.05786,-3.519,1.878,-0.969
2026-06-01 16:56:32.614,2216532070,665614,1,0.89966,-0.30396,0.57422,0.687,1.908,1.29
2026-06-01 16:56:32.614,2216532070,665614,2,1.01758,-0.11182,0.04932,-6.366,0.42,0.397
2026-06-01 16:56:32.887,2216532343,665887,1,0.89282,-0.29932,0.58008,-4.679,1.901,-3.305
2026-06-01 16:56:32.887,2216532343,665887,2,1.01514,-0.12183,0.0564,-7.511,1.397,0.55
2026-06-01 16:56:32.087,2216531543,666087,1,0.88525,-0.31152,0.58838,-5.786,2.87,-5.847
2026-06-01 16:56:32.087,2216531543,666087,2,1.02173,-0.1311,0.05786,-7.45,-0.023,-0.13
2026-06-01 16:56:33.287,2216532743,666287,1,0.88257,-0.29956,0.61963,2.565,3.519,-1.443
2026-06-01 16:56:33.287,2216532743,666287,2,1.01538,-0.12769,0.05078,-0.183,2.542,0.603
2026-06-01 16:56:33.487,2216532943,666487,1,0.89111,-0.3125,0.57983,-3.221,0.008,-1.786
2026-06-01 16:56:33.487,2216532943,666487,2,1.0166,-0.13379,0.05664,0.588,0.198,2.153
2026-06-01 16:56:33.687,2216533143,666687,1,0.90552,-0.31152,0.55811,0.183,-0.45,-0.244
2026-06-01 16:56:33.687,2216533143,666687,2,1.02002,-0.13867,0.06104,1.107,-3.802,4.435
2026-06-01 16:56:33.887,2216533343,666887,1,0.91162,-0.31323,0.55884,3.061,3.847,0.336
2026-06-01 16:56:33.887,2216533343,666887,2,1.02148,-0.13721,0.04858,1.481,1.641,-0.405
2026-06-01 16:56:33.087,2216532543,667087,1,0.89771,-0.29736,0.5708,2.008,5.076,0.55
2026-06-01 16:56:33.087,2216532543,667087,2,1.01538,-0.13062,0.04199,-1.076,-0.382,0.916
2026-06-01 16:56:34.287,2216533743,667287,1,0.89575,-0.29907,0.59229,1.069,2.0,-0.122
2026-06-01 16:56:34.287,2216533743,667287,2,1.01831,-0.13086,0.04907,-0.733,1.26,0.534
2026-06-01 16:56:34.487,2216533943,667487,1,0.87378,-0.29346,0.58032,0.641,0.26,1.802
2026-06-01 16:56:34.487,2216533943,667487,2,1.00854,-0.12354,0.05664,0.84,-0.397,1.015
2026-06-01 16:56:34.687,2216534143,667687,1,0.89722,-0.31152,0.5835,2.733,3.229,0.71
2026-06-01 16:56:34.687,2216534143,667687,2,1.01318,-0.1228,0.05737,2.511,0.336,-0.13
2026-06-01 16:56:34.887,2216534343,667887,1,0.87988,-0.30176,0.6001,1.695,2.405,-0.58
2026-06-01 16:56:34.887,2216534343,667887,2,1.01855,-0.11499,0.06177,-0.542,-0.069,0.282
2026-06-01 16:56:34.087,2216533543,668087,1,0.88965,-0.2981,0.58643,-0.885,2.252,-1.55
2026-06-01 16:56:34.087,2216533543,668087,2,1.01953,-0.13306,0.05884,-2.473,1.084,-0.282
2026-06-01 16:56:35.325,2216534781,668325,1,0.89209,-0.30591,0.59131,1.412,2.366,-1.42
2026-06-01 16:56:35.325,2216534781,668325,2,1.01563,-0.12402,0.0647,-0.916,1.206,-0.084
2026-06-01 16:56:35.525,2216534981,668525,1,0.89209,-0.28979,0.60742,1.206,2.992,-1.435
2026-06-01 16:56:35.525,2216534981,668525,2,1.01807,-0.11108,0.06689,-0.832,0.374,0.656
2026-06-01 16:56:35.725,2216535181,668725,1,0.87549,-0.28857,0.61401,0.473,3.084,-0.84
2026-06-01 16:56:35.725,2216535181,668725,2,1.00806,-0.11279,0.07397,-1.489,1.099,1.305
2026-06-01 16:56:35.925,2216535381,668925,1,0.87988,-0.28003,0.61133,-1.832,1.695,-2.336
2026-06-01 16:56:35.925,2216535381,668925,2,1.01343,-0.10718,0.08618,-2.969,2.214,0.16
2026-06-01 16:56:36.125,2216535581,669125,1,0.88208,-0.29272,0.60889,-2.153,3.336,-2.672
2026-06-01 16:56:36.125,2216535581,669125,2,1.02051,-0.1123,0.08203,-1.504,0.618,0.092
2026-06-01 16:56:36.325,2216535781,669325,1,0.88477,-0.29102,0.61694,-0.16,2.359,-1.931
2026-06-01 16:56:36.325,2216535781,669325,2,1.01611,-0.11597,0.07837,0.908,-0.053,0.344
2026-06-01 16:56:36.525,2216535981,669525,1,0.88989,-0.28296,0.61108,1.0,1.389,-0.992
2026-06-01 16:56:36.525,2216535981,669525,2,1.01953,-0.11426,0.07202,1.527,-0.244,0.832
2026-06-01 16:56:36.725,2216536181,669725,1,0.89063,-0.28052,0.60815,3.221,1.374,1.466
2026-06-01 16:56:36.725,2216536181,669725,2,1.01611,-0.11279,0.06543,1.618,-0.565,0.565
2026-06-01 16:56:36.925,2216536381,669925,1,0.88477,-0.28003,0.61157,4.321,0.679,2.061
2026-06-01 16:56:36.925,2216536381,669925,2,1.01196,-0.09863,0.07129,2.71,0.344,0.13
2026-06-01 16:56:37.125,2216536581,670125,1,0.88892,-0.27979,0.60669,2.382,0.473,-0.771
2026-06-01 16:56:37.125,2216536581,670125,2,1.02881,-0.10938,0.05469,0.824,-0.84,0.275
2026-06-01 16:56:37.325,2216536781,670325,1,0.90186,-0.27002,0.6106,-0.458,1.061,-1.649
2026-06-01 16:56:37.325,2216536781,670325,2,1.01294,-0.11279,0.06958,-4.618,-0.221,-0.115
2026-06-01 16:56:37.525,2216536981,670525,1,0.89502,-0.27148,0.59839,-2.55,1.947,-2.313
2026-06-01 16:56:37.525,2216536981,670525,2,1.01465,-0.10767,0.08032,-2.656,1.13,1.351
2026-06-01 16:56:37.725,2216537181,670725,1,0.89526,-0.27783,0.59814,-1.977,1.695,-1.702
2026-06-01 16:56:37.725,2216537181,670725,2,1.00439,-0.11694,0.07471,-1.985,0.924,1.16
2026-06-01 16:56:37.925,2216537381,670925,1,0.89282,-0.28442,0.59985,0.305,1.687,0.557
2026-06-01 16:56:37.925,2216537381,670925,2,1.01392,-0.11865,0.07422,-1.992,0.374,0.336
2026-06-01 16:56:38.125,2216537581,671125,1,0.89063,-0.28516,0.60034,1.275,1.878,0.405
2026-06-01 16:56:38.125,2216537581,671125,2,1.02417,-0.10815,0.07275,0.183,1.351,0.229
2026-06-01 16:56:38.325,2216537781,671325,1,0.89331,-0.2832,0.59619,1.183,1.672,-0.183
2026-06-01 16:56:38.325,2216537781,671325,2,1.01367,-0.10645,0.06494,-1.557,-0.046,0.565
2026-06-01 16:56:38.525,2216537981,671525,1,0.89282,-0.28418,0.59741,0.641,0.305,0.137
2026-06-01 16:56:38.525,2216537981,671525,2,1.02295,-0.11011,0.06934,0.137,-0.336,1.084
2026-06-01 16:56:38.725,2216538181,671725,1,0.88501,-0.27539,0.60767,1.42,1.542,-0.443
2026-06-01 16:56:38.725,2216538181,671725,2,1.0166,-0.10278,0.05933,-0.504,-1.229,0.977
2026-06-01 16:56:38.925,2216538381,671925,1,0.88916,-0.27661,0.61279,-1.168,2.473,-4.198
2026-06-01 16:56:38.925,2216538381,671925,2,0.97388,-0.12256,0.07568,-2.374,5.573,-2.481
2026-06-01 16:56:39.125,2216538581,672125,1,0.88721,-0.26978,0.61182,-3.198,-0.198,-2.718
2026-06-01 16:56:39.125,2216538581,672125,2,1.01147,-0.11768,0.06323,-3.26,3.595,-0.122
2026-06-01 16:56:39.325,2216538781,672325,1,0.90161,-0.28198,0.5896,-0.863,0.061,0.183
2026-06-01 16:56:39.325,2216538781,672325,2,1.01733,-0.10986,0.06616,-4.443,-0.176,0.863
2026-06-01 16:56:39.525,2216538981,672525,1,0.90918,-0.28052,0.57593,0.947,2.313,0.626
2026-06-01 16:56:39.525,2216538981,672525,2,1.00977,-0.10938,0.07275,-1.092,0.939,0.969
2026-06-01 16:56:39.753,2216539209,672753,1,0.89819,-0.28125,0.58618,-0.214,3.42,-1.618
2026-06-01 16:56:39.753,2216539209,672753,2,1.01416,-0.11426,0.0752,-1.328,1.084,0.504
2026-06-01 16:56:39.953,2216539409,672953,1,0.89404,-0.2749,0.59375,-1.015,3.015,-2.718
2026-06-01 16:56:39.953,2216539409,672953,2,1.01782,-0.11572,0.0647,-4.824,-0.298,0.176
2026-06-01 16:56:40.153,2216539609,673153,1,0.89575,-0.2915,0.58984,2.443,0.321,-3.481
2026-06-01 16:56:40.153,2216539609,673153,2,1.03735,-0.12085,0.05957,-4.611,-0.878,1.603
2026-06-01 16:56:40.353,2216539809,673353,1,0.90161,-0.28052,0.58936,-2.588,4.252,-1.481
2026-06-01 16:56:40.353,2216539809,673353,2,1.01489,-0.11841,0.06982,-2.947,1.481,0.313
2026-06-01 16:56:40.553,2216540009,673553,1,0.89478,-0.27832,0.58813,-0.076,4.092,-1.878
2026-06-01 16:56:40.553,2216540009,673553,2,1.02466,-0.12012,0.05713,-2.206,-0.282,-0.313
2026-06-01 16:56:40.753,2216540209,673753,1,0.88843,-0.27783,0.59644,-0.015,2.985,-1.893
2026-06-01 16:56:40.753,2216540209,673753,2,1.01123,-0.12207,0.05664,-1.076,0.847,0.443
2026-06-01 16:56:40.953,2216540409,673953,1,0.9021,-0.27246,0.5874,1.092,2.733,-0.359
2026-06-01 16:56:40.953,2216540409,673953,2,1.02148,-0.12842,0.05908,-1.618,3.45,-1.252
2026-06-01 16:56:41.153,2216540609,674153,1,0.89551,-0.25146,0.60107,-3.214,-4.191,-2.718
2026-06-01 16:56:41.153,2216540609,674153,2,1.00684,-0.09204,0.0813,4.183,5.786,-0.847
2026-06-01 16:56:41.353,2216540809,674353,1,0.89795,-0.27295,0.59717,-10.84,-2.74,-5.87
2026-06-01 16:56:41.353,2216540809,674353,2,1.00439,-0.13257,0.08374,-14.038,-0.206,6.328
2026-06-01 16:56:41.553,2216541009,674553,1,0.93604,-0.27979,0.54614,-11.13,-2.229,-7.435
2026-06-01 16:56:41.553,2216541009,674553,2,1.02222,-0.14722,0.08276,-10.969,-1.504,3.168
2026-06-01 16:56:41.753,2216541209,674753,1,0.92651,-0.29053,0.53662,-6.931,3.305,-5.763
2026-06-01 16:56:41.753,2216541209,674753,2,1.01709,-0.16309,0.07593,-5.389,1.099,0.267
2026-06-01 16:56:41.953,2216541409,674953,1,0.92993,-0.27393,0.53271,0.603,3.939,-2.817
2026-06-01 16:56:41.953,2216541409,674953,2,1.01123,-0.14648,0.09131,-0.733,-2.115,0.046
2026-06-01 16:56:42.223,2216541679,675223,1,0.91797,-0.27075,0.5542,2.863,0.634,-0.031
2026-06-01 16:56:42.223,2216541679,675223,2,1.01831,-0.14697,0.08447,-0.42,1.191,0.206
2026-06-01 16:56:42.423,2216541879,675423,1,0.93335,-0.26782,0.53491,0.382,3.099,-1.16
2026-06-01 16:56:42.423,2216541879,675423,2,1.02588,-0.14453,0.07593,-1.595,0.863,-0.893
2026-06-01 16:56:42.623,2216542079,675623,1,0.93164,-0.26953,0.54541,7.947,5.748,4.099
2026-06-01 16:56:42.623,2216542079,675623,2,1.00977,-0.13184,0.09033,2.519,3.252,-6.908
2026-06-01 16:56:42.823,2216542279,675823,1,0.90332,-0.25977,0.5896,7.053,6.885,1.427
2026-06-01 16:56:42.823,2216542279,675823,2,1.00806,-0.10718,0.08154,4.252,2.137,-4.534
2026-06-01 16:56:42.023,2216541479,676023,1,0.90454,-0.25781,0.60449,8.053,3.603,1.13
2026-06-01 16:56:42.023,2216541479,676023,2,0.99341,-0.0918,0.1062,-3.649,1.298,-2.557
2026-06-01 16:56:43.223,2216542679,676223,1,0.89941,-0.25073,0.6106,0.771,0.267,-1.786
2026-06-01 16:56:43.223,2216542679,676223,2,1.01538,-0.08984,0.10132,-6.695,-0.58,-0.565
2026-06-01 16:56:43.423,2216542879,676423,1,0.89917,-0.25269,0.59766,-0.641,0.198,-0.931
2026-06-01 16:56:43.423,2216542879,676423,2,1.00854,-0.09644,0.09644,-3.817,-2.244,1.191
2026-06-01 16:56:43.623,2216543079,676623,1,0.91504,-0.24829,0.57251,-2.954,-1.679,-2.611
2026-06-01 16:56:43.623,2216543079,676623,2,1.03003,-0.10303,0.06689,-3.565,-2.916,1.878
2026-06-01 16:56:43.823,2216543279,676823,1,0.91919,-0.26538,0.58301,-2.534,-0.145,-1.313
2026-06-01 16:56:43.823,2216543279,676823,2,1.03711,-0.10962,0.0896,-6.046,-1.763,2.939
2026-06-01 16:56:43.023,2216542479,677023,1,0.87744,-0.2832,0.58472,4.328,5.237,2.16
2026-06-01 16:56:43.023,2216542479,677023,2,1.03369,-0.11621,0.05249,1.695,1.046,-1.542
2026-06-01 16:56:44.223,2216543679,677223,1,0.93286,-0.27148,0.59033,6.45,2.656,1.603
2026-06-01 16:56:44.223,2216543679,677223,2,0.98389,-0.09424,0.07544,-0.191,4.412,-1.359
2026-06-01 16:56:44.423,2216543879,677423,1,0.8916,-0.25879,0.59351,-2.511,4.305,-3.061
2026-06-01 16:56:44.423,2216543879,677423,2,1.03125,-0.10791,0.02881,2.084,-3.336,2.847
2026-06-01 16:56:44.623,2216544079,677623,1,0.91724,-0.22827,0.56787,2.107,-1.641,-1.137
2026-06-01 16:56:44.623,2216544079,677623,2,1.01904,-0.09277,0.05005,-0.855,-1.985,1.076
2026-06-01 16:56:44.823,2216544279,677823,1,0.90796,-0.24219,0.58032,-3.985,0.748,-3.893
2026-06-01 16:56:44.823,2216544279,677823,2,1.02271,-0.09814,0.02295,-6.87,-1.145,3.679
2026-06-01 16:56:44.023,2216543479,678023,1,0.9292,-0.23511,0.56812,-13.756,5.115,-14.313
2026-06-01 16:56:44.023,2216543479,678023,2,1.02295,-0.12524,0.01758,-9.092,3.786,1.542
2026-06-01 16:56:45.223,2216544679,678223,1,0.91919,-0.2395,0.5708,-2.099,4.046,-3.542
2026-06-01 16:56:45.223,2216544679,678223,2,1.01392,-0.11499,0.04614,0.237,5.023,-0.74
2026-06-01 16:56:45.423,2216544879,678423,1,0.89233,-0.23975,0.58081,2.931,4.511,-1.473
2026-06-01 16:56:45.423,2216544879,678423,2,1.01123,-0.12207,0.06079,-2.084,-0.328,-7.855
2026-06-01 16:56:45.623,2216545079,678623,1,0.90088,-0.22534,0.58936,4.481,1.527,-0.137
2026-06-01 16:56:45.623,2216545079,678623,2,1.02344,-0.10205,0.05493,3.908,2.076,0.702
2026-06-01 16:56:45.823,2216545279,678823,1,0.92383,-0.21924,0.58838,1.763,0.847,0.908
2026-06-01 16:56:45.823,2216545279,678823,2,1.01367,-0.09204,0.06348,0.191,0.84,0.382
2026-06-01 16:56:45.023,2216544479,679023,1,0.90771,-0.22266,0.58643,0.557,1.038,0.122
2026-06-01 16:56:45.023,2216544479,679023,2,1.01147,-0.08691,0.04712,-6.458,-1.481,0.511
2026-06-01 16:56:46.223,2216545679,679223,1,0.94702,-0.21216,0.5752,-12.641,4.504,-4.702
2026-06-01 16:56:46.223,2216545679,679223,2,1.0271,-0.11572,0.04419,-14.046,-2.718,8.275
2026-06-01 16:56:46.423,2216545879,679423,1,0.92041,-0.25415,0.57153,-9.084,4.0,-2.84
2026-06-01 16:56:46.423,2216545879,679423,2,1.01416,-0.13232,0.05566,-10.008,2.237,-0.13
2026-06-01 16:56:46.623,2216546079,679623,1,0.92041,-0.26025,0.57861,-2.435,4.092,-1.344
2026-06-01 16:56:46.623,2216546079,679623,2,1.02466,-0.13965,0.05566,-4.534,0.237,1.252
2026-06-01 16:56:46.823,2216546279,679823,1,0.9126,-0.26025,0.57373,1.0,2.672,-0.092
2026-06-01 16:56:46.823,2216546279,679823,2,1.02686,-0.14697,0.05029,-0.115,-1.053,0.908
2026-06-01 16:56:46.023,2216545479,680023,1,0.9104,-0.24634,0.58301,2.229,1.893,0.122
2026-06-01 16:56:46.023,2216545479,680023,2,1.01929,-0.12817,0.05859,1.16,0.695,-0.794
2026-06-01 16:56:47.223,2216546679,680223,1,0.91797,-0.23486,0.57983,1.26,1.565,-0.626
2026-06-01 16:56:47.223,2216546679,680223,2,1.01538,-0.11133,0.06421,0.481,0.74,0.382
2026-06-01 16:56:47.423,2216546879,680423,1,0.91431,-0.24707,0.58716,1.275,0.847,-0.756
2026-06-01 16:56:47.423,2216546879,680423,2,1.01782,-0.12109,0.06592,-0.55,0.443,0.137
2026-06-01 16:56:47.623,2216547079,680623,1,0.90869,-0.24463,0.57422,2.351,1.099,0.122
2026-06-01 16:56:47.623,2216547079,680623,2,1.01538,-0.11938,0.05396,-0.084,-0.893,0.45
2026-06-01 16:56:47.823,2216547279,680823,1,0.91943,-0.23975,0.58691,3.298,0.565,0.244
2026-06-01 16:56:47.823,2216547279,680823,2,1.01318,-0.11743,0.04907,-1.397,-0.405,0.305
2026-06-01 16:56:47.023,2216546479,681023,1,0.92188,-0.24146,0.58105,2.321,0.176,0.519
2026-06-01 16:56:47.023,2216546479,681023,2,1.01831,-0.12036,0.04077,-1.626,-0.107,0.305
2026-06-01 16:56:48.223,2216547679,681223,1,0.91797,-0.24536,0.57446,2.901,2.435,-0.191
2026-06-01 16:56:48.223,2216547679,681223,2,1.00562,-0.11401,0.05078,0.389,0.229,-2.275
2026-06-01 16:56:48.455,2216547911,681455,1,0.91504,-0.23853,0.5752,3.527,1.489,-1.229
2026-06-01 16:56:48.455,2216547911,681455,2,1.01978,-0.11914,0.05298,0.412,-2.992,-0.473
2026-06-01 16:56:48.881,2216548337,681881,1,0.93018,-0.22607,0.56934,-0.023,1.115,-3.481
2026-06-01 16:56:48.881,2216548337,681881,2,1.01172,-0.09229,0.04712,-1.107,0.786,-0.511
2026-06-01 16:56:49.124,2216548580,682124,1,0.92432,-0.21411,0.56787,0.298,1.252,-0.924
2026-06-01 16:56:49.124,2216548580,682124,2,1.02051,-0.09424,0.04443,-1.229,-0.153,1.038
2026-06-01 16:56:49.324,2216548780,682324,1,0.92969,-0.22339,0.57422,0.84,0.466,0.046
2026-06-01 16:56:49.324,2216548780,682324,2,1.01904,-0.0979,0.0625,-1.527,1.389,0.481
2026-06-01 16:56:49.524,2216548980,682524,1,0.91626,-0.24658,0.57251,-3.641,3.626,-0.382
2026-06-01 16:56:49.524,2216548980,682524,2,1.02246,-0.10645,0.05054,-1.061,3.145,0.557
2026-06-01 16:56:49.724,2216549180,682724,1,0.94336,-0.26929,0.54395,-14.405,15.908,-5.924
2026-06-01 16:56:49.724,2216549180,682724,2,1.04834,-0.11328,0.14233,-30.244,17.038,-13.153
2026-06-01 16:56:49.924,2216549380,682924,1,0.91333,-0.34033,0.58472,-7.031,42.962,0.069
2026-06-01 16:56:49.924,2216549380,682924,2,1.03662,-0.07227,0.14551,-11.076,40.351,-41.779
2026-06-01 16:56:50.124,2216549580,683124,1,0.63281,0.00537,0.47729,17.176,69.802,17.267
2026-06-01 16:56:50.124,2216549580,683124,2,0.72046,-0.07666,-0.01416,-27.389,88.237,-66.573
2026-06-01 16:56:50.324,2216549780,683324,1,0.31714,-0.13184,0.83862,16.679,58.908,11.206
2026-06-01 16:56:50.324,2216549780,683324,2,0.63599,0.28418,0.40698,11.221,27.076,-24.29
2026-06-01 16:56:50.524,2216549980,683524,1,0.38184,-0.17822,1.10889,-0.244,2.878,12.443
2026-06-01 16:56:50.524,2216549980,683524,2,0.71826,0.37134,0.52832,28.985,-0.16,6.901
2026-06-01 16:56:50.724,2216550180,683724,1,0.31738,-0.20288,1.13818,-34.053,-43.168,16.237
2026-06-01 16:56:50.724,2216550180,683724,2,1.2373,0.52954,0.94214,7.664,-82.221,73.985
2026-06-01 16:56:50.924,2216550380,683924,1,0.9519,-0.48535,1.30786,7.069,-13.687,-4.893
2026-06-01 16:56:50.924,2216550380,683924,2,0.57129,0.06982,0.24829,-6.008,-5.336,-8.427
2026-06-01 16:56:51.124,2216550580,684124,1,0.43774,-0.17798,0.59521,17.672,2.687,0.069
2026-06-01 16:56:51.124,2216550580,684124,2,0.8186,0.25757,0.5437,-19.0,-0.519,-20.046
2026-06-01 16:56:51.324,2216550780,684324,1,0.63281,-0.37524,0.98438,-24.573,21.649,-1.229
2026-06-01 16:56:51.324,2216550780,684324,2,0.73022,0.17578,0.40283,1.031,-0.84,6.649
2026-06-01 16:56:51.524,2216550980,684524,1,0.62988,-0.37402,0.90063,6.664,-8.809,4.878
2026-06-01 16:56:51.524,2216550980,684524,2,0.896,0.26855,0.45874,8.771,-2.779,-1.847
2026-06-01 16:56:51.724,2216551180,684724,1,0.58008,-0.27954,0.89771,0.481,0.763,-8.008
2026-06-01 16:56:51.724,2216551180,684724,2,0.854,0.2627,0.41748,0.557,-2.214,1.748
2026-06-01 16:56:51.924,2216551380,684924,1,0.60596,-0.32397,1.00684,3.542,-12.954,-8.458
2026-06-01 16:56:51.924,2216551380,684924,2,0.91113,0.25757,0.42017,-10.092,-13.595,15.626
2026-06-01 16:56:52.124,2216551580,685124,1,0.69922,-0.17163,0.80371,-4.756,-45.748,-6.87
2026-06-01 16:56:52.124,2216551580,685124,2,0.89453,0.17651,0.32153,-7.893,-27.748,34.809
2026-06-01 16:56:52.324,2216551780,685324,1,0.84912,-0.28638,0.61353,-1.267,-22.282,2.244
2026-06-01 16:56:52.324,2216551780,685324,2,0.99829,0.05371,0.26416,-12.466,-17.985,9.649
2026-06-01 16:56:52.524,2216551980,685524,1,0.85938,-0.26489,0.66211,-1.214,9.641,-3.84
2026-06-01 16:56:52.524,2216551980,685524,2,0.98804,-0.00903,0.28198,-9.687,11.168,-4.565
2026-06-01 16:56:52.724,2216552180,685724,1,0.79492,-0.31934,0.68213,-16.595,31.053,3.893
2026-06-01 16:56:52.724,2216552180,685724,2,0.89111,0.0293,0.16992,-5.191,27.817,-25.695
2026-06-01 16:56:52.924,2216552380,685924,1,0.59473,-0.34961,0.8584,-11.794,49.794,6.176
2026-06-01 16:56:52.924,2216552380,685924,2,0.9043,0.06909,0.47681,-9.992,13.649,-2.45
2026-06-01 16:56:53.124,2216552580,686124,1,0.60742,-0.31763,0.80298,11.672,-7.031,3.221
2026-06-01 16:56:53.124,2216552580,686124,2,0.95801,0.20947,0.49487,16.527,3.389,-0.489
2026-06-01 16:56:53.324,2216552780,686324,1,0.70776,-0.31226,0.85474,7.947,3.328,6.015
2026-06-01 16:56:53.324,2216552780,686324,2,0.8689,0.1731,0.41675,-11.252,-6.206,1.763
2026-06-01 16:56:53.524,2216552980,686524,1,0.59277,-0.29883,0.88257,70.252,41.626,-14.313
2026-06-01 16:56:53.524,2216552980,686524,2,0.95459,0.19238,0.49658,-19.634,12.618,-14.053
2026-06-01 16:56:53.724,2216553180,686724,1,0.98242,-0.26831,1.2644,13.214,11.542,-10.679
2026-06-01 16:56:53.724,2216553180,686724,2,1.06934,0.24634,0.71143,-7.183,49.55,-51.344
2026-06-01 16:56:53.924,2216553380,686924,1,0.44653,0.12915,0.92749,-3.832,-11.878,-13.779
2026-06-01 16:56:53.924,2216553380,686924,2,0.67896,0.14111,0.5127,-8.817,54.076,-33.58
2026-06-01 16:56:54.124,2216553580,687124,1,0.54614,0.12769,1.01025,48.229,10.794,-2.191
2026-06-01 16:56:54.124,2216553580,687124,2,0.54321,0.50806,0.56445,2.672,32.397,-13.115
2026-06-01 16:56:54.324,2216553780,687324,1,0.49536,0.17285,1.1936,21.908,12.565,-8.756
2026-06-01 16:56:54.324,2216553780,687324,2,0.68921,0.60156,0.70361,-11.947,-4.382,-5.687
2026-06-01 16:56:54.524,2216553980,687524,1,0.53394,0.09033,1.24731,-29.443,-5.573,-8.183
2026-06-01 16:56:54.524,2216553980,687524,2,0.64746,0.35718,0.60449,-19.611,-41.664,35.267
2026-06-01 16:56:54.799,2216554255,687799,1,0.38354,-0.11914,1.10864,-27.435,-17.725,13.924
2026-06-01 16:56:54.799,2216554255,687799,2,0.39185,0.10132,0.27271,-11.519,-88.076,60.397
2026-06-01 16:56:54.999,2216554455,687999,1,0.34595,-0.18555,0.19922,-53.115,-103.565,-8.183
2026-06-01 16:56:54.999,2216554455,687999,2,0.85693,-0.02808,0.22607,-1.489,-94.099,86.069
2026-06-01 16:56:55.199,2216554655,688199,1,0.89673,-0.29419,0.44434,-6.969,-13.015,5.237
2026-06-01 16:56:55.199,2216554655,688199,2,1.11572,-0.14819,0.12109,-5.29,-22.336,18.924
2026-06-01 16:56:55.399,2216554855,688399,1,0.86938,-0.27954,0.62573,0.756,-7.305,3.557
2026-06-01 16:56:55.399,2216554855,688399,2,1.02393,-0.0437,0.16602,-8.038,-4.977,5.466
2026-06-01 16:56:55.599,2216555055,688599,1,0.75,-0.31445,0.68604,3.198,5.366,-8.061
2026-06-01 16:56:55.599,2216555055,688599,2,0.97998,-0.05786,0.13818,-2.351,-5.504,-0.42
2026-06-01 16:56:55.799,2216555255,688799,1,0.88062,-0.3147,0.62622,-6.863,-1.893,-6.046
2026-06-01 16:56:55.799,2216555255,688799,2,0.99341,-0.07886,0.04321,-8.634,-6.099,0.321
2026-06-01 16:56:55.999,2216555455,688999,1,0.91968,-0.30127,0.56274,-10.137,-2.076,-5.87
2026-06-01 16:56:55.999,2216555455,688999,2,1.02881,-0.09546,0.06958,-4.298,-0.542,-5.168
2026-06-01 16:56:56.199,2216555655,689199,1,0.91602,-0.28955,0.53564,4.954,4.985,-1.038
2026-06-01 16:56:56.199,2216555655,689199,2,1.01563,-0.0376,0.06812,-3.672,12.443,-10.176
2026-06-01 16:56:56.399,2216555855,689399,1,0.9165,-0.34277,0.55981,1.374,37.84,-5.618
2026-06-01 16:56:56.399,2216555855,689399,2,1.0293,-0.06738,0.10352,-2.069,32.221,-29.336
2026-06-01 16:56:56.599,2216556055,689599,1,0.80054,-0.16772,0.60059,27.183,78.504,18.977
2026-06-01 16:56:56.599,2216556055,689599,2,0.81299,0.09961,0.32446,-3.802,60.412,-40.87
2026-06-01 16:56:56.799,2216556255,689799,1,0.39941,-0.19434,0.94458,16.244,71.763,12.679
2026-06-01 16:56:56.799,2216556255,689799,2,0.49072,0.3457,0.49951,1.412,65.405,-43.374
2026-06-01 16:56:56.999,2216556455,689999,1,0.11743,-0.22339,0.97388,-1.489,44.71,-4.534
2026-06-01 16:56:56.999,2216556455,689999,2,0.47559,0.24097,0.43799,-7.412,27.511,-18.405
2026-06-01 16:56:57.199,2216556655,690199,1,0.25854,-0.15527,1.08057,4.908,-15.534,-3.588
2026-06-01 16:56:57.199,2216556655,690199,2,0.6875,0.3103,0.60181,-12.336,-33.198,17.198
2026-06-01 16:56:57.399,2216556855,690399,1,0.42847,-0.27344,1.11841,-6.947,-42.435,-7.046
2026-06-01 16:56:57.399,2216556855,690399,2,0.81494,0.2417,0.50269,18.069,-32.427,27.328
2026-06-01 16:56:57.599,2216557055,690599,1,0.61011,-0.23145,0.91675,-9.435,-49.168,0.137
2026-06-01 16:56:57.599,2216557055,690599,2,0.99268,0.1145,0.36279,0.725,-37.374,21.748
2026-06-01 16:56:57.799,2216557255,690799,1,0.67017,-0.29858,1.38428,-24.74,-40.718,0.473
2026-06-01 16:56:57.799,2216557255,690799,2,0.8457,0.04932,0.38013,-10.29,49.237,-32.534
2026-06-01 16:56:57.999,2216557455,690999,1,0.55762,-0.18604,0.87573,17.656,8.023,-1.046
2026-06-01 16:56:57.999,2216557455,690999,2,0.72485,0.04517,0.36328,-19.832,-1.725,4.069
2026-06-01 16:56:58.199,2216557655,691199,1,0.6958,-0.2583,0.98511,11.061,-2.023,-7.267
2026-06-01 16:56:58.199,2216557655,691199,2,0.90356,0.21191,0.41235,6.595,-8.328,5.802
2026-06-01 16:56:58.399,2216557855,691399,1,0.65381,-0.20044,0.87451,11.145,5.405,1.947
2026-06-01 16:56:58.399,2216557855,691399,2,0.95361,0.22095,0.41162,-1.221,9.885,-2.557
2026-06-01 16:56:58.599,2216558055,691599,1,0.63818,-0.24146,0.89746,-0.481,3.504,-3.885
2026-06-01 16:56:58.599,2216558055,691599,2,0.85034,0.17554,0.36011,-0.695,1.0,0.977
2026-06-01 16:56:58.799,2216558255,691799,1,0.7085,-0.2583,0.89087,8.481,-12.298,-1.687
2026-06-01 16:56:58.799,2216558255,691799,2,0.96851,0.20459,0.3103,0.359,-8.107,6.71
2026-06-01 16:56:58.999,2216558455,691999,1,0.71997,-0.17114,0.82983,-3.153,-18.649,1.802
2026-06-01 16:56:58.999,2216558455,691999,2,0.96631,0.12964,0.32324,-5.611,-13.679,19.893
2026-06-01 16:56:59.199,2216558655,692199,1,0.76147,-0.35498,0.7688,-5.878,-17.145,-2.595
2026-06-01 16:56:59.199,2216558655,692199,2,0.97559,0.07544,0.27051,-0.244,-4.183,-5.947
2026-06-01 16:56:59.474,2216558930,692474,1,0.89502,-0.25122,0.573,-5.244,25.908,-3.908
2026-06-01 16:56:59.474,2216558930,692474,2,1.01782,0.198,0.3457,-28.015,13.305,-8.634
2026-06-01 16:56:59.674,2216559130,692674,1,1.09131,-0.3186,1.28833,-4.878,55.145,-21.427
2026-06-01 16:56:59.674,2216559130,692674,2,0.65479,0.17578,0.29956,24.344,56.695,-28.206
2026-06-01 16:56:59.874,2216559330,692874,1,0.30518,-0.08545,1.02075,23.885,48.649,16.679
2026-06-01 16:56:59.874,2216559330,692874,2,0.55444,0.37134,0.58594,9.366,34.023,-23.298
2026-06-01 16:56:59.074,2216558530,693074,1,0.34106,-0.22021,1.27393,-26.405,-17.779,-1.939
2026-06-01 16:56:59.074,2216558530,693074,2,0.62549,0.33423,0.76318,-11.992,-39.267,38.725
2026-06-01 16:57:00.274,2216559730,693274,1,0.51221,-0.35693,1.13672,-52.626,-82.344,-8.901
2026-06-01 16:57:00.274,2216559730,693274,2,0.89404,0.18042,0.58252,-18.519,-75.282,58.603
2026-06-01 16:57:00.474,2216559930,693474,1,0.94971,-0.35156,0.50391,12.206,-60.298,-15.55
2026-06-01 16:57:00.474,2216559930,693474,2,1.06543,-0.05518,0.29614,23.985,-50.313,63.114
2026-06-01 16:57:00.674,2216560130,693674,1,0.34302,-0.0686,0.28564,27.893,5.328,1.168
2026-06-01 16:57:00.674,2216560130,693674,2,0.44556,-0.34766,0.28198,29.786,-51.511,57.832
2026-06-01 16:57:00.874,2216560330,693874,1,1.35864,-0.2937,0.63306,8.427,-48.473,-7.992
2026-06-01 16:57:00.874,2216560330,693874,2,0.64258,0.15771,0.59863,49.931,34.023,-13.924
2026-06-01 16:57:00.074,2216559530,694074,1,0.92114,-0.1936,0.61255,0.588,-2.947,-13.038
2026-06-01 16:57:00.074,2216559530,694074,2,1.06201,-0.24414,0.08667,0.939,-10.832,16.099
2026-06-01 16:57:01.342,2216560798,694341,1,0.91406,-0.21069,0.58887,12.275,-15.137,1.176
2026-06-01 16:57:01.342,2216560798,694341,2,1.06982,0.02026,0.12109,3.969,-10.42,-7.275
2026-06-01 16:57:01.593,2216561049,694593,1,0.91895,-0.21729,0.54565,9.725,-4.557,1.924
2026-06-01 16:57:01.593,2216561049,694593,2,1.04346,-0.07568,0.07349,-1.855,-8.977,10.443
2026-06-01 16:57:01.793,2216561249,694793,1,0.9585,-0.19897,0.51807,6.863,-3.595,0.191
2026-06-01 16:57:01.793,2216561249,694793,2,1.02417,-0.08765,0.08789,-6.939,-2.733,-2.565
2026-06-01 16:57:01.993,2216561449,694993,1,0.98242,-0.16089,0.46021,4.046,3.527,3.198
2026-06-01 16:57:01.993,2216561449,694993,2,1.02222,-0.03687,0.08154,-7.885,1.16,1.237
2026-06-01 16:57:02.193,2216561649,695193,1,0.91504,-0.2207,0.5647,-6.328,-1.573,1.626
2026-06-01 16:57:02.193,2216561649,695193,2,1.00928,-0.08496,0.09302,-8.641,2.412,3.992
2026-06-01 16:57:02.393,2216561849,695393,1,0.94116,-0.22388,0.54419,-12.382,0.718,-3.824
2026-06-01 16:57:02.393,2216561849,695393,2,0.99561,-0.08374,0.09155,-3.229,2.84,2.023
2026-06-01 16:57:02.593,2216562049,695593,1,0.96899,-0.2229,0.49512,1.084,-1.229,-0.366
2026-06-01 16:57:02.593,2216562049,695593,2,1.01831,-0.11743,0.06445,-3.947,-3.107,3.603
2026-06-01 16:57:02.793,2216562249,695793,1,0.98193,-0.25269,0.48145,-3.206,-2.458,-5.412
2026-06-01 16:57:02.793,2216562249,695793,2,0.99756,-0.13525,0.02588,-2.916,-3.863,-0.779
2026-06-01 16:57:02.993,2216562449,695993,1,0.95752,-0.21558,0.47754,-2.702,3.282,-1.489
2026-06-01 16:57:02.993,2216562449,695993,2,1.02026,-0.13794,-0.03125,-0.084,1.031,0.397
2026-06-01 16:57:03.193,2216562649,696193,1,0.95435,-0.19556,0.4729,1.481,-1.542,3.206
2026-06-01 16:57:03.193,2216562649,696193,2,1.01807,-0.11475,0.02075,-1.969,-0.267,-0.802
2026-06-01 16:57:03.427,2216562883,696426,1,0.98438,-0.22095,0.45215,-6.298,0.542,-1.611
2026-06-01 16:57:03.427,2216562883,696426,2,1.01904,-0.05347,0.10571,12.565,4.84,-0.168
2026-06-01 16:57:03.626,2216563082,696626,1,0.99194,-0.21802,0.43945,3.16,-8.099,0.802
2026-06-01 16:57:03.626,2216563082,696626,2,1.04565,-0.11816,0.04297,-2.053,-0.786,3.237
2026-06-01 16:57:03.826,2216563282,696826,1,0.95386,-0.22583,0.47168,1.336,6.695,-1.26
2026-06-01 16:57:03.826,2216563282,696826,2,0.99805,-0.04053,0.052,5.695,9.71,-1.962
2026-06-01 16:57:03.026,2216562482,697026,1,0.98462,-0.17114,0.49561,-18.656,18.626,-8.748
2026-06-01 16:57:03.026,2216562482,697026,2,1.04834,-0.06152,0.00684,-5.176,0.893,1.672
2026-06-01 16:57:04.226,2216563682,697226,1,0.94897,-0.21655,0.4812,-13.687,12.252,1.275
2026-06-01 16:57:04.226,2216563682,697226,2,0.97705,-0.05566,-0.04126,-19.229,1.954,-7.939
2026-06-01 16:57:04.426,2216563882,697426,1,1.01489,-0.19873,0.57568,1.45,5.519,-13.053
2026-06-01 16:57:04.426,2216563882,697426,2,1.02905,-0.08472,0.01001,-0.87,5.412,2.198
2026-06-01 16:57:04.626,2216564082,697626,1,0.93091,-0.19385,0.56079,5.756,10.702,0.893
2026-06-01 16:57:04.626,2216564082,697626,2,1.01074,-0.08789,0.06909,3.115,5.595,1.069
2026-06-01 16:57:04.877,2216564333,697877,1,0.93384,-0.21753,0.55811,-0.42,1.565,3.176
2026-06-01 16:57:04.877,2216564333,697877,2,1.01831,-0.12109,0.04346,-5.168,-1.229,1.206
2026-06-01 16:57:04.077,2216563533,698077,1,0.92847,-0.22876,0.55664,-2.359,-0.992,0.412
2026-06-01 16:57:04.077,2216563533,698077,2,1.01636,-0.14014,0.04419,-7.908,-0.557,4.626
2026-06-01 16:57:05.277,2216564733,698277,1,0.9458,-0.24194,0.52588,-1.252,-0.763,1.191
2026-06-01 16:57:05.277,2216564733,698277,2,1.02637,-0.13574,0.04712,-2.275,-0.771,1.901
2026-06-01 16:57:05.477,2216564933,698477,1,0.94043,-0.2373,0.53882,-0.893,1.794,-0.092
2026-06-01 16:57:05.477,2216564933,698477,2,1.02563,-0.13525,0.05176,-1.344,0.824,0.168
2026-06-01 16:57:05.677,2216565133,698677,1,0.98242,-0.25122,0.50903,3.237,10.863,3.084
2026-06-01 16:57:05.677,2216565133,698677,2,1.05078,-0.11792,0.04956,8.802,12.237,-10.16
2026-06-01 16:57:05.877,2216565333,698877,1,0.89575,-0.20435,0.5271,8.443,47.023,9.672
2026-06-01 16:57:05.877,2216565333,698877,2,1.00537,-0.11621,0.19312,-11.908,44.427,-32.656
2026-06-01 16:57:05.077,2216564533,699077,1,0.82861,-0.37866,0.46875,63.565,85.092,23.397
2026-06-01 16:57:05.077,2216564533,699077,2,0.82178,-0.00903,0.24146,80.466,80.733,-78.802
2026-06-01 16:57:06.277,2216565733,699277,1,0.35327,0.28149,1.00317,137.725,67.351,47.84
2026-06-01 16:57:06.277,2216565733,699277,2,0.646,0.55029,0.41846,63.45,72.359,-52.74
2026-06-01 16:57:06.477,2216565933,699477,1,0.32837,0.38867,1.28516,25.298,25.916,17.802
2026-06-01 16:57:06.477,2216565933,699477,2,0.52661,0.6189,0.54248,11.962,12.595,12.13
2026-06-01 16:57:06.806,2216566262,699806,1,0.3999,0.26172,1.09619,2.214,-23.321,48.237
2026-06-01 16:57:06.806,2216566262,699806,2,0.6189,0.59717,0.46143,21.649,2.466,30.489
2026-06-01 16:57:06.006,2216565462,700006,1,0.54248,0.12329,0.89209,26.878,-3.962,43.023
2026-06-01 16:57:06.006,2216565462,700006,2,0.59448,0.57544,0.42871,14.237,23.099,21.679
2026-06-01 16:57:07.206,2216566662,700206,1,0.55664,0.15918,0.95435,7.908,2.26,21.786
2026-06-01 16:57:07.206,2216566662,700206,2,0.60791,0.64844,0.48779,6.55,3.244,20.771
2026-06-01 16:57:07.406,2216566862,700406,1,0.58398,0.09766,0.92676,-36.58,3.679,3.046
2026-06-01 16:57:07.406,2216566862,700406,2,0.66846,0.54077,0.50781,-54.504,-7.015,5.565
2026-06-01 16:57:07.606,2216567062,700606,1,0.59863,-0.12524,0.84204,-144.779,67.45,-22.023
2026-06-01 16:57:07.606,2216567062,700606,2,0.72632,0.42285,0.60083,-112.794,16.267,-6.702
2026-06-01 16:57:07.806,2216567262,700806,1,0.31543,-0.62866,1.01172,-14.137,23.534,-3.672
2026-06-01 16:57:07.806,2216567262,700806,2,0.48853,0.1748,0.80298,-23.71,4.977,-26.824
2026-06-01 16:57:07.006,2216566462,701006,1,0.34521,-0.32227,1.04517,4.015,-1.618,-27.405
2026-06-01 16:57:07.006,2216566462,701006,2,0.63672,0.19629,0.73096,-12.366,-15.557,-17.176
2026-06-01 16:57:08.206,2216567662,701206,1,0.34521,-0.44189,0.96313,-8.954,1.183,-19.664
2026-06-01 16:57:08.206,2216567662,701206,2,0.63647,0.18018,0.66724,-1.389,-17.931,-13.924
2026-06-01 16:57:08.406,2216567862,701406,1,0.45557,-0.38062,0.93555,-2.412,21.298,-19.26
2026-06-01 16:57:08.406,2216567862,701406,2,0.7417,0.23682,0.61768,-12.992,-0.015,-21.595
2026-06-01 16:57:08.606,2216568062,701606,1,0.34741,-0.35083,0.96167,6.817,28.725,-12.443
2026-06-01 16:57:08.606,2216568062,701606,2,0.61401,0.28174,0.62476,-1.328,16.794,-20.206
2026-06-01 16:57:08.806,2216568262,701806,1,0.28516,-0.29614,1.04785,20.176,33.183,-4.58
2026-06-01 16:57:08.806,2216568262,701806,2,0.62769,0.31348,0.69604,8.855,25.588,-11.374
2026-06-01 16:57:08.006,2216567462,702006,1,0.18311,-0.28613,1.02905,11.008,34.084,1.573
2026-06-01 16:57:08.006,2216567462,702006,2,0.42407,0.43945,0.80469,-0.565,26.55,-13.618
2026-06-01 16:57:09.206,2216568662,702206,1,0.06885,-0.29443,0.98633,10.328,30.718,-12.435
2026-06-01 16:57:09.206,2216568662,702206,2,0.44214,0.3252,0.80103,6.084,26.13,-6.252
2026-06-01 16:57:09.406,2216568862,702406,1,-0.02295,-0.16284,0.84912,-2.344,44.87,-10.496
2026-06-01 16:57:09.406,2216568862,702406,2,0.25488,0.38281,0.54077,-41.298,61.84,-37.908
2026-06-01 16:57:09.606,2216569062,702606,1,-0.2207,-0.22583,0.96265,26.939,33.733,16.779
2026-06-01 16:57:09.606,2216569062,702606,2,0.1709,0.39014,0.81177,59.664,41.649,-22.427
2026-06-01 16:57:09.806,2216569262,702806,1,-0.33691,-0.07056,1.51318,28.779,-11.389,1.29
2026-06-01 16:57:09.806,2216569262,702806,2,0.0083,0.75879,1.01831,-22.588,-10.26,12.733
2026-06-01 16:57:09.006,2216568462,703006,1,-0.22412,-0.09814,1.1582,-19.756,-58.901,8.282
2026-06-01 16:57:09.006,2216568462,703006,2,0.26074,0.60864,0.79199,-13.588,-7.053,14.267
2026-06-01 16:57:10.206,2216569662,703206,1,-0.03638,-0.11035,1.375,6.679,-8.855,-8.466
2026-06-01 16:57:10.206,2216569662,703206,2,0.22437,0.51904,0.88721,-4.061,-45.58,19.565
2026-06-01 16:57:10.406,2216569862,703406,1,-0.00293,-0.16309,1.13989,-15.481,-81.336,-18.435
2026-06-01 16:57:10.406,2216569862,703406,2,0.42578,0.13037,0.37891,-23.16,-115.84,78.42
2026-06-01 16:57:10.606,2216570062,703606,1,0.47925,-0.29663,0.58643,-42.344,-147.519,-26.947
2026-06-01 16:57:10.606,2216570062,703606,2,0.79395,0.27686,0.41235,-27.16,-84.55,12.489
2026-06-01 16:57:10.806,2216570262,703806,1,0.73999,-0.20459,0.63647,-13.71,-48.061,-14.809
2026-06-01 16:57:10.806,2216570262,703806,2,1.0022,0.11499,0.20801,-21.817,-42.954,34.924
2026-06-01 16:57:10.006,2216569462,704006,1,0.81543,-0.28101,0.53125,-3.702,10.656,-20.214
2026-06-01 16:57:10.006,2216569462,704006,2,0.98096,-0.021,0.12305,3.985,-3.595,2.992
2026-06-01 16:57:11.206,2216570662,704206,1,0.854,-0.23633,0.66846,3.397,1.076,-2.573
2026-06-01 16:57:11.206,2216570662,704206,2,1.02075,-0.02441,0.14697,5.924,-9.794,12.145
2026-06-01 16:57:11.406,2216570862,704406,1,0.87622,-0.26294,0.6438,4.153,4.015,-0.992
2026-06-01 16:57:11.406,2216570862,704406,2,1.02417,-0.02808,0.1106,6.496,0.023,-1.015
2026-06-01 16:57:11.606,2216571062,704606,1,0.85864,-0.22534,0.66406,0.824,5.718,-1.977
2026-06-01 16:57:11.606,2216571062,704606,2,1.00513,,0.14307,-2.076,3.817,-2.206
2026-06-01 16:57:11.806,2216571262,704806,1,0.8562,-0.22827,0.69385,-0.328,1.351,0.542
2026-06-01 16:57:11.806,2216571262,704806,2,1.00952,-0.00977,0.15649,0.084,5.824,-1.397
2026-06-01 16:57:11.006,2216570462,705006,1,0.85327,-0.23438,0.68018,2.183,6.527,0.817
2026-06-01 16:57:11.006,2216570462,705006,2,1.01099,0.00586,0.1709,-1.076,3.855,-3.504
2026-06-01 16:57:12.206,2216571662,705206,1,0.9209,-0.26172,0.57397,-7.603,14.748,-2.947
2026-06-01 16:57:12.206,2216571662,705206,2,1.06226,0.01294,0.19531,-13.092,31.466,-33.16
2026-06-01 16:57:12.406,2216571862,705406,1,0.79614,-0.23267,0.46997,1.26,70.725,5.031
2026-06-01 16:57:12.406,2216571862,705406,2,0.85962,0.06543,0.14966,44.489,96.16,-58.061
2026-06-01 16:57:12.606,2216572062,705606,1,0.37988,-0.1311,0.79614,20.794,111.344,24.977
2026-06-01 16:57:12.606,2216572062,705606,2,0.54297,0.35986,0.552,9.191,102.504,-80.573
2026-06-01 16:57:12.806,2216572262,705806,1,-0.09961,-0.21802,1.05176,10.45,96.748,5.992
2026-06-01 16:57:12.806,2216572262,705806,2,0.31201,0.50513,0.68726,3.412,74.267,-52.908
2026-06-01 16:57:12.006,2216571462,706006,1,-0.35791,-0.02539,1.27075,2.664,66.084,0.198
2026-06-01 16:57:12.006,2216571462,706006,2,0.09473,0.49878,0.86035,8.298,17.298,-10.832
2026-06-01 16:57:13.206,2216572662,706206,1,-0.31104,-0.03516,1.14331,2.664,1.74,1.214
2026-06-01 16:57:13.206,2216572662,706206,2,0.11011,0.59253,0.84961,-3.412,-2.71,-1.687
2026-06-01 16:57:13.406,2216572862,706406,1,-0.24048,-0.0249,1.01904,-1.374,-6.664,-0.061
2026-06-01 16:57:13.406,2216572862,706406,2,0.06372,0.56567,0.85669,-9.275,1.427,-2.16
2026-06-01 16:57:13.606,2216573062,706606,1,-0.34131,-0.03149,1.15137,-19.443,-14.099,9.924
2026-06-01 16:57:13.606,2216573062,706606,2,0.16431,0.62671,0.8418,-2.878,-1.328,-5.901
2026-06-01 16:57:13.918,2216573374,706918,1,-0.14771,0.08691,1.13916,45.672,-26.939,4.015
2026-06-01 16:57:13.918,2216573374,706918,2,0.19238,0.68701,0.69556,4.275,-18.71,1.496
2026-06-01 16:57:14.118,2216573574,707118,1,-0.09253,-0.00977,0.99536,-7.611,5.092,-18.137
2026-06-01 16:57:14.118,2216573574,707118,2,0.23633,0.49634,0.72314,0.29,-2.771,-4.802
2026-06-01 16:57:14.318,2216573774,707318,1,-0.14795,0.03467,0.97559,21.282,8.13,4.351
2026-06-01 16:57:14.318,2216573774,707318,2,0.21069,0.58643,0.61133,12.42,8.0,-6.878
2026-06-01 16:57:14.518,2216573974,707518,1,-0.16626,0.07104,0.95947,25.504,16.756,-0.115
2026-06-01 16:57:14.518,2216573974,707518,2,0.14063,0.63452,0.64819,24.389,16.817,-19.725
2026-06-01 16:57:14.718,2216574174,707718,1,-0.24243,0.22949,1.04834,44.695,11.511,3.405
2026-06-01 16:57:14.718,2216574174,707718,2,0.10962,0.85327,0.58179,25.374,10.939,-26.038
2026-06-01 16:57:14.918,2216574374,707918,1,-0.32202,0.50146,1.15967,32.824,-0.511,-6.962
2026-06-01 16:57:14.918,2216574374,707918,2,-0.02783,1.03809,0.58105,-6.603,-4.076,-1.527
2026-06-01 16:57:15.118,2216574574,708118,1,-0.41406,0.56226,1.27319,-24.267,-8.588,0.115
2026-06-01 16:57:15.118,2216574574,708118,2,0.01343,0.9729,0.71338,-25.084,-19.344,28.206
2026-06-01 16:57:15.318,2216574774,708318,1,-0.34814,0.27222,1.33203,-88.061,-65.122,-1.557
2026-06-01 16:57:15.318,2216574774,708318,2,0.16113,0.53296,0.45947,-32.45,-65.153,99.366
2026-06-01 16:57:15.518,2216574974,708518,1,0.16724,-0.02222,0.76294,-71.206,-97.878,-5.214
2026-06-01 16:57:15.518,2216574974,708518,2,0.6355,0.25488,0.45605,-30.87,-67.031,106.008
2026-06-01 16:57:15.718,2216575174,708718,1,0.4314,-0.21094,0.67798,-65.725,-72.748,-25.427
2026-06-01 16:57:15.718,2216575174,708718,2,0.88745,0.06567,0.34424,-26.489,-52.29,73.573
2026-06-01 16:57:15.918,2216575374,708918,1,0.75073,-0.31348,0.70044,-28.153,-43.176,-7.611
2026-06-01 16:57:15.918,2216575374,708918,2,0.94995,-0.12964,0.21826,-19.244,-32.282,38.573
2026-06-01 16:57:16.118,2216575574,709118,1,0.81177,-0.41455,0.62036,-18.71,-20.511,-5.389
2026-06-01 16:57:16.118,2216575574,709118,2,0.97754,-0.22974,0.20776,-7.901,-8.183,15.374
2026-06-01 16:57:16.318,2216575774,709318,1,0.83643,-0.40308,0.61426,-5.519,-18.466,-1.679
2026-06-01 16:57:16.318,2216575774,709318,2,0.97363,-0.21802,0.18774,-14.13,-1.58,0.954
2026-06-01 16:57:16.518,2216575974,709518,1,0.8584,-0.42505,0.53296,-4.069,-24.916,0.565
2026-06-01 16:57:16.518,2216575974,709518,2,0.96216,-0.24512,0.14722,-22.084,2.832,-15.725
2026-06-01 16:57:16.718,2216576174,709718,1,0.87451,-0.44165,0.44727,14.863,-15.802,-3.176
2026-06-01 16:57:16.718,2216576174,709718,2,0.98047,-0.22388,0.08447,-27.511,-3.092,-6.397
2026-06-01 16:57:16.918,2216576374,709918,1,0.91162,-0.4939,0.42285,22.099,-25.55,-8.649
2026-06-01 16:57:16.918,2216576374,709918,2,1.01123,-0.25049,0.02954,-2.611,-7.924,-13.328
2026-06-01 16:57:17.118,2216576574,710118,1,0.94238,-0.33179,0.42993,34.931,-3.802,1.962
2026-06-01 16:57:17.118,2216576574,710118,2,0.99048,-0.21167,0.05713,25.099,-3.924,0.588
2026-06-01 16:57:17.318,2216576774,710318,1,0.94531,-0.35938,0.44995,23.321,-6.489,10.214
2026-06-01 16:57:17.318,2216576774,710318,2,1.00635,-0.18384,0.04492,10.84,-8.275,-1.275
2026-06-01 16:57:17.518,2216576974,710518,1,0.94751,-0.35254,0.44922,16.29,-2.977,3.947
2026-06-01 16:57:17.518,2216576974,710518,2,1.03271,-0.18188,0.04272,5.176,-1.786,-5.305
2026-06-01 16:57:17.718,2216577174,710718,1,0.9353,-0.32056,0.46289,17.076,-4.275,1.901
2026-06-01 16:57:17.718,2216577174,710718,2,0.99854,-0.13892,0.06689,5.656,-0.168,-1.824
2026-06-01 16:57:17.918,2216577374,710918,1,0.92944,-0.31909,0.44019,-6.771,0.397,0.527
2026-06-01 16:57:17.918,2216577374,710918,2,1.00513,-0.13062,0.05884,-1.015,1.672,1.45
2026-06-01 16:57:18.153,2216577609,711153,1,0.95142,-0.33716,0.39111,-5.672,-10.939,5.313
2026-06-01 16:57:18.153,2216577609,711153,2,1.04956,-0.15869,0.03711,0.069,-3.443,5.198
2026-06-01 16:57:18.353,2216577809,711353,1,0.96143,-0.35962,0.3606,-21.748,-3.069,6.855
2026-06-01 16:57:18.353,2216577809,711353,2,1.03052,-0.1543,0.07202,-3.42,-3.046,1.244
2026-06-01 16:57:18.553,2216578009,711553,1,0.95654,-0.41284,0.33398,5.855,13.679,8.611
2026-06-01 16:57:18.553,2216578009,711553,2,1.01685,-0.18164,0.0105,54.908,7.427,10.382
2026-06-01 16:57:18.753,2216578209,711753,1,0.91797,-0.40283,0.41333,10.626,20.374,8.229
2026-06-01 16:57:18.753,2216578209,711753,2,1.00732,-0.11157,0.11475,58.191,5.29,13.626
2026-06-01 16:57:18.953,2216578409,711953,1,0.85498,-0.51343,0.50586,-14.267,6.87,-11.695
2026-06-01 16:57:18.953,2216578409,711953,2,0.97705,-0.15234,0.2124,-31.26,7.29,-10.802
2026-06-01 16:57:19.153,2216578609,712153,1,0.89771,-0.38794,0.54834,-18.092,14.008,-16.084
2026-06-01 16:57:19.153,2216578609,712153,2,0.98657,-0.17896,0.19824,-20.427,9.321,2.115
2026-06-01 16:57:19.353,2216578809,712353,1,0.89746,-0.39331,0.47583,-24.405,5.031,4.221
2026-06-01 16:57:19.353,2216578809,712353,2,0.96997,-0.14233,0.18677,-33.45,19.412,-0.733
2026-06-01 16:57:19.553,2216579009,712553,1,0.83569,-0.53491,0.5144,-12.824,25.344,10.26
2026-06-01 16:57:19.553,2216579009,712553,2,0.93945,-0.23462,0.17554,-13.511,5.191,-9.511
2026-06-01 16:57:19.753,2216579209,712753,1,0.8147,-0.50879,0.54907,-8.229,35.214,23.656
2026-06-01 16:57:19.753,2216579209,712753,2,0.9458,-0.07056,0.17285,48.366,24.756,18.053
2026-06-01 16:57:19.953,2216579409,712953,1,0.72534,-0.68896,0.56763,-6.885,6.382,13.397
2026-06-01 16:57:19.953,2216579409,712953,2,0.97021,-0.08105,0.29517,13.504,25.321,-6.015
2026-06-01 16:57:20.153,2216579609,713153,1,0.604,-0.73267,0.60132,5.511,-13.58,21.977
2026-06-01 16:57:20.153,2216579609,713153,2,1.07446,-0.05151,0.13745,0.481,38.885,-22.214
2026-06-01 16:57:20.353,2216579809,713353,1,0.64185,-0.70825,0.61475,5.573,4.595,11.878
2026-06-01 16:57:20.353,2216579809,713353,2,0.97266,-0.1687,0.25269,0.26,33.954,7.985
2026-06-01 16:57:20.553,2216580009,713553,1,0.60278,-0.67798,0.61646,9.794,3.244,3.458
2026-06-01 16:57:20.553,2216580009,713553,2,0.97192,-0.09448,0.40601,-1.687,10.588,1.115
2026-06-01 16:57:20.753,2216580209,713753,1,0.62988,-0.70898,0.61694,4.115,6.29,0.397
2026-06-01 16:57:20.753,2216580209,713753,2,0.80591,-0.11816,0.45117,2.802,17.863,-6.58
2026-06-01 16:57:20.953,2216580409,713953,1,0.60498,-0.68066,0.65894,4.992,7.29,-7.084
2026-06-01 16:57:20.953,2216580409,713953,2,0.86426,-0.10425,0.39209,-5.29,-1.221,-9.145
2026-06-01 16:57:21.153,2216580609,714153,1,0.66162,-0.66406,0.62085,-4.443,2.863,-9.626
2026-06-01 16:57:21.153,2216580609,714153,2,0.90869,-0.11426,0.37476,-4.031,-6.382,1.534
2026-06-01 16:57:21.353,2216580809,714353,1,0.65552,-0.60596,0.62866,-2.573,2.13,-3.611
2026-06-01 16:57:21.353,2216580809,714353,2,0.91846,-0.09717,0.42236,-20.466,6.809,-5.023
2026-06-01 16:57:21.553,2216581009,714553,1,0.65674,-0.62817,0.62451,1.603,3.611,-3.473
2026-06-01 16:57:21.553,2216581009,714553,2,0.90063,-0.11108,0.41968,-18.443,5.664,-4.214
2026-06-01 16:57:21.753,2216581209,714753,1,0.6521,-0.625,0.64111,6.771,0.992,0.046
