datetime,epoch_ms,ts_millis,mpu_id,ax,ay,az,gx,gy,gz
2026-05-23 15:23:30.976,1433350432,11976,1,0.97241,0.38745,0.04639,-43.527,-4.626,-4.229
2026-05-23 15:23:30.976,1433350432,11976,2,0.88257,0.56128,0.33398,-63.84,4.443,-3.908
2026-05-23 15:23:30.203,1433349659,12203,1,1.21021,-0.19263,0.42163,-114.809,6.191,-34.466
2026-05-23 15:23:30.203,1433349659,12203,2,1.04688,0.55469,0.16992,-10.107,-5.763,-37.359
2026-05-23 15:23:30.403,1433349859,12403,1,0.92188,-0.13989,0.11255,-132.786,6.405,-5.565
2026-05-23 15:23:30.403,1433349859,12403,2,0.91113,0.13647,0.48975,-63.023,-14.206,8.115
2026-05-23 15:23:31.603,1433351059,12603,1,0.94556,-0.31421,0.12891,-75.168,-19.634,-28.435
2026-05-23 15:23:31.603,1433351059,12603,2,0.82666,0.13867,0.55469,-71.527,-48.534,-27.786
2026-05-23 15:23:31.803,1433351259,12803,1,1.16431,0.2124,0.04297,-54.069,-24.122,-20.069
2026-05-23 15:23:31.803,1433351259,12803,2,1.01001,0.19409,0.47095,-70.275,-7.122,-26.282
2026-05-23 15:23:31.003,1433350459,13003,1,0.95825,0.38501,0.0874,-52.008,-3.679,-34.71
2026-05-23 15:23:31.003,1433350459,13003,2,0.91577,0.35498,0.48608,-44.557,-26.74,-14.992
2026-05-23 15:23:34.622,1433354078,15622,1,0.86646,0.42529,0.24268,18.74,-6.771,15.618
2026-05-23 15:23:34.622,1433354078,15622,2,1.09253,0.26807,0.59912,-50.489,-66.008,39.305
2026-05-23 15:23:34.822,1433354278,15822,1,1.01172,0.13086,0.08594,-15.466,-31.023,-1.832
2026-05-23 15:23:34.822,1433354278,15822,2,1.04932,0.25464,0.35571,-25.481,-44.099,-2.748
2026-05-23 15:23:34.028,1433353484,16027,1,1.02515,0.12378,0.04565,-4.26,-20.221,-4.496
2026-05-23 15:23:34.028,1433353484,16027,2,0.94263,0.20972,0.35278,-18.069,-10.687,-4.74
2026-05-23 15:23:34.227,1433353683,16227,1,1.07007,0.08008,0.03271,2.611,-11.397,8.87
2026-05-23 15:23:34.227,1433353683,16227,2,0.90747,0.27026,0.29736,17.786,1.679,4.237
2026-05-23 15:23:34.427,1433353883,16427,1,1.05078,0.09863,0.03857,6.519,-0.252,5.832
2026-05-23 15:23:34.427,1433353883,16427,2,0.91187,0.34253,0.2644,-6.664,-1.771,-3.618
2026-05-23 15:23:35.627,1433355083,16627,1,1.02808,0.1189,0.05029,14.855,9.962,-0.405
2026-05-23 15:23:35.627,1433355083,16627,2,0.92725,0.30518,0.2688,-3.855,7.023,7.809
2026-05-23 15:23:35.827,1433355283,16827,1,1.0166,0.12036,0.04663,-27.298,-29.099,-0.45
2026-05-23 15:23:35.827,1433355283,16827,2,0.95654,0.30786,0.22168,-2.992,-1.565,4.008
2026-05-23 15:23:35.027,1433354483,17027,1,1.05298,0.11108,0.01318,23.588,5.115,1.55
2026-05-23 15:23:35.027,1433354483,17027,2,0.93188,0.3667,0.39917,-3.802,-3.962,5.718
2026-05-23 15:23:35.227,1433354683,17227,1,1.05908,0.15527,0.00293,-6.809,1.397,-1.679
2026-05-23 15:23:35.227,1433354683,17227,2,0.92993,0.26025,0.29834,-6.038,0.031,1.053
2026-05-23 15:23:35.442,1433354898,17441,1,1.05005,0.12012,-0.00903,-2.16,8.664,-0.168
2026-05-23 15:23:35.442,1433354898,17441,2,0.69751,0.38525,0.41064,4.954,50.809,24.489
2026-05-23 15:23:36.641,1433356097,17641,1,1.03735,0.07983,0.05127,-6.878,10.229,2.748
2026-05-23 15:23:36.641,1433356097,17641,2,0.94824,0.27661,0.34473,4.84,13.817,-2.351
2026-05-23 15:23:36.841,1433356297,17841,1,1.04565,0.10156,0.04712,3.794,2.214,-1.405
2026-05-23 15:23:36.841,1433356297,17841,2,0.89819,0.25781,0.3396,3.374,6.389,-1.008
2026-05-23 15:23:36.041,1433355497,18041,1,1.02173,-0.09009,-0.01416,-65.008,15.427,4.863
2026-05-23 15:23:36.041,1433355497,18041,2,0.89404,0.2749,0.31372,-13.733,3.588,4.275
2026-05-23 15:23:39.287,1433358743,21286,1,0.94727,0.30103,0.23633,-5.893,35.924,0.336
2026-05-23 15:23:39.287,1433358743,21286,2,0.80859,0.50171,0.36792,26.176,28.374,0.481
2026-05-23 15:23:40.979,1433360435,21979,1,0.99902,0.03198,0.16455,-41.176,-12.809,-7.534
2026-05-23 15:23:40.979,1433360435,21979,2,1.00366,0.29419,0.52539,-44.099,-7.427,-6.45
2026-05-23 15:23:40.179,1433359635,22179,1,0.96118,-0.05127,0.125,-7.031,-4.359,3.145
2026-05-23 15:23:40.179,1433359635,22179,2,0.87769,0.30005,0.5376,44.878,15.947,-16.733
2026-05-23 15:23:40.397,1433359853,22397,1,0.97119,0.10913,0.14795,29.939,-4.55,0.038
2026-05-23 15:23:40.397,1433359853,22397,2,0.93018,0.32471,0.42993,16.855,-10.527,19.519
2026-05-23 15:23:41.597,1433361053,22597,1,1.00146,0.23364,0.13403,31.87,5.763,2.985
2026-05-23 15:23:41.597,1433361053,22597,2,0.81152,0.44727,0.70801,0.237,-1.916,3.855
2026-05-23 15:23:43.486,1433362942,25486,1,0.7395,-0.00366,0.6272,5.977,-11.176,0.939
2026-05-23 15:23:43.486,1433362942,25486,2,0.80688,0.39941,0.66992,5.832,-20.626,13.0
2026-05-23 15:23:44.686,1433364142,25686,1,0.79517,0.0542,0.4707,16.908,-50.55,0.008
2026-05-23 15:23:44.686,1433364142,25686,2,1.02881,0.35742,0.35718,-0.046,0.893,14.939
2026-05-23 15:23:46.499,1433365955,28499,1,1.07275,0.06787,-0.00122,0.305,0.71,9.359
2026-05-23 15:23:46.499,1433365955,28499,2,0.7019,0.37305,-0.00659,4.924,44.069,8.565
2026-05-23 15:23:47.699,1433367155,28699,1,1.09888,0.15234,0.04785,,8.58,0.046
2026-05-23 15:23:47.699,1433367155,28699,2,0.89893,0.38721,0.28369,-14.901,-6.702,-4.229
2026-05-23 15:23:47.899,1433367355,28899,1,1.0415,0.14478,0.13062,-8.427,-1.13,-0.282
2026-05-23 15:23:47.899,1433367355,28899,2,0.84839,0.30811,0.22485,-25.809,-12.649,-1.443
2026-05-23 15:23:47.099,1433366555,29099,1,1.08301,0.15845,0.06128,18.427,6.947,8.252
2026-05-23 15:23:47.099,1433366555,29099,2,0.9231,0.35962,0.2832,-5.924,9.405,1.885
2026-05-23 15:23:47.305,1433366761,29305,1,1.03589,0.09644,0.09668,-7.779,6.176,4.534
2026-05-23 15:23:47.305,1433366761,29305,2,0.89844,0.32031,0.25854,13.473,11.374,14.527
2026-05-23 15:23:48.505,1433367961,29505,1,1.06348,0.12378,0.07764,-2.282,7.748,-6.412
2026-05-23 15:23:48.505,1433367961,29505,2,1.01294,0.32349,0.30493,17.939,37.527,4.214
2026-05-23 15:23:51.678,1433371134,32678,1,1.04028,0.0896,0.00586,-22.763,23.756,-10.008
2026-05-23 15:23:51.678,1433371134,32678,2,0.92383,0.37549,0.39087,-15.656,24.137,-23.672
2026-05-23 15:23:51.878,1433371334,32878,1,0.95679,0.07959,0.1394,-26.817,39.176,-14.0
2026-05-23 15:23:51.878,1433371334,32878,2,0.95459,0.30493,0.48218,9.015,28.588,-16.191
2026-05-23 15:23:51.078,1433370534,33078,1,0.93408,0.19409,0.24561,10.847,32.122,22.954
2026-05-23 15:23:51.078,1433370534,33078,2,0.91748,0.41479,0.30005,21.282,32.931,3.076
2026-05-23 15:23:51.278,1433370734,33278,1,0.8916,0.2981,0.31274,29.809,38.435,24.351
2026-05-23 15:23:51.278,1433370734,33278,2,0.37598,0.44141,0.72192,-34.031,12.298,-38.511
2026-05-23 15:23:54.130,1433373586,36130,1,0.17017,-0.12622,0.8457,-21.634,52.275,-8.573
2026-05-23 15:23:54.130,1433373586,36130,2,0.47681,0.7124,0.98755,-18.031,-18.351,-18.893
2026-05-23 15:23:54.330,1433373786,36330,1,0.3064,-0.08252,0.85059,4.107,26.908,9.321
2026-05-23 15:23:54.330,1433373786,36330,2,0.40967,0.63599,1.01587,-11.878,3.053,-9.405
2026-05-23 15:23:55.549,1433375005,36549,1,0.01318,-0.13306,0.82935,-7.45,-11.557,-6.076
2026-05-23 15:23:55.549,1433375005,36549,2,0.31372,0.47852,0.80127,-6.931,-32.443,17.435
2026-05-23 15:23:55.749,1433375205,36749,1,0.1936,-0.08545,0.72998,24.863,-137.534,-6.786
2026-05-23 15:23:55.749,1433375205,36749,2,0.84717,0.2561,0.7124,-60.389,3.229,1.374
2026-05-23 15:23:58.959,1433378415,39958,1,0.80078,-0.45435,0.5022,-29.122,11.13,8.771
2026-05-23 15:23:58.959,1433378415,39958,2,0.8999,0.2417,0.85645,-18.092,6.107,6.527
2026-05-23 15:23:58.158,1433377614,40158,1,0.73804,-0.36133,0.48096,9.229,-1.687,1.191
2026-05-23 15:23:58.158,1433377614,40158,2,0.83643,0.34497,0.83496,8.344,-3.305,0.962
2026-05-23 15:23:58.358,1433377814,40358,1,0.8103,-0.39111,0.53271,30.412,-11.107,8.588
2026-05-23 15:23:58.358,1433377814,40358,2,0.92627,0.39624,0.72046,6.969,6.427,-9.679
2026-05-23 15:23:59.558,1433379014,40558,1,0.69214,-0.25513,0.54883,25.939,0.573,3.466
2026-05-23 15:23:59.558,1433379014,40558,2,0.86499,0.40918,0.823,7.573,9.779,-1.916
2026-05-23 15:23:59.758,1433379214,40758,1,0.83423,-0.18457,0.46924,14.42,6.557,3.969
2026-05-23 15:23:59.758,1433379214,40758,2,0.82373,0.44678,0.78589,-5.779,14.122,-5.527
2026-05-23 15:23:59.958,1433379414,40958,1,0.55151,-0.19775,0.69287,20.023,-5.733,-2.443
2026-05-23 15:23:59.958,1433379414,40958,2,0.78345,0.44897,0.82446,12.901,-10.191,1.695
2026-05-23 15:23:59.158,1433378614,41158,1,0.75854,-0.09668,0.5332,-6.87,-5.374,-5.878
2026-05-23 15:23:59.158,1433378614,41158,2,0.81152,0.45581,0.77979,-9.802,-8.344,4.885
2026-05-23 15:23:59.358,1433378814,41358,1,0.69434,-0.08887,0.6084,7.313,1.382,-2.611
2026-05-23 15:23:59.358,1433378814,41358,2,0.82471,0.42529,0.78052,-0.74,-8.168,-8.603
2026-05-23 15:24:00.558,1433380014,41558,1,0.75488,-0.06592,0.61914,12.466,0.336,6.313
2026-05-23 15:24:00.558,1433380014,41558,2,0.78198,0.51074,0.67944,9.725,6.656,-2.137
2026-05-23 15:24:00.844,1433380300,41844,1,0.69214,-0.06616,0.63965,-26.618,-4.359,-9.603
2026-05-23 15:24:00.844,1433380300,41844,2,0.78955,0.46948,0.70605,-15.763,3.198,9.069
2026-05-23 15:24:00.044,1433379500,42044,1,0.78906,-0.10889,0.53101,-40.282,-10.962,-4.076
2026-05-23 15:24:00.044,1433379500,42044,2,0.87451,0.4563,0.74585,-23.069,23.015,-14.916
2026-05-23 15:24:00.244,1433379700,42244,1,0.87671,-0.2229,0.6084,-35.695,16.939,-6.0
2026-05-23 15:24:00.244,1433379700,42244,2,0.90796,0.45654,0.79004,-45.427,7.977,-29.351
2026-05-23 15:24:00.444,1433379900,42444,1,0.62744,-0.30151,0.62402,-20.931,-1.008,-31.298
2026-05-23 15:24:00.444,1433379900,42444,2,0.88818,0.37646,0.48242,3.107,1.489,-4.58
2026-05-23 15:24:03.447,1433382903,45446,1,0.9436,-0.0127,0.33081,-2.519,1.252,-10.0
2026-05-23 15:24:03.447,1433382903,45446,2,0.8291,0.71216,0.48975,36.321,7.176,14.893
2026-05-23 15:24:06.462,1433385918,48462,1,0.72949,0.20532,0.3772,1.229,-13.931,-7.366
2026-05-23 15:24:06.462,1433385918,48462,2,0.99146,0.49146,0.43628,47.863,3.802,26.481
2026-05-23 15:24:07.662,1433387118,48662,1,0.9375,0.20703,0.29956,35.771,-26.634,7.687
2026-05-23 15:24:07.662,1433387118,48662,2,0.82056,0.44287,0.33691,-14.214,-43.397,13.214
2026-05-23 15:24:07.862,1433387318,48862,1,1.05469,0.01831,0.27832,-6.519,-14.641,4.137
2026-05-23 15:24:07.862,1433387318,48862,2,1.0603,0.11719,0.63623,8.901,5.29,0.153
2026-05-23 15:24:07.062,1433386518,49062,1,1.15698,-0.06396,0.04492,32.527,27.42,19.275
2026-05-23 15:24:07.062,1433386518,49062,2,0.83984,0.16431,0.3877,48.824,27.695,-7.725
2026-05-23 15:24:07.262,1433386718,49262,1,0.79053,0.36938,0.09644,91.107,86.985,56.321
2026-05-23 15:24:07.262,1433386718,49262,2,0.74658,0.65234,0.31982,-36.206,41.023,8.893
2026-05-23 15:24:07.462,1433386918,49462,1,0.74292,0.25317,0.28833,-31.031,26.176,32.427
2026-05-23 15:24:07.462,1433386918,49462,2,0.76978,0.28857,0.71509,-21.313,58.588,-76.847
2026-05-23 15:24:08.662,1433388118,49662,1,0.32471,-0.02124,0.48462,-10.534,103.214,9.313
2026-05-23 15:24:08.662,1433388118,49662,2,0.34033,0.51465,0.63306,14.664,46.092,-20.275
2026-05-23 15:24:08.862,1433388318,49862,1,0.25146,0.08008,0.81201,6.229,9.0,12.649
2026-05-23 15:24:08.862,1433388318,49862,2,0.54297,0.55225,0.79614,-2.214,-10.16,25.122
2026-05-23 15:24:08.062,1433387518,50062,1,0.38843,0.04492,0.83618,-27.977,-44.702,-5.687
2026-05-23 15:24:08.062,1433387518,50062,2,0.68677,0.78857,0.89966,17.595,3.664,5.649
2026-05-23 15:24:08.262,1433387718,50262,1,0.59082,0.08618,0.98169,3.809,-2.939,7.962
2026-05-23 15:24:08.262,1433387718,50262,2,0.78223,0.92529,1.17432,5.252,-0.802,13.649
2026-05-23 15:24:08.462,1433387918,50462,1,0.47949,-0.13794,0.73145,11.321,3.634,-2.855
2026-05-23 15:24:08.462,1433387918,50462,2,0.4292,0.4895,0.8186,7.679,-13.427,8.435
2026-05-23 15:24:09.662,1433389118,50662,1,0.78979,-0.01221,0.65112,3.282,-14.122,-5.191
2026-05-23 15:24:09.662,1433389118,50662,2,0.93042,0.75806,0.96997,-1.832,-24.985,5.435
2026-05-23 15:24:09.862,1433389318,50862,1,0.8103,-0.01245,1.17676,-6.053,24.267,18.008
2026-05-23 15:24:09.862,1433389318,50862,2,1.0332,0.77124,1.12231,11.275,21.626,-6.443
2026-05-23 15:24:09.062,1433388518,51062,1,0.62012,0.02173,0.40991,-11.557,48.656,3.191
2026-05-23 15:24:09.062,1433388518,51062,2,0.61108,0.55933,0.77173,-17.618,24.542,-6.183
2026-05-23 15:24:09.262,1433388718,51262,1,0.2356,-0.00488,0.80859,-4.947,30.26,11.038
2026-05-23 15:24:09.262,1433388718,51262,2,0.60522,0.67725,0.94141,6.176,44.206,-11.015
2026-05-23 15:24:09.462,1433388918,51462,1,0.12939,-0.14697,0.84595,-0.832,23.389,12.58
2026-05-23 15:24:09.462,1433388918,51462,2,0.44165,0.59717,1.02148,4.244,25.168,-9.29
2026-05-23 15:24:10.662,1433390118,51662,1,0.1709,-0.1665,0.95703,2.023,-37.13,0.42
2026-05-23 15:24:10.662,1433390118,51662,2,0.45923,0.56616,0.92603,4.389,-31.427,19.557
2026-05-23 15:24:10.862,1433390318,51862,1,0.13916,-0.01782,0.61377,36.527,-107.794,-3.58
2026-05-23 15:24:10.862,1433390318,51862,2,0.47314,0.37354,0.61841,26.359,-58.115,54.389
2026-05-23 15:24:13.702,1433393158,54701,1,0.40308,-0.09009,0.82593,-8.168,35.26,-4.176
2026-05-23 15:24:13.702,1433393158,54701,2,0.56519,0.53857,0.82666,-5.893,22.214,-11.901
2026-05-23 15:24:13.901,1433393357,54901,1,0.40137,0.03516,0.87256,8.504,-17.611,-6.863
2026-05-23 15:24:13.901,1433393357,54901,2,0.68335,0.65186,0.88989,4.221,-32.87,27.939
2026-05-23 15:24:13.101,1433392557,55101,1,0.62769,0.11157,0.63208,9.0,-36.573,-2.687
2026-05-23 15:24:13.101,1433392557,55101,2,0.74292,0.58301,0.73438,-0.71,-22.718,16.412
2026-05-23 15:24:13.301,1433392757,55301,1,0.41724,-0.09253,0.48779,-2.473,0.336,8.962
2026-05-23 15:24:13.301,1433392757,55301,2,0.49268,0.1875,0.83887,-17.023,-15.435,12.809
2026-05-23 15:24:14.501,1433393957,55501,1,0.91235,-0.22681,0.60132,11.221,-37.214,4.939
2026-05-23 15:24:14.501,1433393957,55501,2,0.85938,0.62305,1.09009,42.0,30.26,21.122
2026-05-23 15:24:14.701,1433394157,55701,1,0.71704,0.19727,0.37646,15.244,67.351,8.29
2026-05-23 15:24:14.701,1433394157,55701,2,0.84326,0.49585,0.90234,-86.282,60.023,-64.214
2026-05-23 15:24:14.901,1433394357,55901,1,0.1394,-0.18677,0.72485,-38.885,137.282,4.298
2026-05-23 15:24:14.901,1433394357,55901,2,0.40063,0.59766,0.92529,-2.015,93.031,-64.756
2026-05-23 15:24:14.101,1433393557,56101,1,-0.22119,-0.03101,0.84326,-13.305,97.397,0.542
2026-05-23 15:24:14.101,1433393557,56101,2,-0.07861,0.68457,1.24121,-13.252,33.008,-21.702
2026-05-23 15:24:14.301,1433393757,56301,1,-0.63892,-0.11938,0.74097,-10.565,34.198,-1.863
2026-05-23 15:24:14.301,1433393757,56301,2,-0.13696,0.58398,1.21533,-9.374,17.252,-9.313
2026-05-23 15:24:15.501,1433394957,56501,1,-0.51538,-0.05859,0.60767,-12.87,15.71,3.725
2026-05-23 15:24:15.501,1433394957,56501,2,-0.16699,0.56836,1.26758,-20.794,20.855,3.023
2026-05-23 15:24:15.701,1433395157,56701,1,-0.6438,-0.3584,0.69067,-13.023,-3.344,-3.42
2026-05-23 15:24:15.701,1433395157,56701,2,-0.17285,0.50513,1.32251,-5.092,-2.305,2.74
2026-05-23 15:24:15.901,1433395357,56901,1,-0.59033,-0.24316,0.77637,-10.771,-4.122,13.885
2026-05-23 15:24:15.901,1433395357,56901,2,-0.07617,0.61548,1.21338,11.405,-50.557,38.015
2026-05-23 15:24:15.101,1433394557,57101,1,-0.41577,-0.12744,0.79688,3.817,-68.084,-0.885
2026-05-23 15:24:15.101,1433394557,57101,2,0.21631,0.65381,1.18384,16.183,-62.931,51.679
2026-05-23 15:24:15.301,1433394757,57301,1,-0.05688,-0.19482,0.8335,12.916,-139.878,-16.756
2026-05-23 15:24:15.301,1433394757,57301,2,0.48608,0.4895,0.77441,30.168,-90.595,57.084
2026-05-23 15:24:16.501,1433395957,57501,1,0.53467,0.09985,0.48584,49.718,-133.023,-4.183
2026-05-23 15:24:16.501,1433395957,57501,2,1.33984,0.7627,0.82422,83.802,-51.702,32.115
2026-05-23 15:24:16.724,1433396180,57723,1,0.8645,0.05273,0.46924,11.916,-80.183,0.107
2026-05-23 15:24:16.724,1433396180,57723,2,0.85815,0.62695,0.67163,11.786,-18.893,13.771
2026-05-23 15:24:16.923,1433396379,57923,1,0.94849,0.09619,0.20483,-8.626,-58.611,-0.496
2026-05-23 15:24:16.923,1433396379,57923,2,0.9834,0.29175,0.39307,2.931,-35.481,32.855
2026-05-23 15:24:16.123,1433395579,58123,1,0.98267,0.09912,0.14307,-11.893,-1.351,1.794
2026-05-23 15:24:16.123,1433395579,58123,2,0.93481,0.41797,0.36353,2.58,6.74,9.069
2026-05-23 15:24:16.323,1433395779,58323,1,1.02124,0.08862,0.21655,-12.687,9.397,0.504
2026-05-23 15:24:16.323,1433395779,58323,2,0.90308,0.37231,0.39868,-8.916,11.786,-7.252
2026-05-23 15:24:17.525,1433396981,58525,1,0.97412,0.05762,0.2168,-14.16,31.725,-0.84
2026-05-23 15:24:17.525,1433396981,58525,2,0.9187,0.42139,0.44702,-22.618,24.481,-9.618
2026-05-23 15:24:17.725,1433397181,58725,1,0.89478,0.09668,0.3855,-6.504,66.282,2.183
2026-05-23 15:24:17.725,1433397181,58725,2,0.7373,0.45361,0.7168,-32.191,33.626,-28.962
2026-05-23 15:24:17.925,1433397381,58925,1,0.604,-0.03882,0.41406,-19.122,89.924,-1.099
2026-05-23 15:24:17.925,1433397381,58925,2,0.70264,0.54175,0.84204,-25.183,49.397,-47.046
2026-05-23 15:24:17.125,1433396581,59125,1,0.31738,0.03247,0.82715,-4.405,114.16,15.74
2026-05-23 15:24:17.125,1433396581,59125,2,0.41235,0.65869,1.05859,-34.397,59.374,-34.893
2026-05-23 15:24:17.332,1433396788,59332,1,-0.10303,-0.16821,0.97778,-12.305,84.466,11.344
2026-05-23 15:24:17.332,1433396788,59332,2,0.4873,0.72656,1.10889,-6.893,46.626,-30.473
2026-05-23 15:24:18.532,1433397988,59532,1,-0.16211,-0.08789,0.64429,-18.481,53.863,8.115
2026-05-23 15:24:18.532,1433397988,59532,2,0.08179,0.68774,1.15991,-13.863,30.26,-18.489
2026-05-23 15:24:18.732,1433398188,59732,1,-0.43896,-0.19922,0.79199,-2.466,34.313,-1.84
2026-05-23 15:24:18.732,1433398188,59732,2,0.04297,0.63867,1.21899,-12.725,20.496,-14.947
2026-05-23 15:24:18.932,1433398388,59932,1,-0.5083,-0.10205,0.67505,-9.191,22.656,0.015
2026-05-23 15:24:18.932,1433398388,59932,2,-0.29663,0.60693,1.37231,-5.458,18.374,-6.878
2026-05-23 15:24:18.132,1433397588,60132,1,-0.54126,-0.16333,0.67773,-2.557,-18.939,-4.237
2026-05-23 15:24:18.132,1433397588,60132,2,-0.05566,0.68164,1.19653,-9.168,-4.748,19.45
2026-05-23 15:24:18.332,1433397788,60332,1,-0.48828,-0.29712,0.80688,13.153,-33.29,-26.58
2026-05-23 15:24:18.332,1433397788,60332,2,0.02637,0.62915,1.26367,-6.351,-40.794,20.901
2026-05-23 15:24:19.532,1433398988,60532,1,-0.27856,-0.29688,0.7832,14.718,-49.145,-31.29
2026-05-23 15:24:19.532,1433398988,60532,2,0.16528,0.57886,1.2334,6.359,-54.336,7.786
2026-05-23 15:24:19.732,1433399188,60732,1,-0.06665,-0.15601,0.75293,18.13,-38.84,-29.71
2026-05-23 15:24:19.732,1433399188,60732,2,0.3584,0.6001,1.08887,9.061,-45.038,6.641
2026-05-23 15:24:19.932,1433399388,60932,1,0.03613,-0.19141,0.83691,-10.863,-36.206,-26.397
2026-05-23 15:24:19.932,1433399388,60932,2,0.45313,0.66821,1.04639,-3.046,-39.466,4.58
2026-05-23 15:24:19.148,1433398604,61148,1,0.13184,-0.12354,0.91431,7.992,-57.595,-29.427
2026-05-23 15:24:19.148,1433398604,61148,2,0.54736,0.62134,0.94897,-7.053,-61.023,17.313
2026-05-23 15:24:19.348,1433398804,61348,1,0.29199,-0.00708,0.80322,-2.267,17.824,-33.901
2026-05-23 15:24:19.348,1433398804,61348,2,0.5354,0.62402,0.99805,-22.672,-26.29,-17.321
2026-05-23 15:24:20.562,1433400018,61562,1,0.44824,-0.15869,0.76245,33.985,10.405,-18.595
2026-05-23 15:24:20.562,1433400018,61562,2,0.69238,0.52637,0.92554,23.214,-8.084,2.481
2026-05-23 15:24:20.762,1433400218,61762,1,0.4292,0.09009,0.78394,34.267,-36.344,9.916
2026-05-23 15:24:20.762,1433400218,61762,2,0.7168,0.51343,0.62915,46.229,-29.786,43.702
2026-05-23 15:24:20.962,1433400418,61962,1,0.53491,0.10254,0.69385,56.519,-89.901,46.176
2026-05-23 15:24:20.962,1433400418,61962,2,0.80786,0.30615,0.49878,49.641,-43.618,55.794
2026-05-23 15:24:20.162,1433399618,62162,1,1.0918,0.16968,0.12866,105.733,-85.176,56.641
2026-05-23 15:24:20.162,1433399618,62162,2,0.89404,0.37671,0.39331,6.557,-28.351,16.099
2026-05-23 15:24:20.364,1433399820,62364,1,1.00171,0.24829,-0.01758,3.244,-47.122,10.237
2026-05-23 15:24:20.364,1433399820,62364,2,0.8064,0.36841,0.32031,9.069,-3.153,34.176
2026-05-23 15:24:21.564,1433401020,62564,1,0.9397,0.10156,-0.22144,-25.557,29.557,-19.893
2026-05-23 15:24:21.564,1433401020,62564,2,0.9978,0.20557,0.13403,24.863,18.847,-6.832
2026-05-23 15:24:21.764,1433401220,62764,1,1.08057,0.21973,-0.13745,-4.534,22.809,-18.641
2026-05-23 15:24:21.764,1433401220,62764,2,1.02637,0.37012,0.16821,24.786,61.313,-26.305
2026-05-23 15:24:21.964,1433401420,62964,1,0.94336,0.30151,0.07568,-12.458,95.954,-6.687
2026-05-23 15:24:21.964,1433401420,62964,2,0.84985,0.27832,0.39453,33.611,75.908,-54.092
2026-05-23 15:24:21.164,1433400620,63164,1,0.71826,0.30176,0.50049,30.679,54.779,24.267
2026-05-23 15:24:21.164,1433400620,63164,2,0.7373,0.65674,0.35742,33.382,30.389,-8.802
2026-05-23 15:24:21.364,1433400820,63364,1,0.72656,0.38501,0.48462,-17.763,-26.885,10.229
2026-05-23 15:24:21.364,1433400820,63364,2,0.77905,0.55225,0.49023,-44.427,-18.267,29.038
2026-05-23 15:24:22.564,1433402020,63564,1,0.97168,-0.00562,0.35059,-44.649,-43.282,4.557
2026-05-23 15:24:22.564,1433402020,63564,2,0.77344,0.3562,0.56323,-1.053,-20.588,23.916
2026-05-23 15:24:22.764,1433402220,63764,1,0.99731,0.16211,0.20117,-54.076,-42.344,6.725
2026-05-23 15:24:22.764,1433402220,63764,2,0.95581,0.38843,0.45947,-39.916,-14.191,20.695
2026-05-23 15:24:22.964,1433402420,63964,1,0.96313,-0.12598,0.19849,-20.679,7.168,5.489
2026-05-23 15:24:22.964,1433402420,63964,2,1.02759,0.15771,0.49731,-34.931,-22.29,14.427
2026-05-23 15:24:22.164,1433401620,64164,1,0.86646,-0.00269,0.12207,16.656,-30.137,-7.74
2026-05-23 15:24:22.164,1433401620,64164,2,1.41772,0.33008,0.23535,-1.634,18.473,5.405
2026-05-23 15:24:22.364,1433401820,64364,1,1.13086,0.15332,0.0752,0.985,-3.702,-5.153
2026-05-23 15:24:22.364,1433401820,64364,2,0.97998,-0.00439,0.11108,201.603,3.405,69.817
2026-05-23 15:24:23.564,1433403020,64564,1,1.01709,0.04419,0.11963,30.702,9.634,3.473
2026-05-23 15:24:23.564,1433403020,64564,2,0.8418,0.33545,0.46924,34.351,43.282,-21.298
2026-05-23 15:24:23.764,1433403220,64764,1,0.9209,0.4126,0.24658,26.985,6.282,31.435
2026-05-23 15:24:23.764,1433403220,64764,2,0.7478,0.35938,0.17822,-2.313,-3.809,21.321
2026-05-23 15:24:23.964,1433403420,64964,1,0.97632,0.06079,0.1377,-10.305,-10.779,2.832
2026-05-23 15:24:23.964,1433403420,64964,2,0.88379,0.33594,0.22534,-5.74,10.527,1.298
2026-05-23 15:24:23.164,1433402620,65164,1,1.03052,0.16284,0.12427,2.305,-8.13,2.611
2026-05-23 15:24:23.164,1433402620,65164,2,0.87915,0.24878,0.24438,1.092,-10.038,15.015
2026-05-23 15:24:26.177,1433405633,68177,1,1.03516,0.01147,0.05713,-31.855,-14.443,-12.664
2026-05-23 15:24:26.177,1433405633,68177,2,1.00684,0.21021,0.41406,-23.061,-28.206,4.634
2026-05-23 15:24:26.393,1433405849,68393,1,0.99854,0.05884,0.02637,15.366,15.924,3.794
2026-05-23 15:24:26.393,1433405849,68393,2,0.99292,0.21191,0.45557,-11.802,9.977,-5.092
2026-05-23 15:24:27.593,1433407049,68593,1,1.02856,0.17407,-0.00073,6.84,-11.031,3.847
2026-05-23 15:24:27.593,1433407049,68593,2,0.82739,0.07397,0.28418,4.595,19.397,18.298
2026-05-23 15:24:27.793,1433407249,68793,1,1.07373,0.1731,-0.01611,-21.023,-16.962,1.878
2026-05-23 15:24:27.793,1433407249,68793,2,0.95459,0.21533,0.28979,-32.756,-31.45,14.87
2026-05-23 15:24:27.993,1433407449,68993,1,1.0459,0.1394,-0.04102,-33.504,-15.649,5.565
2026-05-23 15:24:27.993,1433407449,68993,2,0.89258,0.24634,0.48901,44.931,154.321,-49.916
2026-05-23 15:24:30.842,1433410298,71842,1,1.06885,0.05566,0.05176,107.282,70.595,4.794
2026-05-23 15:24:30.842,1433410298,71842,2,0.73389,0.03442,0.39404,-34.771,-21.863,10.702
2026-05-23 15:24:30.042,1433409498,72042,1,1.0332,0.05664,-0.01343,2.496,8.382,0.008
2026-05-23 15:24:30.042,1433409498,72042,2,1.02344,0.00146,0.42749,5.351,9.084,-10.878
2026-05-23 15:24:30.294,1433409750,72294,1,1.04614,0.03711,0.02515,8.87,9.031,-0.802
2026-05-23 15:24:30.294,1433409750,72294,2,0.94312,0.0835,0.48779,-4.45,0.405,-6.786
2026-05-23 15:24:30.494,1433409950,72494,1,1.05908,0.03247,0.08081,-7.824,12.763,1.947
2026-05-23 15:24:30.494,1433409950,72494,2,0.96631,0.05225,0.30957,6.763,-60.405,34.565
2026-05-23 15:24:31.694,1433411150,72694,1,1.03882,0.06152,0.08081,2.718,-3.695,4.763
2026-05-23 15:24:31.694,1433411150,72694,2,0.90356,0.05322,0.3667,6.618,3.099,-5.466
2026-05-23 15:24:31.894,1433411350,72894,1,1.09033,0.0188,0.09204,-0.107,-24.519,-1.992
2026-05-23 15:24:31.894,1433411350,72894,2,0.94678,0.06201,0.38135,-7.435,-22.641,8.191
2026-05-23 15:24:31.094,1433410550,73094,1,1.09277,0.02148,-0.00488,-8.061,-8.611,1.672
2026-05-23 15:24:31.094,1433410550,73094,2,0.97192,0.03149,0.30127,7.939,3.802,-1.595
2026-05-23 15:24:31.294,1433410750,73294,1,1.0293,0.04419,-0.00757,1.107,12.794,4.145
2026-05-23 15:24:31.294,1433410750,73294,2,0.99463,0.07617,0.30322,-1.084,-14.977,19.626
2026-05-23 15:24:31.494,1433410950,73494,1,1.06006,0.03003,0.03247,2.397,-0.13,2.0
2026-05-23 15:24:31.494,1433410950,73494,2,0.96582,0.07227,0.27661,6.458,-0.71,-0.336
2026-05-23 15:24:32.694,1433412150,73694,1,0.61328,0.14551,-0.16797,44.053,15.786,-40.931
2026-05-23 15:24:32.694,1433412150,73694,2,1.99994,0.23901,0.71167,-21.794,-27.519,-80.13
2026-05-23 15:24:32.894,1433412350,73894,1,1.05591,-0.00562,0.0144,7.481,-52.26,-1.244
2026-05-23 15:24:32.894,1433412350,73894,2,0.94336,0.03564,0.33301,32.748,5.802,1.595
2026-05-23 15:24:32.094,1433411550,74094,1,1.06519,0.05273,0.02271,3.298,8.947,0.985
2026-05-23 15:24:32.094,1433411550,74094,2,0.98999,-0.04761,0.24341,4.183,-5.542,-0.603
2026-05-23 15:24:32.294,1433411750,74294,1,1.0061,0.07324,0.04224,2.145,11.092,-6.382
2026-05-23 15:24:32.294,1433411750,74294,2,0.94604,-0.00464,0.2041,1.214,7.458,7.153
2026-05-23 15:24:32.494,1433411950,74494,1,1.09863,-0.01563,0.02759,2.076,-1.916,-3.496
2026-05-23 15:24:32.494,1433411950,74494,2,0.94653,-0.03906,0.2627,-2.198,-12.366,4.496
2026-05-23 15:24:33.694,1433413150,74694,1,1.07227,0.01318,0.00488,5.046,-11.985,-5.145
2026-05-23 15:24:33.694,1433413150,74694,2,0.94922,-0.04297,0.19409,2.198,13.603,-3.702
2026-05-23 15:24:33.911,1433413367,74910,1,1.04297,0.00977,0.03613,-32.916,-18.176,-8.679
2026-05-23 15:24:33.911,1433413367,74910,2,0.92798,-0.01147,0.22412,10.42,-2.099,-5.313
2026-05-23 15:24:33.110,1433412566,75110,1,1.02856,0.1106,0.07227,-10.679,-2.015,-6.71
2026-05-23 15:24:33.110,1433412566,75110,2,0.95972,-0.02466,0.30444,-17.29,13.282,-4.901
2026-05-23 15:24:33.310,1433412766,75310,1,1.06665,0.03564,0.05859,-1.641,9.863,-3.275
2026-05-23 15:24:33.310,1433412766,75310,2,0.94824,-0.02026,0.24707,-16.397,7.206,-1.244
2026-05-23 15:24:34.510,1433413966,75510,1,0.98315,0.03784,0.06543,-10.366,-0.191,6.763
2026-05-23 15:24:34.510,1433413966,75510,2,0.95386,-0.01782,0.29199,-13.702,-23.298,-13.527
2026-05-23 15:24:34.710,1433414166,75710,1,1.05811,0.07959,0.06543,15.733,5.137,-0.939
2026-05-23 15:24:34.710,1433414166,75710,2,0.85376,-0.0686,0.22949,12.229,6.634,4.252
2026-05-23 15:24:34.910,1433414366,75910,1,1.03247,0.11914,0.06934,18.656,5.779,-5.053
2026-05-23 15:24:34.910,1433414366,75910,2,0.95557,-0.01929,0.33618,15.779,7.046,-7.298
2026-05-23 15:24:34.110,1433413566,76110,1,1.00903,0.15723,0.08643,19.252,5.634,3.481
2026-05-23 15:24:34.110,1433413566,76110,2,0.99341,-0.05762,0.40625,-14.74,-8.573,-16.84
2026-05-23 15:24:34.310,1433413766,76310,1,1.0415,0.04321,0.10767,-1.824,-6.397,4.695
2026-05-23 15:24:34.310,1433413766,76310,2,0.94092,0.01929,0.37378,-0.168,-10.244,-11.076
2026-05-23 15:24:35.510,1433414966,76510,1,1.04395,0.14453,0.07666,13.115,-2.939,3.427
2026-05-23 15:24:35.510,1433414966,76510,2,0.96826,0.09424,0.32104,-9.198,6.053,-7.168
2026-05-23 15:24:35.710,1433415166,76710,1,1.01611,0.09399,0.09717,0.313,-0.664,0.565
2026-05-23 15:24:35.710,1433415166,76710,2,0.96338,0.09302,0.30493,4.611,2.328,-1.214
2026-05-23 15:24:35.910,1433415366,76910,1,1.03052,0.09863,0.10889,-1.939,3.908,-1.374
2026-05-23 15:24:35.910,1433415366,76910,2,0.99585,0.15088,0.29663,5.901,9.878,1.298
2026-05-23 15:24:35.110,1433414566,77110,1,1.03662,0.10205,0.09668,-3.939,1.466,-0.847
2026-05-23 15:24:35.110,1433414566,77110,2,0.96802,0.08716,0.32031,-8.779,-0.252,0.992
2026-05-23 15:24:35.310,1433414766,77310,1,1.03369,0.10156,0.10352,-0.618,-1.824,0.603
2026-05-23 15:24:35.310,1433414766,77310,2,0.95483,0.07397,0.3269,-6.595,0.321,-2.74
2026-05-23 15:24:36.510,1433415966,77510,1,1.03198,0.08984,0.09937,1.366,-0.153,-0.305
2026-05-23 15:24:36.510,1433415966,77510,2,0.97559,0.10229,0.33105,2.458,11.191,3.504
2026-05-23 15:24:36.710,1433416166,77710,1,1.03638,0.1062,0.10767,0.168,0.901,-0.053
2026-05-23 15:24:36.710,1433416166,77710,2,0.96191,0.07617,0.36816,3.282,-4.176,0.26
2026-05-23 15:24:39.517,1433418973,80517,1,1.02173,0.08521,0.04956,-26.634,11.344,-2.924
2026-05-23 15:24:39.517,1433418973,80517,2,0.80566,0.23584,0.45361,-100.16,3.473,-27.679
2026-05-23 15:24:39.717,1433419173,80717,1,1.04688,0.10083,0.08276,11.992,-12.649,2.26
2026-05-23 15:24:39.717,1433419173,80717,2,0.98047,0.38208,0.46558,68.931,7.527,-20.382
2026-05-23 15:24:39.917,1433419373,80917,1,1.05273,0.09644,0.03955,1.656,-6.405,2.718
2026-05-23 15:24:39.917,1433419373,80917,2,1.15381,0.3645,0.24561,-106.908,-42.924,-44.069
2026-05-23 15:24:39.117,1433418573,81117,1,1.03394,0.1062,0.07373,2.069,11.115,-0.565
2026-05-23 15:24:39.117,1433418573,81117,2,0.9707,0.07617,0.3396,77.038,0.924,7.092
2026-05-23 15:24:39.327,1433418783,81327,1,1.06445,0.11499,0.04175,-19.107,20.176,-2.298
2026-05-23 15:24:39.327,1433418783,81327,2,0.9502,0.05811,0.24219,-2.916,-11.008,14.053
2026-05-23 15:24:40.527,1433419983,81527,1,1.04492,0.10376,0.03784,-2.45,-0.786,0.519
2026-05-23 15:24:40.527,1433419983,81527,2,0.95923,0.03394,0.23364,-0.779,-5.603,9.252
2026-05-23 15:24:40.727,1433420183,81727,1,1.05591,0.09644,0.04761,2.794,0.107,-0.008
2026-05-23 15:24:40.727,1433420183,81727,2,0.96313,0.07349,0.25732,37.534,22.473,-17.962
2026-05-23 15:24:40.927,1433420383,81927,1,1.0481,0.10913,0.03076,-3.733,1.244,-1.985
2026-05-23 15:24:40.927,1433420383,81927,2,0.89575,0.1167,0.36597,17.344,-3.229,9.809
2026-05-23 15:24:43.760,1433423216,84760,1,1.0271,0.09204,0.07861,-12.947,5.473,3.84
2026-05-23 15:24:43.760,1433423216,84760,2,0.98315,0.22095,0.21997,3.962,-17.519,10.405
2026-05-23 15:24:43.960,1433423416,84960,1,1.03247,0.05884,0.03638,-4.374,-12.13,0.16
2026-05-23 15:24:43.960,1433423416,84960,2,0.9585,0.22266,0.27563,-7.733,-27.847,7.71
2026-05-23 15:24:43.160,1433422616,85160,1,1.0647,0.06519,0.03491,-4.153,5.336,1.092
2026-05-23 15:24:43.160,1433422616,85160,2,0.8042,0.13135,0.19556,11.038,-10.26,17.13
2026-05-23 15:24:43.360,1433422816,85360,1,1.07031,0.00391,0.0376,-55.565,-5.29,4.794
2026-05-23 15:24:43.360,1433422816,85360,2,0.93018,0.10498,0.24536,-5.718,7.023,32.58
2026-05-23 15:24:44.560,1433424016,85560,1,0.99756,0.08862,0.08496,-36.351,12.412,-7.672
2026-05-23 15:24:44.560,1433424016,85560,2,1.0498,0.22095,0.37769,-9.641,4.366,3.191
2026-05-23 15:24:44.760,1433424216,85760,1,1.06177,0.1543,0.02612,30.916,27.779,-6.099
2026-05-23 15:24:44.760,1433424216,85760,2,0.89697,0.04834,0.35352,-8.511,6.748,2.458
2026-05-23 15:24:44.960,1433424416,85960,1,1.04663,0.08667,0.10425,-17.969,-10.687,-5.802
2026-05-23 15:24:44.960,1433424416,85960,2,0.93115,-0.01611,0.31934,-1.16,-8.427,-5.55
2026-05-23 15:24:44.160,1433423616,86160,1,1.01831,0.12158,0.08691,7.099,11.237,-1.382
2026-05-23 15:24:44.160,1433423616,86160,2,1.00537,0.16895,0.45435,-0.565,-7.786,4.031
2026-05-23 15:24:44.360,1433423816,86360,1,1.03979,0.09229,0.10107,-14.687,-5.336,0.519
2026-05-23 15:24:44.360,1433423816,86360,2,0.96851,0.10449,0.3479,4.282,-3.153,5.359
2026-05-23 15:24:45.560,1433425016,86560,1,1.02197,0.13159,0.05884,8.496,-0.893,-2.237
2026-05-23 15:24:45.560,1433425016,86560,2,1.00293,0.15308,0.40332,7.237,2.931,-9.42
2026-05-23 15:24:45.760,1433425216,86760,1,1.03906,0.1062,0.07446,2.229,10.626,-0.069
2026-05-23 15:24:45.760,1433425216,86760,2,0.91138,-0.00195,0.41821,19.771,20.145,24.458
2026-05-23 15:24:45.960,1433425416,86960,1,1.0415,0.1123,0.06006,4.725,1.45,-1.977
2026-05-23 15:24:45.960,1433425416,86960,2,0.97339,0.13501,0.33716,-23.076,-4.16,3.634
2026-05-23 15:24:45.160,1433424616,87160,1,1.04688,0.10986,0.07007,-7.74,-3.397,-0.664
2026-05-23 15:24:45.160,1433424616,87160,2,0.98096,0.1084,0.33301,1.046,4.817,-0.191
2026-05-23 15:24:45.360,1433424816,87360,1,1.03906,0.12354,0.0354,-6.656,-4.733,-1.435
2026-05-23 15:24:45.360,1433424816,87360,2,0.98633,0.1001,0.36768,-10.359,2.687,-0.565
2026-05-23 15:24:46.560,1433426016,87560,1,1.06714,0.104,0.02344,-8.115,-1.0,-0.168
2026-05-23 15:24:46.560,1433426016,87560,2,0.95508,0.07617,0.36011,-6.412,4.092,-3.634
2026-05-23 15:24:46.760,1433426216,87760,1,1.03687,0.10327,0.0813,-9.153,-3.748,-1.092
2026-05-23 15:24:46.760,1433426216,87760,2,0.97949,0.17603,0.35303,12.031,9.557,-8.45
2026-05-23 15:24:46.960,1433426416,87960,1,1.03345,0.10474,0.08496,4.344,-3.763,6.885
2026-05-23 15:24:46.960,1433426416,87960,2,0.84814,0.11353,0.23242,-7.824,-8.679,2.794
2026-05-23 15:24:46.176,1433425632,88176,1,1.11279,0.11279,0.02905,17.321,21.672,8.992
2026-05-23 15:24:46.176,1433425632,88176,2,0.9668,0.10229,0.34692,-16.809,-0.931,-5.962
2026-05-23 15:24:46.376,1433425832,88376,1,1.04102,0.12598,0.06567,19.214,2.832,12.466
2026-05-23 15:24:46.376,1433425832,88376,2,0.82495,0.52686,0.89404,4.588,-7.794,4.908
2026-05-23 15:24:49.345,1433428801,91344,1,0.63965,0.01392,0.44556,8.023,-19.252,-4.702
2026-05-23 15:24:49.345,1433428801,91344,2,0.49902,0.31665,0.70166,-6.244,0.557,9.198
2026-05-23 15:24:50.556,1433430012,91556,1,1.07251,0.08423,0.60303,5.626,-18.855,4.069
2026-05-23 15:24:50.556,1433430012,91556,2,0.88257,0.61499,0.85425,-0.954,-6.122,0.748
2026-05-23 15:24:50.756,1433430212,91756,1,0.75391,0.04883,0.40918,-4.008,-18.473,-0.359
2026-05-23 15:24:50.756,1433430212,91756,2,0.82422,0.46948,0.87134,-8.947,-15.74,10.679
2026-05-23 15:24:53.833,1433433289,94833,1,0.87354,-0.05322,0.42969,-1.534,2.115,-3.305
2026-05-23 15:24:53.833,1433433289,94833,2,0.81348,0.36694,0.82642,2.664,2.672,0.092
2026-05-23 15:24:53.049,1433432505,95049,1,0.87012,-0.02173,0.43677,0.542,2.45,0.107
2026-05-23 15:24:53.049,1433432505,95049,2,0.81323,0.38086,0.81274,4.412,4.099,0.252
2026-05-23 15:24:53.249,1433432705,95249,1,0.86914,-0.03564,0.44238,-2.237,0.954,-0.038
2026-05-23 15:24:53.249,1433432705,95249,2,0.80762,0.37866,0.81445,-0.641,1.611,1.435
2026-05-23 15:24:53.449,1433432905,95449,1,0.88696,-0.073,0.43359,2.504,0.672,1.031
2026-05-23 15:24:53.449,1433432905,95449,2,0.81421,0.39868,0.84888,-0.962,1.473,-0.443
2026-05-23 15:24:54.649,1433434105,95649,1,0.90259,-0.01587,0.39502,16.924,8.641,0.733
2026-05-23 15:24:54.649,1433434105,95649,2,0.80078,0.38208,0.83179,-1.267,9.053,-0.779
2026-05-23 15:24:54.849,1433434305,95849,1,0.84717,-0.00537,0.43896,-1.679,12.763,-3.885
2026-05-23 15:24:54.849,1433434305,95849,2,0.77417,0.39795,0.88892,-4.466,11.221,-9.504
2026-05-23 15:24:54.049,1433433505,96049,1,1.01514,0.03955,0.65479,3.137,42.87,-8.588
2026-05-23 15:24:54.049,1433433505,96049,2,1.08032,0.65552,1.15845,-8.038,36.328,-33.779
2026-05-23 15:24:54.249,1433433705,96249,1,0.55273,-0.00537,0.88794,3.214,59.809,-7.053
2026-05-23 15:24:54.249,1433433705,96249,2,0.56909,0.47729,0.9646,-1.328,32.802,-18.985
2026-05-23 15:24:54.449,1433433905,96449,1,0.39624,0.03589,0.677,-32.687,39.702,-2.542
2026-05-23 15:24:54.449,1433433905,96449,2,0.59229,0.45386,0.93896,-17.237,25.344,-7.206
2026-05-23 15:24:55.649,1433435105,96649,1,0.3584,-0.0874,0.83423,-2.015,17.191,17.321
2026-05-23 15:24:55.649,1433435105,96649,2,0.45605,0.50781,1.18506,-7.13,26.603,-8.305
2026-05-23 15:24:55.861,1433435317,96861,1,0.10596,-0.02344,0.92285,-1.145,18.641,7.725
2026-05-23 15:24:55.861,1433435317,96861,2,0.37598,0.54272,1.11914,-4.985,2.832,1.137
2026-05-23 15:24:55.061,1433434517,97061,1,0.11157,-0.01123,0.78418,15.008,-48.504,-3.252
2026-05-23 15:24:55.061,1433434517,97061,2,0.34619,0.4231,0.93506,29.496,-51.817,42.573
2026-05-23 15:24:55.344,1433434800,97343,1,0.50488,-0.10791,0.61572,17.939,-71.382,-12.733
2026-05-23 15:24:55.344,1433434800,97343,2,0.85181,0.51807,0.77563,12.565,-70.282,23.832
2026-05-23 15:24:56.543,1433435999,97543,1,0.8147,0.08618,0.33838,5.595,-46.679,4.786
2026-05-23 15:24:56.543,1433435999,97543,2,0.98169,0.50684,0.73267,0.244,-16.511,13.672
2026-05-23 15:24:56.743,1433436199,97743,1,0.92603,0.12573,0.36206,0.229,17.779,7.511
2026-05-23 15:24:56.743,1433436199,97743,2,0.81934,0.50171,0.71143,5.084,26.947,-16.008
2026-05-23 15:24:56.943,1433436399,97943,1,0.65332,-0.02661,0.5791,-15.969,77.786,-5.45
2026-05-23 15:24:56.943,1433436399,97943,2,0.95044,0.25513,0.29492,-3.931,0.137,1.618
2026-05-23 15:24:59.213,1433438669,101213,1,1.00854,0.17065,0.11914,-3.939,-0.122,1.733
2026-05-23 15:24:59.213,1433438669,101213,2,0.93579,0.23779,0.33301,-4.267,1.374,3.832
2026-05-23 15:24:59.425,1433438881,101425,1,1.01367,0.14136,0.12109,-4.198,0.947,2.031
2026-05-23 15:24:59.425,1433438881,101425,2,0.94653,0.22729,0.34546,-4.191,1.359,3.252
2026-05-23 15:25:00.625,1433440081,101625,1,1.00293,0.15601,0.14185,-8.672,0.542,1.046
2026-05-23 15:25:00.625,1433440081,101625,2,0.95068,0.2251,0.33252,-7.679,3.748,3.137
2026-05-23 15:25:03.689,1433443145,104689,1,1.00317,0.14771,0.10938,4.779,4.458,1.718
2026-05-23 15:25:03.689,1433443145,104689,2,0.91553,0.21313,0.32983,4.954,-4.191,1.183
2026-05-23 15:25:06.734,1433446190,107734,1,-0.43237,-0.13745,0.80054,-2.382,-49.71,2.519
2026-05-23 15:25:06.734,1433446190,107734,2,0.24048,0.54028,1.19604,24.237,-62.084,42.679
2026-05-23 15:25:06.934,1433446390,107934,1,-0.17871,-0.11597,0.87354,10.351,-96.893,3.374
2026-05-23 15:25:06.934,1433446390,107934,2,0.35522,0.49536,1.15454,24.221,-83.58,46.412
2026-05-23 15:25:06.134,1433445590,108134,1,0.22681,-0.08569,0.71851,25.878,-140.672,-2.885
2026-05-23 15:25:06.134,1433445590,108134,2,0.70215,0.23706,0.69873,15.458,-18.252,17.595
2026-05-23 15:25:09.773,1433449229,110773,1,0.73291,0.01245,0.5564,15.244,-32.473,11.863
2026-05-23 15:25:09.773,1433449229,110773,2,0.99878,0.45508,0.89575,36.13,-19.947,21.183
2026-05-23 15:25:09.973,1433449429,110973,1,0.68188,0.00098,0.50952,-5.244,0.237,-7.771
2026-05-23 15:25:09.973,1433449429,110973,2,0.75464,0.26147,0.72363,-7.954,-8.092,-1.527
2026-05-23 15:25:09.173,1433448629,111173,1,0.80542,0.03516,0.65161,-10.534,2.267,-5.473
2026-05-23 15:25:09.173,1433448629,111173,2,0.91187,0.27222,0.41528,-25.702,-4.588,-11.473
2026-05-23 15:25:12.799,1433452255,113799,1,1.01685,0.17261,0.12842,-6.13,0.802,0.817
2026-05-23 15:25:12.799,1433452255,113799,2,0.93115,0.2688,0.29663,-5.229,0.443,0.443
2026-05-23 15:25:17.917,1433457373,118917,1,0.74561,0.09033,0.42578,-15.511,58.649,-0.321
2026-05-23 15:25:17.917,1433457373,118917,2,0.80005,0.47021,0.74683,-27.153,40.328,-29.527
2026-05-23 15:25:17.117,1433456573,119117,1,0.47217,0.07202,0.78638,-12.626,97.992,-2.809
2026-05-23 15:25:17.117,1433456573,119117,2,0.63989,0.65942,1.02466,-18.382,80.313,-28.137
2026-05-23 15:25:20.055,1433459511,122055,1,1.02197,0.13062,0.09058,-2.321,-0.695,0.992
2026-05-23 15:25:20.055,1433459511,122055,2,0.93628,0.21118,0.22241,4.534,4.618,0.519
2026-05-23 15:25:20.255,1433459711,122255,1,1.04663,0.11963,0.08032,-4.115,-2.771,0.023
2026-05-23 15:25:20.255,1433459711,122255,2,0.95068,0.20947,0.26758,-0.092,1.611,-0.038
2026-05-23 15:25:20.455,1433459911,122455,1,1.03271,0.14966,0.08008,-0.298,1.618,0.092
2026-05-23 15:25:20.455,1433459911,122455,2,0.93652,0.1958,0.26245,1.649,1.427,1.45
2026-05-23 15:25:21.655,1433461111,122655,1,1.04468,0.15625,0.07422,-1.802,-1.107,-1.137
2026-05-23 15:25:21.655,1433461111,122655,2,0.94336,0.21362,0.26709,-3.626,3.275,1.023
2026-05-23 15:25:21.855,1433461311,122855,1,1.02222,0.13696,0.07202,-1.962,1.298,-0.168
2026-05-23 15:25:21.855,1433461311,122855,2,0.93408,0.20215,0.26343,-1.672,-0.008,0.908
2026-05-23 15:25:21.055,1433460511,123055,1,1.03027,0.14917,0.0813,-0.771,-1.725,1.122
2026-05-23 15:25:21.055,1433460511,123055,2,0.93848,0.19482,0.26807,-1.069,1.229,2.458
2026-05-23 15:25:21.255,1433460711,123255,1,1.03052,0.14185,0.07129,1.321,1.168,0.122
2026-05-23 15:25:21.255,1433460711,123255,2,0.94287,0.21558,0.25732,-2.977,-0.679,0.336
2026-05-23 15:25:22.556,1433462012,123556,1,1.0271,0.15552,0.08643,1.305,-1.137,0.328
2026-05-23 15:25:22.556,1433462012,123556,2,0.94092,0.21582,0.24731,-2.603,-4.061,1.824
2026-05-23 15:25:22.756,1433462212,123756,1,1.04492,0.1543,0.05908,0.603,0.13,0.931
2026-05-23 15:25:22.756,1433462212,123756,2,1.00439,0.27441,0.38843,-0.847,14.42,-11.069
2026-05-23 15:25:25.668,1433465124,126668,1,1.07397,0.12329,0.08643,6.626,49.313,8.947
2026-05-23 15:25:25.668,1433465124,126668,2,1.06079,0.24072,0.43481,11.267,53.878,-25.237
2026-05-23 15:25:25.868,1433465324,126868,1,0.80542,0.09009,0.14282,-28.336,98.672,11.443
2026-05-23 15:25:25.868,1433465324,126868,2,0.69214,0.27002,0.51685,4.031,121.443,-55.198
2026-05-23 15:25:25.068,1433464524,127068,1,0.32129,-0.01978,0.44092,-35.748,105.748,4.321
2026-05-23 15:25:25.068,1433464524,127068,2,0.62866,0.48218,0.70166,-18.748,93.885,-60.565
2026-05-23 15:25:25.344,1433464800,127344,1,0.12305,-0.07007,0.97974,-12.397,51.779,-2.176
2026-05-23 15:25:25.344,1433464800,127344,2,0.31396,0.55078,1.1228,-24.634,24.389,-21.969
2026-05-23 15:25:26.544,1433466000,127544,1,0.12793,-0.04419,0.90234,-13.527,-27.206,-5.71
2026-05-23 15:25:26.544,1433466000,127544,2,0.36353,0.55933,1.22437,-8.015,-27.87,10.305
2026-05-23 15:25:26.744,1433466200,127744,1,0.33521,-0.12573,0.84814,-6.427,-46.695,-3.42
2026-05-23 15:25:26.744,1433466200,127744,2,0.50464,0.56323,1.16455,5.725,-33.855,17.664
2026-05-23 15:25:26.944,1433466400,127944,1,0.44653,-0.12134,0.79126,6.534,-77.702,4.366
2026-05-23 15:25:26.944,1433466400,127944,2,0.91479,0.7312,1.26758,-3.237,-52.267,39.58
2026-05-23 15:25:26.144,1433465600,128144,1,0.84204,-0.04883,0.729,-3.015,-9.878,-4.489
2026-05-23 15:25:26.144,1433465600,128144,2,0.72656,0.41431,0.83447,-5.176,-5.389,-0.29
2026-05-23 15:25:26.344,1433465800,128344,1,0.94287,-0.08032,0.59863,-7.168,-17.214,-4.084
2026-05-23 15:25:26.344,1433465800,128344,2,1.37012,0.89258,1.39404,41.061,15.977,-7.939
2026-05-23 15:25:27.544,1433467000,128544,1,0.67383,0.06421,0.72583,11.015,75.87,-6.344
2026-05-23 15:25:27.544,1433467000,128544,2,0.61401,0.44727,1.01514,-0.71,35.679,-19.305
2026-05-23 15:25:27.744,1433467200,128744,1,0.36768,-0.00903,0.63403,-19.374,55.565,-21.824
2026-05-23 15:25:27.744,1433467200,128744,2,0.59961,0.38574,0.98242,-32.542,33.122,-24.626
2026-05-23 15:25:27.944,1433467400,128944,1,0.22046,0.04736,0.86816,-3.145,41.115,2.679
2026-05-23 15:25:27.944,1433467400,128944,2,0.52026,0.52173,1.15405,-6.344,39.74,-8.0
2026-05-23 15:25:27.144,1433466600,129144,1,0.021,-0.0603,0.90771,-6.87,14.191,11.771
2026-05-23 15:25:27.144,1433466600,129144,2,0.26367,0.46948,1.01978,9.687,-0.702,10.214
2026-05-23 15:25:27.344,1433466800,129344,1,0.08301,-0.00049,0.76489,2.794,-75.702,-1.443
2026-05-23 15:25:27.344,1433466800,129344,2,0.44604,0.47021,0.9834,9.702,-67.779,46.328
2026-05-23 15:25:28.544,1433468000,129544,1,0.39526,-0.06616,0.68457,17.29,-112.687,-3.969
2026-05-23 15:25:28.544,1433468000,129544,2,0.71387,0.5376,0.82959,9.084,-85.053,33.405
2026-05-23 15:25:28.744,1433468200,129744,1,1.10864,0.01831,0.22705,13.244,-51.55,-7.809
2026-05-23 15:25:28.744,1433468200,129744,2,0.88892,0.4939,0.62646,-3.885,-42.435,18.359
2026-05-23 15:25:28.944,1433468400,129944,1,0.94409,0.09717,0.33618,-10.542,-2.855,1.489
2026-05-23 15:25:28.944,1433468400,129944,2,0.89771,0.40771,0.6355,0.389,2.519,-2.458
2026-05-23 15:25:28.144,1433467600,130144,1,0.85498,0.07813,0.43457,-2.847,45.015,1.969
2026-05-23 15:25:28.144,1433467600,130144,2,0.89966,0.46362,0.72266,-14.595,45.672,-21.099
2026-05-23 15:25:28.344,1433467800,130344,1,0.64819,0.13135,0.40527,-13.977,79.466,-0.244
2026-05-23 15:25:28.344,1433467800,130344,2,0.64209,0.48633,0.77783,-3.565,49.466,-24.008
2026-05-23 15:25:29.544,1433469000,130544,1,0.35376,0.00317,0.80005,-14.244,89.053,-5.053
2026-05-23 15:25:29.544,1433469000,130544,2,0.4541,0.50903,1.10791,-30.084,65.786,-25.939
2026-05-23 15:25:29.744,1433469200,130744,1,0.01318,-0.05811,0.70679,-14.931,86.672,-3.374
2026-05-23 15:25:29.744,1433469200,130744,2,0.38696,0.50659,1.19019,-22.427,48.588,-18.252
2026-05-23 15:25:29.944,1433469400,130944,1,-0.17578,-0.06812,0.96948,-9.847,17.893,-1.962
2026-05-23 15:25:29.944,1433469400,130944,2,0.92065,0.28296,0.38281,-7.847,-12.824,-2.725
2026-05-23 15:25:32.971,1433472427,133971,1,1.01855,0.12891,0.09375,-19.611,-28.962,-8.58
2026-05-23 15:25:32.971,1433472427,133971,2,0.99585,0.18506,0.29053,-1.908,-29.0,15.427
2026-05-23 15:25:32.171,1433471627,134171,1,1.12769,0.15942,-0.00952,-11.573,20.992,-2.947
2026-05-23 15:25:32.171,1433471627,134171,2,0.96094,0.26733,0.28662,-6.176,-19.824,12.573
2026-05-23 15:25:32.371,1433471827,134371,1,1.06006,0.19824,0.03516,0.115,-14.618,-3.099
2026-05-23 15:25:32.371,1433471827,134371,2,0.93896,0.21216,0.29272,3.947,4.954,7.649
2026-05-23 15:25:33.571,1433473027,134571,1,1.02002,0.07495,0.05469,-33.229,-5.534,-0.557
2026-05-23 15:25:33.571,1433473027,134571,2,1.03711,0.1875,0.16187,-9.076,-16.191,1.863
2026-05-23 15:25:33.771,1433473227,134771,1,1.03418,0.17773,0.0083,-2.901,2.153,0.962
2026-05-23 15:25:33.771,1433473227,134771,2,0.42163,0.39551,0.92798,-31.863,84.756,-45.061
2026-05-23 15:25:38.871,1433478327,139871,1,0.13281,-0.02539,0.72754,-20.344,100.046,-9.786
2026-05-23 15:25:38.871,1433478327,139871,2,0.38867,0.46582,1.12256,-35.076,57.237,-36.023
2026-05-23 15:25:38.071,1433477527,140071,1,-0.10986,-0.09497,0.88916,-18.084,58.214,-7.924
2026-05-23 15:25:38.071,1433477527,140071,2,0.16724,0.43774,1.20972,-20.084,13.0,-12.046
2026-05-23 15:25:38.271,1433477727,140271,1,-0.17407,-0.19238,0.8855,0.672,6.42,-0.779
2026-05-23 15:25:38.271,1433477727,140271,2,0.1792,0.40869,1.26294,1.931,-3.489,4.153
2026-05-23 15:25:38.471,1433477927,140471,1,0.20654,0.07446,0.65723,11.489,-64.382,8.145
2026-05-23 15:25:38.471,1433477927,140471,2,0.32739,0.46924,1.12158,14.977,-29.214,20.084
2026-05-23 15:25:39.671,1433479127,140671,1,0.11938,0.0061,0.73022,5.962,-55.092,-0.443
2026-05-23 15:25:39.671,1433479127,140671,2,0.3855,0.44214,1.00635,6.84,-37.45,29.229
2026-05-23 15:25:39.871,1433479327,140871,1,0.27441,-0.11914,0.89209,-3.511,-62.328,0.649
2026-05-23 15:25:39.871,1433479327,140871,2,0.73999,0.52002,1.05029,24.122,-53.756,37.916
2026-05-23 15:25:39.071,1433478527,141071,1,0.75977,0.03931,0.98413,11.366,-78.618,-11.947
2026-05-23 15:25:39.071,1433478527,141071,2,1.25195,0.73364,1.29321,27.695,-38.924,29.42
2026-05-23 15:25:39.271,1433478727,141271,1,0.50537,-0.01294,0.44116,10.969,-26.519,-6.092
2026-05-23 15:25:39.271,1433478727,141271,2,0.5813,0.33618,0.75439,-2.046,-3.969,20.298
2026-05-23 15:25:39.471,1433478927,141471,1,1.06689,-0.01294,0.67798,2.863,-8.122,12.351
2026-05-23 15:25:39.471,1433478927,141471,2,1.02881,0.41626,0.8999,15.695,7.473,3.076
2026-05-23 15:25:40.671,1433480127,141671,1,0.71436,0.02197,0.40503,1.634,-0.336,2.878
2026-05-23 15:25:40.671,1433480127,141671,2,0.90186,0.43237,0.83936,12.481,-7.916,12.542
2026-05-23 15:25:40.871,1433480327,141871,1,1.17505,-0.00464,0.88721,-1.038,62.382,-2.87
2026-05-23 15:25:40.871,1433480327,141871,2,1.06714,0.62378,1.07544,-10.16,65.725,-55.443
2026-05-23 15:25:40.071,1433479527,142071,1,0.49609,0.03809,0.77588,21.901,42.496,-5.824
2026-05-23 15:25:40.071,1433479527,142071,2,0.5459,0.44995,0.95898,3.405,26.496,-13.916
2026-05-23 15:25:40.271,1433479727,142271,1,0.49561,0.09937,0.77319,6.313,-31.282,-4.557
2026-05-23 15:25:40.271,1433479727,142271,2,0.56152,0.50684,1.07471,1.565,-13.603,12.992
2026-05-23 15:25:43.131,1433482587,145131,1,0.99194,0.06323,0.22778,0.115,-4.679,2.626
2026-05-23 15:25:43.131,1433482587,145131,2,0.92236,0.29468,0.40503,-1.443,-8.313,-0.641
2026-05-23 15:25:43.331,1433482787,145331,1,0.99121,0.11621,0.21094,-5.26,-2.206,2.275
2026-05-23 15:25:43.331,1433482787,145331,2,0.94727,0.302,0.39697,-1.603,4.466,5.817
2026-05-23 15:25:46.636,1433486092,147636,1,1.03857,0.15063,0.08667,-0.573,-1.176,7.092
2026-05-23 15:25:46.636,1433486092,147636,2,0.96021,0.20361,0.28296,7.481,4.275,0.389
2026-05-23 15:25:46.836,1433486292,147836,1,1.03613,0.15259,0.08838,1.267,3.733,2.924
2026-05-23 15:25:46.836,1433486292,147836,2,0.93384,0.21802,0.30127,2.725,1.901,-0.328
2026-05-23 15:25:46.036,1433485492,148036,1,1.0376,0.15552,0.10522,1.527,14.718,4.145
2026-05-23 15:25:46.036,1433485492,148036,2,0.94116,0.2937,0.32886,-3.298,7.191,-2.893
2026-05-23 15:25:46.239,1433485695,148239,1,0.99951,0.1272,0.15088,-5.885,3.153,-1.519
2026-05-23 15:25:46.239,1433485695,148239,2,0.91626,0.23413,0.3252,-0.87,5.542,-0.695
2026-05-23 15:25:46.439,1433485895,148439,1,0.99878,0.12988,0.15527,-1.985,2.733,-0.985
2026-05-23 15:25:46.439,1433485895,148439,2,0.94019,0.25366,0.35645,0.008,4.74,0.168
2026-05-23 15:25:47.643,1433487099,148643,1,1.00903,0.11987,0.15918,-2.855,2.687,-0.71
2026-05-23 15:25:47.643,1433487099,148643,2,0.95117,0.25977,0.35742,-1.427,2.099,-0.702
2026-05-23 15:25:47.843,1433487299,148843,1,1.04785,0.14331,0.07617,-4.679,56.649,1.893
2026-05-23 15:25:47.843,1433487299,148843,2,0.95264,0.37354,0.48804,-5.382,87.427,-38.885
2026-05-23 15:25:47.043,1433486499,149043,1,0.75977,0.01538,0.40649,-29.275,134.023,1.802
2026-05-23 15:25:47.043,1433486499,149043,2,0.79395,0.38086,0.75024,-45.695,89.71,-53.489
2026-05-23 15:25:47.243,1433486699,149243,1,0.34473,0.09131,0.72437,-4.756,132.374,7.901
2026-05-23 15:25:47.243,1433486699,149243,2,0.59863,0.47656,1.0,-41.0,78.763,-52.389
2026-05-23 15:25:47.443,1433486899,149443,1,-0.09131,-0.0188,0.85742,-12.405,107.687,0.069
2026-05-23 15:25:47.443,1433486899,149443,2,0.29419,0.55591,1.20923,-20.809,77.061,-33.16
2026-05-23 15:25:48.643,1433488099,149643,1,-0.38037,-0.09863,0.81421,-19.008,58.687,-1.481
2026-05-23 15:25:48.643,1433488099,149643,2,0.02856,0.48413,1.20947,-16.626,33.794,-12.565
2026-05-23 15:25:48.843,1433488299,149843,1,-0.52002,-0.18628,0.83154,-4.107,21.244,3.779
2026-05-23 15:25:48.843,1433488299,149843,2,-0.06079,0.44263,1.29199,-10.992,11.992,-7.122
2026-05-23 15:25:48.043,1433487499,150043,1,-0.51245,-0.19312,0.71826,-10.634,3.038,1.641
2026-05-23 15:25:48.043,1433487499,150043,2,-0.12183,0.54028,1.32178,-7.626,4.855,0.725
2026-05-23 15:25:48.243,1433487699,150243,1,-0.46655,-0.17969,0.78809,11.099,-7.847,4.466
2026-05-23 15:25:48.243,1433487699,150243,2,-0.02295,0.52466,1.30713,15.702,-15.71,11.351
2026-05-23 15:25:48.443,1433487899,150443,1,-0.41309,-0.15015,0.85718,-0.718,-54.0,-2.359
2026-05-23 15:25:48.443,1433487899,150443,2,0.18799,0.52856,1.27441,7.13,-56.221,38.13
2026-05-23 15:25:49.643,1433489099,150643,1,-0.1084,-0.09448,0.84131,1.351,-100.069,-15.656
2026-05-23 15:25:49.643,1433489099,150643,2,0.39795,0.45288,1.17651,12.366,-95.214,43.008
2026-05-23 15:25:51.235,1433490691,153235,1,-0.50464,-0.14551,0.65283,10.206,-25.702,3.878
2026-05-23 15:25:51.235,1433490691,153235,2,-0.13647,0.44019,1.07153,13.565,-2.939,4.817
2026-05-23 15:25:51.435,1433490891,153435,1,-0.31055,-0.09473,0.56567,7.458,-57.45,-9.038
2026-05-23 15:25:51.435,1433490891,153435,2,0.05737,0.3689,1.06641,15.908,-44.092,34.71
2026-05-23 15:25:52.635,1433492091,153635,1,-0.01563,-0.04932,0.72681,10.099,-92.023,-4.756
2026-05-23 15:25:52.635,1433492091,153635,2,0.30029,0.44849,1.05078,12.237,-54.947,34.634
2026-05-23 15:25:52.835,1433492291,153835,1,0.33569,-0.04712,0.86035,7.511,-87.542,-10.603
2026-05-23 15:25:52.835,1433492291,153835,2,0.76147,0.54248,1.20068,3.496,-72.511,41.748
2026-05-23 15:25:52.035,1433491491,154035,1,0.91968,0.02441,0.94287,3.916,-73.756,-3.817
2026-05-23 15:25:52.035,1433491491,154035,2,1.04614,0.54395,1.13989,-9.985,-25.802,7.794
2026-05-23 15:25:55.760,1433495216,156760,1,0.7854,0.00635,0.5376,-4.695,-0.786,1.061
2026-05-23 15:25:55.760,1433495216,156760,2,0.7832,0.42334,0.80981,-0.824,1.015,1.511
2026-05-23 15:25:55.960,1433495416,156960,1,0.78687,0.02832,0.54736,0.252,1.099,0.672
2026-05-23 15:25:55.960,1433495416,156960,2,0.79224,0.4165,0.82251,-0.084,1.023,1.565
2026-05-23 15:25:55.160,1433494616,157160,1,0.78687,0.02466,0.54712,-3.809,0.679,-0.412
2026-05-23 15:25:55.160,1433494616,157160,2,0.79614,0.41455,0.82373,-5.084,0.733,1.191
2026-05-23 15:25:55.380,1433494836,157380,1,0.78149,0.02124,0.55322,-1.107,-0.038,-0.183
2026-05-23 15:25:55.380,1433494836,157380,2,0.79199,0.41309,0.82642,-3.282,0.664,1.16
2026-05-23 15:25:56.580,1433496036,157580,1,0.77808,0.01538,0.54126,-0.359,0.695,0.389
2026-05-23 15:25:56.580,1433496036,157580,2,0.46216,0.2356,0.90918,-16.427,-61.672,19.13
2026-05-23 15:25:58.411,1433497867,160411,1,0.29639,-0.09717,0.31641,7.71,-67.634,-1.84
2026-05-23 15:25:58.411,1433497867,160411,2,0.48535,0.46265,1.03418,71.595,-47.992,19.87
2026-05-23 15:25:59.611,1433499067,160611,1,0.66821,0.17822,0.59619,9.435,58.061,13.656
2026-05-23 15:25:59.611,1433499067,160611,2,0.62085,0.8374,1.17017,-90.542,37.687,-38.847
2026-05-23 15:25:59.811,1433499267,160811,1,0.27051,0.01636,0.51929,-54.527,123.588,-10.115
2026-05-23 15:25:59.811,1433499267,160811,2,0.45142,0.67798,0.99805,-18.405,93.863,-58.153
2026-05-23 15:25:59.011,1433498467,161011,1,-0.31714,-0.12109,0.98413,-18.115,103.748,0.107
2026-05-23 15:25:59.011,1433498467,161011,2,0.63428,0.53662,0.87988,20.191,-35.427,28.435
2026-05-23 15:26:02.170,1433501626,164170,1,0.5896,0.04419,0.85913,11.885,-52.198,-8.489
2026-05-23 15:26:02.170,1433501626,164170,2,0.68237,0.55542,0.96582,10.191,-31.832,21.649
2026-05-23 15:26:02.370,1433501826,164370,1,1.01392,0.16772,1.13745,10.29,-8.847,-0.198
2026-05-23 15:26:02.370,1433501826,164370,2,0.80005,0.46191,0.74731,11.893,3.519,1.656
2026-05-23 15:26:05.643,1433505099,166643,1,0.86475,0.26587,0.39673,7.878,2.122,-2.321
2026-05-23 15:26:05.643,1433505099,166643,2,0.79834,0.48828,0.71826,1.313,2.221,-0.985
2026-05-23 15:26:05.924,1433505380,166924,1,0.81738,0.20801,0.46582,13.832,6.443,2.084
2026-05-23 15:26:05.924,1433505380,166924,2,0.78613,0.4646,0.74194,-1.87,2.71,6.534
2026-05-23 15:26:05.124,1433504580,167124,1,0.82153,0.25439,0.43872,9.023,5.305,-4.038
2026-05-23 15:26:05.124,1433504580,167124,2,0.77856,0.45337,0.7312,-2.817,-1.336,3.595
2026-05-23 15:26:05.324,1433504780,167324,1,0.87134,0.21094,0.40991,-28.328,-11.053,-10.786
2026-05-23 15:26:05.324,1433504780,167324,2,0.82739,0.4502,0.78467,-10.542,-5.771,-7.847
2026-05-23 15:26:06.542,1433505998,167542,1,0.802,0.2854,0.40039,-16.145,-0.649,22.115
2026-05-23 15:26:06.542,1433505998,167542,2,0.79517,0.47559,0.76392,4.183,18.427,19.229
2026-05-23 15:26:06.742,1433506198,167742,1,0.84595,0.06689,0.45361,-45.427,6.023,-0.794
2026-05-23 15:26:06.742,1433506198,167742,2,0.79419,0.34814,0.84839,-43.702,5.489,0.504
2026-05-23 15:26:09.658,1433509114,170657,1,0.24829,0.01953,0.84058,23.084,-85.756,-6.679
2026-05-23 15:26:09.658,1433509114,170657,2,0.54443,0.45532,0.95752,3.466,-79.374,36.771
2026-05-23 15:26:09.857,1433509313,170857,1,0.51831,0.09839,0.47241,-21.29,-126.55,-17.542
2026-05-23 15:26:09.857,1433509313,170857,2,0.87061,0.38477,0.73633,1.168,-76.45,26.137
2026-05-23 15:26:09.057,1433508513,171057,1,0.85547,0.06079,0.24292,-8.687,-76.45,-21.588
2026-05-23 15:26:09.057,1433508513,171057,2,0.9563,0.32178,0.58643,-5.0,-60.45,38.626
2026-05-23 15:26:09.257,1433508713,171257,1,1.09277,0.28418,0.01807,-4.847,-29.687,3.374
2026-05-23 15:26:09.257,1433508713,171257,2,0.95386,0.26855,0.41528,8.382,-9.214,9.847
2026-05-23 15:26:09.457,1433508913,171457,1,0.99512,0.14795,0.15039,7.099,2.794,4.885
2026-05-23 15:26:09.457,1433508913,171457,2,0.97363,0.28296,0.47778,8.229,14.908,0.794
2026-05-23 15:26:10.657,1433510113,171657,1,0.95703,0.15454,0.27905,29.305,52.374,5.939
2026-05-23 15:26:10.657,1433510113,171657,2,0.95215,0.37549,0.56323,-0.176,44.405,-22.718
2026-05-23 15:26:10.857,1433510313,171857,1,0.91089,0.10156,0.39673,-5.649,78.328,8.382
2026-05-23 15:26:10.857,1433510313,171857,2,0.80835,0.41162,0.70654,-18.481,63.351,-39.344
2026-05-23 15:26:10.057,1433509513,172057,1,0.37573,-0.02734,0.59863,-23.122,113.824,-4.931
2026-05-23 15:26:10.057,1433509513,172057,2,0.63525,0.4895,1.00342,-24.092,83.244,-38.634
2026-05-23 15:26:10.257,1433509713,172257,1,0.19946,-0.01514,0.81177,-27.237,114.427,5.26
2026-05-23 15:26:10.257,1433509713,172257,2,0.41333,0.48462,1.12476,-25.595,76.496,-36.588
2026-05-23 15:26:10.457,1433509913,172457,1,-0.24072,-0.14844,0.90112,-13.802,104.779,10.008
2026-05-23 15:26:10.457,1433509913,172457,2,0.10278,0.53174,1.22656,-15.282,59.824,-26.176
2026-05-23 15:26:11.657,1433511113,172657,1,-0.39185,-0.20801,0.74438,-7.466,46.153,12.313
2026-05-23 15:26:11.657,1433511113,172657,2,0.03833,0.54248,1.30298,-0.26,37.779,-15.084
2026-05-23 15:26:11.857,1433511313,172857,1,-0.64746,-0.19482,1.15039,-6.099,13.542,-7.26
2026-05-23 15:26:11.857,1433511313,172857,2,-0.04541,0.46436,1.24194,-6.756,-15.481,5.802
2026-05-23 15:26:11.057,1433510513,173057,1,-0.43921,-0.11426,0.71069,-4.374,-11.588,-13.313
2026-05-23 15:26:11.057,1433510513,173057,2,-0.09814,0.42847,1.38159,-4.916,-4.58,2.458
2026-05-23 15:26:14.983,1433514439,175983,1,1.00537,0.14185,0.11011,-2.885,1.55,-1.122
2026-05-23 15:26:14.983,1433514439,175983,2,0.95483,0.20361,0.30859,-2.076,-0.191,2.374
2026-05-23 15:26:14.183,1433513639,176183,1,1.01514,0.14648,0.1123,-0.282,0.58,0.153
2026-05-23 15:26:14.183,1433513639,176183,2,0.5022,0.48486,1.13403,-35.496,70.252,-52.198
2026-05-23 15:26:17.053,1433516509,179053,1,0.02686,-0.00806,0.68213,-17.893,100.489,6.168
2026-05-23 15:26:17.053,1433516509,179053,2,0.33423,0.49756,1.20166,-16.702,80.191,-37.206
2026-05-23 15:26:17.253,1433516709,179253,1,-0.42163,-0.16187,0.89331,-22.809,66.634,-1.061
2026-05-23 15:26:17.253,1433516709,179253,2,-0.02539,0.47559,1.34033,-5.847,42.519,-20.916
2026-05-23 15:26:17.453,1433516909,179453,1,-0.54272,-0.15698,0.78271,-16.603,33.985,3.252
2026-05-23 15:26:17.453,1433516909,179453,2,-0.16479,0.47485,1.32617,-18.794,23.053,-7.702
2026-05-23 15:26:18.653,1433518109,179653,1,-0.51782,-0.10913,0.63354,0.183,-17.336,2.962
2026-05-23 15:26:18.653,1433518109,179653,2,0.02515,0.46216,1.30688,0.275,-13.824,10.015
2026-05-23 15:26:18.853,1433518309,179853,1,-0.57373,-0.19385,0.89526,3.183,-59.725,5.344
2026-05-23 15:26:18.853,1433518309,179853,2,0.16675,0.55859,1.2627,12.183,-53.107,37.992
2026-05-23 15:26:18.053,1433517509,180053,1,-0.22363,-0.14209,0.86475,-3.649,-93.473,-2.55
2026-05-23 15:26:18.053,1433517509,180053,2,0.39331,0.48218,1.13428,22.046,-86.588,47.061
2026-05-23 15:26:18.253,1433517709,180253,1,0.27173,0.11401,0.63843,38.771,-144.542,-2.656
2026-05-23 15:26:18.253,1433517709,180253,2,0.64746,0.45581,0.86475,26.962,-92.252,42.519
2026-05-23 15:26:18.488,1433517944,180487,1,0.70752,0.01831,0.53027,-1.588,-86.107,-6.969
2026-05-23 15:26:18.488,1433517944,180487,2,0.88403,0.4585,0.67529,28.038,-33.076,23.29
2026-05-23 15:26:19.687,1433519143,180687,1,0.87231,0.0083,0.39258,-2.183,-43.031,-7.221
2026-05-23 15:26:19.687,1433519143,180687,2,0.90479,0.30176,0.57227,0.908,-19.443,12.008
2026-05-23 15:26:22.619,1433522075,183619,1,0.39868,0.14795,0.66699,24.809,-105.115,2.878
2026-05-23 15:26:22.619,1433522075,183619,2,0.75146,0.5022,0.84717,25.313,-65.168,38.45
2026-05-23 15:26:22.819,1433522275,183819,1,0.67261,0.16016,0.50708,13.473,-89.55,2.351
2026-05-23 15:26:22.819,1433522275,183819,2,-0.13013,0.45679,1.32251,3.969,-1.763,2.733
2026-05-23 15:26:25.696,1433525152,186696,1,-0.50879,-0.09106,0.63232,1.267,-0.87,4.122
2026-05-23 15:26:25.696,1433525152,186696,2,-0.13672,0.51733,1.24048,-1.786,-9.809,5.16
2026-05-23 15:26:25.896,1433525352,186896,1,-0.47485,-0.13599,0.77197,-0.122,-26.137,-0.55
2026-05-23 15:26:25.896,1433525352,186896,2,0.00269,0.55005,1.36719,1.985,-31.641,15.573
2026-05-23 15:26:25.096,1433524552,187096,1,-0.31592,-0.15649,0.84546,-1.664,-72.519,-9.084
2026-05-23 15:26:25.096,1433524552,187096,2,0.229,0.55713,1.26587,14.412,-65.008,40.023
2026-05-23 15:26:25.351,1433524807,187351,1,0.06836,-0.19604,0.83594,20.122,-119.122,-4.748
2026-05-23 15:26:25.351,1433524807,187351,2,0.55884,0.39624,0.86475,15.092,-83.74,46.756
2026-05-23 15:26:26.551,1433526007,187551,1,0.65576,-0.07642,0.44995,5.985,-119.855,-12.786
2026-05-23 15:26:26.551,1433526007,187551,2,0.2644,0.49561,1.17847,21.412,-71.321,47.405
2026-05-23 15:26:31.405,1433530861,193405,1,1.00952,0.15479,0.12549,0.496,6.519,0.374
2026-05-23 15:26:31.405,1433530861,193405,2,0.94604,0.26025,0.29468,5.519,13.321,-5.527
2026-05-23 15:26:32.605,1433532061,193605,1,1.00708,0.13403,0.13574,-0.679,12.832,2.092
2026-05-23 15:26:32.605,1433532061,193605,2,0.98438,0.26904,0.35327,12.382,17.977,-4.153
2026-05-23 15:26:34.462,1433533918,196462,1,0.18726,-0.03198,0.86523,4.908,-77.771,-13.183
2026-05-23 15:26:34.462,1433533918,196462,2,0.54395,0.40723,1.06543,5.779,-78.183,32.244
2026-05-23 15:26:35.662,1433535118,196662,1,0.42261,0.12964,0.36719,26.443,-132.435,-11.931
2026-05-23 15:26:35.662,1433535118,196662,2,0.85791,0.34692,0.64258,13.733,-44.519,25.366
2026-05-23 15:26:35.909,1433535365,196908,1,1.01758,-0.02783,0.27344,1.878,-46.0,-21.748
2026-05-23 15:26:35.909,1433535365,196908,2,0.93579,0.27881,0.71021,-1.748,-33.298,13.702
2026-05-23 15:26:35.108,1433534564,197108,1,0.89673,0.09399,0.34595,-5.611,1.618,0.282
2026-05-23 15:26:35.108,1433534564,197108,2,0.72705,0.3562,0.73315,1.931,1.595,0.214
2026-05-23 15:26:38.069,1433537525,200069,1,0.76611,0.19507,0.34937,-10.0,-0.336,-3.206
2026-05-23 15:26:38.069,1433537525,200069,2,0.8728,0.43408,0.82397,7.427,1.634,-1.489
2026-05-23 15:26:38.269,1433537725,200269,1,0.83032,0.16919,0.48389,-14.611,0.008,3.099
2026-05-23 15:26:38.269,1433537725,200269,2,0.7876,0.36499,0.7854,-6.55,8.87,5.45
2026-05-23 15:26:38.469,1433537925,200469,1,0.83008,0.12354,0.49243,-1.992,2.374,7.763
2026-05-23 15:26:38.469,1433537925,200469,2,0.75562,0.45654,0.83887,-10.565,3.71,0.748
2026-05-23 15:26:41.064,1433540520,203064,1,0.72852,0.0249,0.58472,-0.115,2.168,1.405
2026-05-23 15:26:41.064,1433540520,203064,2,0.77271,0.44922,0.84717,-9.527,-0.885,2.328
2026-05-23 15:26:41.264,1433540720,203264,1,0.70581,0.03076,0.57813,-10.817,7.183,-0.031
2026-05-23 15:26:41.264,1433540720,203264,2,0.79834,0.41577,0.88599,-12.069,-0.092,-2.985
2026-05-23 15:26:41.464,1433540920,203464,1,1.01367,0.06519,0.98755,-1.0,66.718,11.099
2026-05-23 15:26:41.464,1433540920,203464,2,1.06128,0.61597,1.17969,-29.191,67.069,-40.023
2026-05-23 15:26:45.558,1433545014,206558,1,0.08594,-0.04736,0.88403,1.191,-17.618,4.656
2026-05-23 15:26:45.558,1433545014,206558,2,0.77075,0.41406,0.86548,1.733,0.252,0.427
2026-05-23 15:26:48.797,1433548253,209797,1,0.69897,0.02612,0.58521,-0.252,1.771,0.931
2026-05-23 15:26:48.797,1433548253,209797,2,0.76367,0.41211,0.85498,0.725,-0.802,0.565
2026-05-23 15:26:48.997,1433548453,209997,1,0.72607,0.021,0.61499,-6.221,-1.832,0.313
2026-05-23 15:26:48.997,1433548453,209997,2,0.77734,0.43262,0.84155,4.412,0.695,2.588
2026-05-23 15:26:48.197,1433547653,210197,1,0.74316,0.02905,0.5813,-4.87,-3.008,-0.435
2026-05-23 15:26:48.197,1433547653,210197,2,0.7793,0.43457,0.84204,-1.015,1.0,2.618
2026-05-23 15:26:48.397,1433547853,210397,1,0.73853,0.00684,0.5813,-3.985,-0.603,-2.58
2026-05-23 15:26:48.397,1433547853,210397,2,0.78076,0.4231,0.84106,-0.634,-0.626,0.595
2026-05-23 15:26:49.597,1433549053,210597,1,0.74341,0.01807,0.57788,-2.16,-0.763,-0.557
2026-05-23 15:26:49.597,1433549053,210597,2,0.78613,0.42529,0.84106,-1.359,-0.107,2.076
2026-05-23 15:26:49.797,1433549253,210797,1,0.74487,0.02124,0.5769,0.061,0.282,0.779
2026-05-23 15:26:49.797,1433549253,210797,2,0.78931,0.42651,0.82739,-6.344,-1.611,3.031
2026-05-23 15:26:49.997,1433549453,210997,1,0.74585,0.04077,0.57837,-0.565,0.069,0.015
2026-05-23 15:26:49.997,1433549453,210997,2,0.78345,0.40747,0.84009,-5.534,0.26,2.519
2026-05-23 15:26:49.197,1433548653,211197,1,1.07104,0.09668,0.67578,-10.954,19.458,2.863
2026-05-23 15:26:49.197,1433548653,211197,2,1.2417,0.68579,1.1814,-1.0,63.359,-46.16
2026-05-23 15:26:49.397,1433548853,211397,1,0.51147,0.02295,0.84399,-10.893,61.26,-7.962
2026-05-23 15:26:49.397,1433548853,211397,2,0.5874,0.42041,0.93896,19.603,31.679,-17.092
2026-05-23 15:26:50.597,1433550053,211597,1,0.40381,0.03491,0.74609,-11.641,21.947,1.496
2026-05-23 15:26:50.597,1433550053,211597,2,0.56519,0.46973,1.04907,-13.237,15.603,1.359
2026-05-23 15:26:50.797,1433550253,211797,1,0.30542,0.19092,0.56885,-6.74,80.359,29.443
2026-05-23 15:26:50.797,1433550253,211797,2,0.44287,0.55566,1.05371,-3.45,66.031,-15.13
2026-05-23 15:26:50.997,1433550453,211997,1,-0.03613,-0.12744,0.63525,-17.527,90.29,4.489
2026-05-23 15:26:50.997,1433550453,211997,2,0.06763,0.40381,0.9812,-14.649,44.679,-31.481
2026-05-23 15:26:50.197,1433549653,212197,1,-0.26514,-0.0686,0.77637,-8.0,43.053,-4.954
2026-05-23 15:26:50.197,1433549653,212197,2,0.01733,0.29468,1.19678,1.0,20.878,-23.634
2026-05-23 15:26:50.438,1433549894,212438,1,-0.31738,-0.08301,0.80957,18.58,12.107,8.603
2026-05-23 15:26:50.438,1433549894,212438,2,-0.17358,0.56567,1.21729,28.214,4.153,12.824
2026-05-23 15:26:51.638,1433551094,212638,1,-0.32202,-0.01807,0.77783,10.107,-60.038,-4.588
2026-05-23 15:26:51.638,1433551094,212638,2,0.57495,0.45752,1.02441,20.328,-65.183,40.275
2026-05-23 15:26:56.746,1433556202,217746,1,0.26416,0.073,0.74072,21.298,-100.893,3.603
2026-05-23 15:26:56.746,1433556202,217746,2,0.63696,0.45313,0.92603,26.794,-71.168,38.947
2026-05-23 15:26:56.946,1433556402,217946,1,0.59131,0.1084,0.59106,11.855,-93.13,3.153
2026-05-23 15:26:56.946,1433556402,217946,2,0.96387,0.32959,0.45581,12.908,-40.962,23.489
2026-05-23 15:26:57.533,1433556989,218533,1,0.99268,0.14551,0.1062,-4.87,-48.611,1.87
2026-05-23 15:26:57.533,1433556989,218533,2,0.95874,0.23779,0.42139,-25.87,-33.573,4.305
2026-05-23 15:26:57.733,1433557189,218733,1,1.04468,0.07422,0.04688,-6.618,-18.084,-10.252
2026-05-23 15:26:57.733,1433557189,218733,2,0.99023,0.2124,0.34155,-0.458,-28.214,5.198
2026-05-23 15:26:57.933,1433557389,218933,1,1.06934,0.14673,-0.02124,-2.145,-8.992,0.015
2026-05-23 15:26:57.933,1433557389,218933,2,0.98828,0.24072,0.33154,-4.969,2.412,4.038
2026-05-23 15:26:57.133,1433556589,219133,1,1.04907,0.09204,-0.01318,-0.977,2.389,2.672
2026-05-23 15:26:57.133,1433556589,219133,2,0.95044,0.23267,0.31299,-0.626,5.802,-1.214
2026-05-23 15:26:57.333,1433556789,219333,1,1.04175,0.13037,0.01245,-0.031,7.863,-0.565
2026-05-23 15:26:57.333,1433556789,219333,2,0.95508,0.23364,0.35742,1.023,1.924,-0.702
2026-05-23 15:26:58.533,1433557989,219533,1,1.04077,0.12622,0.02856,-0.023,0.679,3.45
2026-05-23 15:26:58.533,1433557989,219533,2,0.93604,0.22363,0.33887,1.122,-4.29,3.176
2026-05-23 15:26:58.733,1433558189,219733,1,1.04395,0.09888,0.01416,0.389,-4.099,3.0
2026-05-23 15:26:58.733,1433558189,219733,2,0.94946,0.23267,0.33569,1.969,-1.015,3.756
2026-05-23 15:26:58.933,1433558389,219933,1,1.05005,0.09448,0.01392,-3.412,-0.122,-0.656
2026-05-23 15:26:58.933,1433558389,219933,2,0.95093,0.21948,0.32373,0.55,0.542,3.115
2026-05-23 15:26:58.133,1433557589,220133,1,1.05347,0.08862,0.01245,-2.931,1.427,0.214
2026-05-23 15:26:58.133,1433557589,220133,2,0.95605,0.21631,0.32983,1.466,2.527,1.13
2026-05-23 15:26:58.333,1433557789,220333,1,1.05225,0.09619,0.02246,-0.084,2.718,1.0
2026-05-23 15:26:58.333,1433557789,220333,2,0.93481,0.25854,0.3313,6.298,0.153,2.756
2026-05-23 15:27:02.558,1433562014,223558,1,1.03809,0.12329,0.03711,1.885,1.405,4.924
2026-05-23 15:27:02.558,1433562014,223558,2,0.97168,0.20264,0.21533,-6.366,-1.908,-1.313
2026-05-23 15:27:02.758,1433562214,223758,1,1.05103,0.1377,-0.03345,-5.534,-1.359,-2.809
2026-05-23 15:27:02.758,1433562214,223758,2,0.91235,0.22974,0.23486,-8.542,-5.458,2.771
2026-05-23 15:27:02.958,1433562414,223958,1,1.05005,0.15601,-0.02612,-12.763,-2.061,-4.519
2026-05-23 15:27:02.958,1433562414,223958,2,0.91626,0.28906,0.354,-16.824,34.756,-5.55
2026-05-23 15:27:02.158,1433561614,224158,1,1.04053,0.15234,-0.03564,-11.137,-3.382,-2.069
2026-05-23 15:27:02.158,1433561614,224158,2,0.95728,0.24805,0.26367,-5.718,1.282,0.313
2026-05-23 15:27:02.358,1433561814,224358,1,1.03394,0.12036,-0.00317,-14.29,-0.618,-2.985
2026-05-23 15:27:02.358,1433561814,224358,2,0.95801,0.22607,0.24756,0.87,3.992,4.115
2026-05-23 15:27:03.558,1433563014,224558,1,1.05029,0.14648,-0.02612,-12.29,-6.42,1.588
2026-05-23 15:27:03.558,1433563014,224558,2,0.92627,0.20142,0.28638,-1.511,4.427,3.115
2026-05-23 15:27:03.758,1433563214,224758,1,1.05225,0.12891,-0.04639,3.802,-0.198,-0.794
2026-05-23 15:27:03.758,1433563214,224758,2,0.83325,0.24487,0.4165,-40.13,-3.962,-13.145
2026-05-23 15:27:03.958,1433563414,224958,1,1.05225,0.13501,-0.06055,-0.954,-0.053,0.351
2026-05-23 15:27:03.958,1433563414,224958,2,0.87988,0.21289,0.19604,19.786,11.038,2.71
2026-05-23 15:27:03.158,1433562614,225158,1,1.06689,0.146,-0.09033,3.359,-31.191,-8.298
2026-05-23 15:27:03.158,1433562614,225158,2,0.95361,0.23364,0.50977,-2.565,-9.962,1.824
2026-05-23 15:27:03.358,1433562814,225358,1,1.06836,0.1062,-0.09595,-1.893,-2.84,0.069
2026-05-23 15:27:03.358,1433562814,225358,2,0.95459,0.24976,0.25928,-18.168,-9.023,-6.679
2026-05-23 15:27:04.558,1433564014,225558,1,1.08325,0.14771,-0.08154,2.244,1.656,1.298
2026-05-23 15:27:04.558,1433564014,225558,2,0.98315,0.17969,0.17896,32.244,29.595,12.092
2026-05-23 15:27:04.758,1433564214,225758,1,1.04688,0.11597,-0.06885,-10.802,-9.198,-1.74
2026-05-23 15:27:04.758,1433564214,225758,2,0.43896,0.37964,0.56079,58.58,105.038,19.366
2026-05-23 15:27:04.958,1433564414,225958,1,1.10791,0.1167,0.00098,-46.084,-13.42,-4.611
2026-05-23 15:27:04.958,1433564414,225958,2,1.07422,0.17041,0.37793,25.84,-24.84,0.191
2026-05-23 15:27:04.158,1433563614,226158,1,1.00635,0.16162,-0.01343,0.931,12.069,-0.794
2026-05-23 15:27:04.158,1433563614,226158,2,0.90381,0.20679,0.30518,13.901,6.13,-0.565
2026-05-23 15:27:04.358,1433563814,226358,1,1.04346,0.15796,0.00513,-7.786,-2.405,1.282
2026-05-23 15:27:04.358,1433563814,226358,2,0.92896,0.19287,0.35376,-0.748,0.13,-0.595
2026-05-23 15:27:05.558,1433565014,226558,1,1.03101,0.16919,-0.02051,-3.588,-6.076,-1.153
2026-05-23 15:27:05.558,1433565014,226558,2,0.9436,0.20166,0.28857,-5.031,-0.947,2.198
2026-05-23 15:27:05.758,1433565214,226758,1,1.05371,0.1604,-0.02563,1.664,1.977,3.87
2026-05-23 15:27:05.758,1433565214,226758,2,0.95166,0.17017,0.27246,-2.794,-1.664,3.725
2026-05-23 15:27:05.958,1433565414,226958,1,1.05713,0.13672,-0.01904,-0.672,0.282,-1.076
2026-05-23 15:27:05.958,1433565414,226958,2,0.94653,0.16577,0.2688,-1.046,-2.527,2.588
2026-05-23 15:27:05.158,1433564614,227158,1,1.04834,0.14282,-0.03369,1.176,0.824,-1.901
2026-05-23 15:27:05.158,1433564614,227158,2,0.95044,0.16626,0.27051,-5.969,-1.87,0.183
2026-05-23 15:27:05.358,1433564814,227358,1,1.02588,0.16528,-0.0144,4.863,1.824,-0.794
2026-05-23 15:27:05.358,1433564814,227358,2,0.94971,0.16455,0.27026,0.908,-8.267,-0.145
2026-05-23 15:27:06.558,1433566014,227558,1,1.03394,0.13599,-0.03271,-11.252,-7.718,-2.13
2026-05-23 15:27:06.558,1433566014,227558,2,0.95239,0.14038,0.37183,2.84,8.832,-0.664
2026-05-23 15:27:06.758,1433566214,227758,1,1.06958,0.14771,-0.05151,-3.55,-0.725,-1.603
2026-05-23 15:27:06.758,1433566214,227758,2,0.93652,0.16992,0.23413,0.015,-1.061,0.191
2026-05-23 15:27:06.958,1433566414,227958,1,1.04565,0.14282,-0.04443,-3.771,-1.244,-2.076
2026-05-23 15:27:06.958,1433566414,227958,2,0.94922,0.17627,0.2356,-3.687,-3.107,2.573
2026-05-23 15:27:06.158,1433565614,228158,1,1.04565,0.13428,-0.04712,-7.779,-0.244,0.359
2026-05-23 15:27:06.158,1433565614,228158,2,0.93921,0.16309,0.2251,-3.565,0.809,1.847
2026-05-23 15:27:06.358,1433565814,228358,1,1.05029,0.14453,-0.0376,-1.595,2.855,-1.656
2026-05-23 15:27:06.358,1433565814,228358,2,0.93286,0.17969,0.23438,-0.863,2.099,2.427
2026-05-23 15:27:07.558,1433567014,228558,1,1.06616,0.15918,-0.05298,1.74,-0.733,0.763
2026-05-23 15:27:07.558,1433567014,228558,2,0.94629,0.17358,0.24316,-0.405,1.649,1.504
2026-05-23 15:27:07.758,1433567214,228758,1,1.06055,0.14209,-0.04126,2.672,5.26,1.099
2026-05-23 15:27:07.758,1433567214,228758,2,0.95142,0.17139,0.2251,-1.214,2.656,-0.496
2026-05-23 15:27:07.958,1433567414,228958,1,1.05591,0.14941,-0.0293,-1.55,6.771,-0.58
2026-05-23 15:27:07.958,1433567414,228958,2,0.93774,0.17944,0.25146,-0.542,4.794,0.183
2026-05-23 15:27:07.158,1433566614,229158,1,1.04614,0.15161,-0.01318,-3.13,11.45,0.229
2026-05-23 15:27:07.158,1433566614,229158,2,0.9856,0.20923,0.26392,1.55,13.718,-6.0
2026-05-23 15:27:07.358,1433566814,229358,1,1.06128,0.15356,0.00317,-5.74,32.763,1.153
2026-05-23 15:27:07.358,1433566814,229358,2,0.99341,0.23047,0.30005,7.939,27.893,-8.573
2026-05-23 15:27:08.558,1433568014,229558,1,0.9707,0.15942,0.11133,-21.626,82.939,1.214
2026-05-23 15:27:08.558,1433568014,229558,2,0.98389,0.30005,0.46973,-13.885,75.939,-37.588
2026-05-23 15:27:08.758,1433568214,229758,1,0.48193,0.05786,0.36133,-30.168,121.618,12.221
2026-05-23 15:27:08.758,1433568214,229758,2,0.58057,0.39258,0.58594,-9.412,124.099,-63.336
2026-05-23 15:27:08.958,1433568414,229958,1,0.30591,-0.04102,0.69385,-10.244,96.046,6.511
2026-05-23 15:27:08.958,1433568414,229958,2,0.43726,0.45117,0.99951,-12.427,51.382,-43.168
2026-05-23 15:27:08.158,1433567614,230158,1,0.14673,-0.00684,0.82983,-9.053,25.038,-3.015
2026-05-23 15:27:08.158,1433567614,230158,2,0.36279,0.48242,1.0354,-17.252,3.878,-8.527
2026-05-23 15:27:08.358,1433567814,230358,1,0.20508,-0.09351,0.89282,-0.336,-35.344,-2.992
2026-05-23 15:27:08.358,1433567814,230358,2,0.44482,0.58325,1.08911,7.573,-21.634,17.519
2026-05-23 15:27:09.558,1433569014,230558,1,0.50146,-0.10376,0.99121,2.969,-55.481,-9.504
2026-05-23 15:27:09.558,1433569014,230558,2,0.72803,0.57935,1.0813,2.908,-47.626,30.908
2026-05-23 15:27:09.758,1433569214,230758,1,0.82495,0.00879,0.82104,7.786,-41.718,-0.466
2026-05-23 15:27:09.758,1433569214,230758,2,0.99219,0.60718,1.104,11.885,-19.626,22.725
2026-05-23 15:27:09.958,1433569414,230958,1,0.62793,0.04761,0.52563,7.244,0.168,6.969
2026-05-23 15:27:09.958,1433569414,230958,2,0.80225,0.4585,0.8938,-16.481,-1.023,5.641
2026-05-23 15:27:09.158,1433568614,231158,1,0.76001,0.03076,0.72461,16.321,60.008,9.718
2026-05-23 15:27:09.158,1433568614,231158,2,0.94873,0.61621,1.00659,-4.053,56.641,-26.412
2026-05-23 15:27:09.358,1433568814,231358,1,0.43896,0.02148,0.7312,-25.061,82.809,-10.405
2026-05-23 15:27:09.358,1433568814,231358,2,0.53345,0.43384,0.98608,-30.718,55.611,-37.794
2026-05-23 15:27:10.558,1433570014,231558,1,0.02856,-0.08521,0.86084,-9.275,58.008,-8.641
2026-05-23 15:27:10.558,1433570014,231558,2,0.37305,0.42334,1.22632,-13.046,40.58,-26.183
2026-05-23 15:27:10.758,1433570214,231758,1,-0.073,-0.14722,0.95532,-11.534,28.947,7.16
2026-05-23 15:27:10.758,1433570214,231758,2,0.18921,0.5083,1.21094,-1.931,21.412,-1.008
2026-05-23 15:27:10.958,1433570414,231958,1,-0.18481,-0.11084,1.00024,-2.824,-43.45,4.733
2026-05-23 15:27:10.958,1433570414,231958,2,0.29126,0.40796,1.16333,10.687,-47.962,34.931
2026-05-23 15:27:10.158,1433569614,232158,1,0.10254,-0.10498,0.7627,7.969,-125.336,-0.504
2026-05-23 15:27:10.158,1433569614,232158,2,0.53394,0.38159,0.89941,28.679,-107.863,58.756
2026-05-23 15:27:10.358,1433569814,232358,1,0.52686,0.13037,0.17456,40.153,-137.412,-13.87
2026-05-23 15:27:10.358,1433569814,232358,2,0.77979,0.47461,0.78052,6.359,-67.641,39.244
2026-05-23 15:27:11.558,1433571014,232558,1,1.01807,0.0354,0.17432,-24.344,-26.16,-12.992
2026-05-23 15:27:11.558,1433571014,232558,2,0.94995,0.32178,0.552,-4.153,-8.954,0.221
2026-05-23 15:27:11.758,1433571214,232758,1,0.99609,0.06274,0.26245,-39.275,-1.168,-8.168
2026-05-23 15:27:11.758,1433571214,232758,2,0.9707,0.30908,0.58887,-12.618,14.832,-7.206
2026-05-23 15:27:11.958,1433571414,232958,1,0.91333,0.08008,0.3269,-15.198,54.237,1.924
2026-05-23 15:27:11.958,1433571414,232958,2,0.83838,0.31567,0.6543,-8.779,52.282,-24.443
2026-05-23 15:27:11.158,1433570614,233158,1,0.54565,0.07007,0.52734,-10.427,107.58,-2.863
2026-05-23 15:27:11.158,1433570614,233158,2,0.78955,0.53198,1.00781,-7.191,76.366,-35.939
2026-05-23 15:27:11.358,1433570814,233358,1,0.16211,-0.02295,0.86963,-23.84,108.374,-3.565
2026-05-23 15:27:11.358,1433570814,233358,2,0.43652,0.50024,1.09204,-34.87,75.87,-44.351
2026-05-23 15:27:12.558,1433572014,233558,1,-0.14941,-0.10156,0.86279,-10.092,81.939,2.008
2026-05-23 15:27:12.558,1433572014,233558,2,0.32593,0.45581,1.25317,-17.076,35.817,-25.771
2026-05-23 15:27:12.758,1433572214,233758,1,-0.3916,-0.13574,0.90405,-20.573,60.137,-3.023
2026-05-23 15:27:12.758,1433572214,233758,2,0.07129,0.50952,1.24536,-18.573,34.924,-21.718
2026-05-23 15:27:12.958,1433572414,233958,1,-0.51611,-0.10498,0.74121,-3.084,38.748,-1.71
2026-05-23 15:27:12.958,1433572414,233958,2,0.0249,0.48364,1.28418,-13.13,20.069,-13.26
2026-05-23 15:27:12.158,1433571614,234158,1,-0.42798,-0.13403,0.7002,-5.733,2.939,-2.954
2026-05-23 15:27:12.158,1433571614,234158,2,-0.15015,0.49951,1.34375,-9.641,1.13,-0.443
2026-05-23 15:27:12.358,1433571814,234358,1,-0.54028,-0.19922,0.73389,-10.824,-32.893,-12.29
2026-05-23 15:27:12.358,1433571814,234358,2,-0.00269,0.42065,1.3374,1.626,-21.878,13.275
2026-05-23 15:27:13.558,1433573014,234558,1,-0.34595,-0.10767,0.79004,19.298,-43.206,0.496
2026-05-23 15:27:13.558,1433573014,234558,2,0.12769,0.50073,1.2854,10.008,-35.718,20.947
2026-05-23 15:27:13.758,1433573214,234758,1,-0.1731,-0.08911,0.87158,16.511,-75.878,1.023
2026-05-23 15:27:13.758,1433573214,234758,2,0.38379,0.47827,1.15308,28.534,-70.359,44.168
2026-05-23 15:27:13.958,1433573414,234958,1,0.14697,-0.02686,0.76855,18.389,-105.008,-4.588
2026-05-23 15:27:13.958,1433573414,234958,2,0.65723,0.41138,0.99463,26.702,-66.901,45.137
2026-05-23 15:27:13.158,1433572614,235158,1,0.5022,0.06567,0.64648,16.305,-88.626,6.206
2026-05-23 15:27:13.158,1433572614,235158,2,0.76685,0.45435,0.78442,16.687,-61.756,31.626
2026-05-23 15:27:13.358,1433572814,235358,1,0.77832,0.12183,0.46997,5.191,-86.45,0.603
2026-05-23 15:27:13.358,1433572814,235358,2,0.88086,0.35547,0.6189,4.74,-62.588,31.824
2026-05-23 15:27:14.558,1433574014,235558,1,0.95166,0.09619,0.22046,14.496,-66.519,4.611
2026-05-23 15:27:14.558,1433574014,235558,2,0.93872,0.30127,0.44873,1.321,-28.473,12.053
2026-05-23 15:27:14.758,1433574214,235758,1,1.06958,0.13599,0.07617,-6.618,-45.702,3.351
2026-05-23 15:27:14.758,1433574214,235758,2,0.94409,0.24976,0.37939,-22.618,-25.824,8.374
2026-05-23 15:27:14.958,1433574414,235958,1,1.07764,0.16455,0.02588,-10.168,-25.863,-0.679
2026-05-23 15:27:14.958,1433574414,235958,2,0.98022,0.25366,0.21533,-35.55,-31.786,-2.191
2026-05-23 15:27:14.158,1433573614,236158,1,1.06006,0.10498,0.03296,7.985,4.252,5.099
2026-05-23 15:27:14.158,1433573614,236158,2,1.00317,0.18164,0.32471,-0.008,21.496,-2.321
2026-05-23 15:27:14.358,1433573814,236358,1,1.05884,0.1311,0.01318,-6.618,-5.466,-1.771
2026-05-23 15:27:14.358,1433573814,236358,2,0.854,0.09888,0.34814,-4.969,19.756,4.618
2026-05-23 15:27:15.558,1433575014,236558,1,1.00659,0.14697,0.05371,-4.634,-0.771,1.229
2026-05-23 15:27:15.558,1433575014,236558,2,0.93774,0.20679,0.2124,-2.29,1.641,6.298
2026-05-23 15:27:15.758,1433575214,236758,1,1.00854,0.1001,0.05591,0.076,4.405,0.252
2026-05-23 15:27:15.758,1433575214,236758,2,0.92798,0.2124,0.30347,-4.725,6.71,-6.763
2026-05-23 15:27:15.958,1433575414,236958,1,1.03247,0.15796,0.05127,0.809,0.611,1.863
2026-05-23 15:27:15.958,1433575414,236958,2,0.93823,0.2085,0.26978,-3.107,-1.008,0.748
2026-05-23 15:27:15.158,1433574614,237158,1,1.04639,0.13428,0.05371,-1.45,-2.794,0.053
2026-05-23 15:27:15.158,1433574614,237158,2,0.93286,0.20605,0.27124,-2.718,-0.038,-0.275
2026-05-23 15:27:15.358,1433574814,237358,1,1.04736,0.14087,0.06079,-0.191,-1.794,0.351
2026-05-23 15:27:15.358,1433574814,237358,2,0.93896,0.21533,0.30615,-2.718,5.336,-1.053
2026-05-23 15:27:16.558,1433576014,237558,1,1.04565,0.12866,0.05444,-3.794,-0.794,0.443
2026-05-23 15:27:16.558,1433576014,237558,2,0.9458,0.19629,0.28931,-1.786,2.565,1.435
2026-05-23 15:27:16.758,1433576214,237758,1,1.03784,0.11304,0.07202,-3.122,-0.061,-1.435
2026-05-23 15:27:16.758,1433576214,237758,2,0.94067,0.21216,0.28906,-2.672,1.198,0.16
2026-05-23 15:27:16.958,1433576414,237958,1,1.03149,0.12817,0.05225,-3.099,1.725,-0.229
2026-05-23 15:27:16.958,1433576414,237958,2,0.94678,0.1853,0.28735,-1.618,1.153,2.069
2026-05-23 15:27:16.158,1433575614,238158,1,1.03467,0.11743,0.05859,-2.664,3.58,-0.618
2026-05-23 15:27:16.158,1433575614,238158,2,0.94751,0.19482,0.28613,-0.565,3.145,0.649
2026-05-23 15:27:16.358,1433575814,238358,1,1.03223,0.1311,0.07642,0.313,1.29,-0.672
2026-05-23 15:27:16.358,1433575814,238358,2,0.93335,0.1958,0.30444,-1.336,2.305,0.832
2026-05-23 15:27:17.558,1433577014,238558,1,1.03125,0.12769,0.06909,3.099,1.107,0.611
2026-05-23 15:27:17.558,1433577014,238558,2,0.93823,0.20532,0.3042,-1.649,-0.13,0.878
2026-05-23 15:27:17.758,1433577214,238758,1,1.03564,0.125,0.05981,-1.611,1.137,-0.527
2026-05-23 15:27:17.758,1433577214,238758,2,0.95068,0.2146,0.2937,-0.794,1.076,0.588
2026-05-23 15:27:17.958,1433577414,238958,1,1.03271,0.14307,0.07227,-0.664,0.328,0.237
2026-05-23 15:27:17.958,1433577414,238958,2,0.94995,0.20557,0.29663,0.366,0.519,2.588
2026-05-23 15:27:17.158,1433576614,239158,1,1.03955,0.12622,0.06567,-3.58,0.336,-0.244
2026-05-23 15:27:17.158,1433576614,239158,2,0.94312,0.21338,0.31006,-1.344,0.397,1.687
2026-05-23 15:27:17.358,1433576814,239358,1,1.05225,0.12354,0.0498,-3.45,8.809,-0.16
2026-05-23 15:27:17.358,1433576814,239358,2,0.98218,0.23608,0.36377,5.298,12.702,-4.802
2026-05-23 15:27:18.558,1433578014,239558,1,1.04565,0.12451,0.0791,-1.878,46.321,0.496
2026-05-23 15:27:18.558,1433578014,239558,2,0.98657,0.2478,0.39819,27.977,45.908,-15.863
2026-05-23 15:27:18.758,1433578214,239758,1,0.83569,0.13086,0.34863,-31.634,106.718,-2.252
2026-05-23 15:27:18.758,1433578214,239758,2,0.9231,0.3147,0.59302,-30.924,99.504,-44.076
2026-05-23 15:27:18.958,1433578414,239958,1,0.46558,0.04102,0.55005,-23.42,121.305,6.29
2026-05-23 15:27:18.958,1433578414,239958,2,0.75146,0.48657,0.76099,-8.603,101.679,-47.664
2026-05-23 15:27:18.158,1433577614,240158,1,0.09985,-0.02344,0.78052,-15.794,125.237,7.756
2026-05-23 15:27:18.158,1433577614,240158,2,0.43896,0.49072,1.06299,-20.191,95.412,-52.084
2026-05-23 15:27:18.358,1433577814,240358,1,-0.32886,-0.09131,0.87256,-11.336,84.229,0.137
2026-05-23 15:27:18.358,1433577814,240358,2,0.08203,0.55713,1.25708,-21.916,58.031,-33.947
2026-05-23 15:27:19.558,1433579014,240558,1,-0.57227,-0.18359,0.83203,-10.908,30.908,-0.389
2026-05-23 15:27:19.558,1433579014,240558,2,-0.06787,0.47607,1.31592,-16.053,21.29,-11.702
2026-05-23 15:27:19.758,1433579214,240758,1,-0.51782,-0.21753,0.68726,-5.038,7.198,-0.962
2026-05-23 15:27:19.758,1433579214,240758,2,-0.1543,0.45483,1.30859,5.458,-0.359,0.412
2026-05-23 15:27:19.958,1433579414,240958,1,-0.43286,-0.13574,0.69531,-1.649,-20.824,4.45
2026-05-23 15:27:19.958,1433579414,240958,2,-0.00073,0.50049,1.34033,4.359,-25.023,13.702
2026-05-23 15:27:19.158,1433578614,241158,1,-0.39722,-0.04395,0.85815,2.29,-67.573,-6.916
2026-05-23 15:27:19.158,1433578614,241158,2,0.16748,0.55688,1.20337,7.42,-57.038,34.824
2026-05-23 15:27:19.358,1433578814,241358,1,-0.07104,-0.10352,0.82886,4.87,-121.511,-1.351
2026-05-23 15:27:19.358,1433578814,241358,2,0.4978,0.50488,1.11108,29.221,-91.038,45.969
2026-05-23 15:27:20.558,1433580014,241558,1,0.3147,0.00928,0.56714,-13.931,-142.527,-16.305
2026-05-23 15:27:20.558,1433580014,241558,2,0.79541,0.32715,0.78955,24.115,-93.832,42.412
2026-05-23 15:27:20.758,1433580214,241758,1,0.79443,-0.02148,0.37964,-3.908,-78.305,-10.649
2026-05-23 15:27:20.758,1433580214,241758,2,0.86255,0.3186,0.66553,9.328,-39.397,27.298
2026-05-23 15:27:20.958,1433580414,241958,1,0.93848,0.04175,0.25928,-8.374,-30.863,-8.046
2026-05-23 15:27:20.958,1433580414,241958,2,0.979,0.30908,0.53467,2.855,-3.733,9.489
2026-05-23 15:27:20.158,1433579614,242158,1,0.94702,0.02954,0.30859,7.489,18.214,6.13
2026-05-23 15:27:20.158,1433579614,242158,2,0.91943,0.2981,0.53442,3.718,21.29,-15.389
2026-05-23 15:27:20.358,1433579814,242358,1,0.88623,-0.00928,0.37915,1.702,49.366,-2.008
2026-05-23 15:27:20.358,1433579814,242358,2,0.89111,0.39624,0.67261,-1.084,36.763,-15.473
2026-05-23 15:27:21.558,1433581014,242558,1,0.60034,0.06616,0.50171,-10.504,97.267,3.962
2026-05-23 15:27:21.558,1433581014,242558,2,0.68994,0.46582,0.77002,-10.611,67.863,-31.794
2026-05-23 15:27:21.758,1433581214,242758,1,0.33887,0.02759,0.74634,-7.557,104.786,-0.435
2026-05-23 15:27:21.758,1433581214,242758,2,0.68555,0.4397,0.98193,-62.053,65.718,-41.061
2026-05-23 15:27:21.958,1433581414,242958,1,-0.07715,-0.10449,0.76685,-20.107,103.26,-1.214
2026-05-23 15:27:21.958,1433581414,242958,2,0.33594,0.54248,1.19482,-10.328,58.489,-33.214
2026-05-23 15:27:21.158,1433580614,243158,1,-0.37134,-0.09766,0.85864,-10.389,35.008,-6.389
2026-05-23 15:27:21.158,1433580614,243158,2,-0.02686,0.36841,1.05444,-21.748,13.87,-7.817
2026-05-23 15:27:21.358,1433580814,243358,1,-0.19971,-0.19604,0.71094,-1.977,-26.878,-1.038
2026-05-23 15:27:21.358,1433580814,243358,2,0.20508,0.48193,1.30103,12.008,-20.71,9.458
2026-05-23 15:27:22.558,1433582014,243558,1,-0.11816,-0.09741,0.75146,2.641,-39.573,-3.107
2026-05-23 15:27:22.558,1433582014,243558,2,0.1814,0.4165,1.17578,4.008,-44.046,21.893
2026-05-23 15:27:22.758,1433582214,243758,1,0.06885,0.00098,0.75952,-15.626,-89.588,-6.214
2026-05-23 15:27:22.758,1433582214,243758,2,0.53174,0.40552,0.97583,17.901,-64.183,36.893
2026-05-23 15:27:22.958,1433582414,243958,1,0.40967,-0.01416,0.8606,13.931,-92.748,-6.962
2026-05-23 15:27:22.958,1433582414,243958,2,0.87158,0.4458,0.9209,28.397,-71.229,42.542
2026-05-23 15:27:22.158,1433581614,244158,1,1.11572,0.10864,0.90869,5.023,-42.855,-15.008
2026-05-23 15:27:22.158,1433581614,244158,2,0.88306,0.43555,0.82593,8.183,18.237,-15.519
2026-05-23 15:27:22.358,1433581814,244358,1,0.51318,0.01929,0.32617,2.687,-13.916,6.084
2026-05-23 15:27:22.358,1433581814,244358,2,0.74243,0.29492,0.70337,12.527,-1.206,13.084
2026-05-23 15:27:23.558,1433583014,244558,1,0.85278,0.01172,0.60547,1.824,1.244,-0.504
2026-05-23 15:27:23.558,1433583014,244558,2,0.64038,0.35254,0.74585,-12.595,34.084,-19.076
2026-05-23 15:27:23.758,1433583214,244758,1,0.79712,0.06323,0.62817,-0.427,-3.076,1.191
2026-05-23 15:27:23.758,1433583214,244758,2,0.95386,0.56787,0.85913,23.397,-7.588,-0.504
2026-05-23 15:27:23.958,1433583414,244958,1,0.64429,0.03906,0.51343,-3.435,9.145,-1.229
2026-05-23 15:27:23.958,1433583414,244958,2,0.67432,0.39526,0.75757,-16.26,20.221,-5.458
2026-05-23 15:27:23.158,1433582614,245158,1,0.79028,0.07373,0.64771,6.427,-0.313,3.542
2026-05-23 15:27:23.158,1433582614,245158,2,0.75439,0.4519,0.78979,-0.595,-9.359,-2.237
2026-05-23 15:27:23.358,1433582814,245358,1,0.70532,0.08936,0.55176,0.626,-1.313,0.061
2026-05-23 15:27:23.358,1433582814,245358,2,0.7981,0.47632,0.82568,-12.069,0.725,7.924
2026-05-23 15:27:24.558,1433584014,245558,1,0.70166,0.04102,0.59692,-5.969,0.634,0.893
2026-05-23 15:27:24.558,1433584014,245558,2,0.79199,0.41943,0.80713,14.863,1.786,4.55
2026-05-23 15:27:24.758,1433584214,245758,1,0.73657,0.06299,0.56323,3.13,2.008,7.198
2026-05-23 15:27:24.758,1433584214,245758,2,0.78809,0.46631,0.82715,0.84,7.74,3.809
2026-05-23 15:27:24.958,1433584414,245958,1,0.7124,0.04492,0.59253,-7.237,2.229,-2.87
2026-05-23 15:27:24.958,1433584414,245958,2,0.80493,0.37646,0.81519,-6.473,1.092,-4.847
2026-05-23 15:27:24.158,1433583614,246158,1,0.76489,0.05371,0.57837,-17.29,14.321,0.649
2026-05-23 15:27:24.158,1433583614,246158,2,0.73169,0.42871,0.85864,-13.885,10.557,-5.084
2026-05-23 15:27:24.358,1433583814,246358,1,0.68921,0.00122,0.64648,-0.191,10.58,1.779
2026-05-23 15:27:24.358,1433583814,246358,2,0.72632,0.44751,0.91895,3.794,10.702,-4.962
2026-05-23 15:27:25.558,1433585014,246558,1,0.62183,0.06055,0.66309,-5.458,5.191,-2.595
2026-05-23 15:27:25.558,1433585014,246558,2,0.73193,0.46533,0.94263,-4.069,5.115,0.145
2026-05-23 15:27:25.758,1433585214,246758,1,0.62598,0.02686,0.68066,0.916,6.053,1.481
2026-05-23 15:27:25.758,1433585214,246758,2,0.70142,0.44751,0.90649,1.832,2.267,-0.031
2026-05-23 15:27:25.958,1433585414,246958,1,0.59521,0.03491,0.67163,-1.55,-1.084,-0.58
2026-05-23 15:27:25.958,1433585414,246958,2,0.70923,0.4519,0.92676,-0.748,0.267,1.137
2026-05-23 15:27:25.158,1433584614,247158,1,0.61963,0.05396,0.67163,-1.817,0.527,-0.481
2026-05-23 15:27:25.158,1433584614,247158,2,0.71387,0.46094,0.91113,-1.374,0.504,1.679
2026-05-23 15:27:25.358,1433584814,247358,1,0.61768,0.03027,0.67041,-2.389,0.71,0.015
2026-05-23 15:27:25.358,1433584814,247358,2,0.71655,0.44922,0.9187,-2.16,0.794,0.756
2026-05-23 15:27:26.558,1433586014,247558,1,0.60693,0.03882,0.67749,-0.595,0.069,-0.092
2026-05-23 15:27:26.558,1433586014,247558,2,0.70483,0.46191,0.90894,-2.214,0.588,1.855
2026-05-23 15:27:26.758,1433586214,247758,1,0.61279,0.02783,0.68701,-1.321,-1.542,1.679
2026-05-23 15:27:26.758,1433586214,247758,2,0.71704,0.45337,0.91821,1.443,-2.618,2.71
2026-05-23 15:27:26.958,1433586414,247958,1,0.6167,0.0542,0.67822,0.122,-20.893,6.901
2026-05-23 15:27:26.958,1433586414,247958,2,0.74121,0.43823,0.87012,5.183,-11.885,6.328
2026-05-23 15:27:26.158,1433585614,248158,1,0.72803,-0.03589,0.57373,0.481,-22.977,-10.489
2026-05-23 15:27:26.158,1433585614,248158,2,0.77148,0.43335,0.81274,0.939,-10.595,-0.069
2026-05-23 15:27:26.358,1433585814,248358,1,0.75513,0.05859,0.56836,15.29,-17.626,-8.321
2026-05-23 15:27:26.358,1433585814,248358,2,0.79175,0.45972,0.84082,17.763,-5.42,3.336
2026-05-23 15:27:27.558,1433587014,248558,1,0.75928,0.21143,0.47412,27.542,-6.718,-2.198
2026-05-23 15:27:27.558,1433587014,248558,2,0.802,0.48291,0.72998,7.718,-6.183,4.847
2026-05-23 15:27:27.758,1433587214,248758,1,0.79199,0.24219,0.46558,13.504,-4.252,-5.26
2026-05-23 15:27:27.758,1433587214,248758,2,0.80542,0.46118,0.74438,1.931,-4.649,1.702
2026-05-23 15:27:27.958,1433587414,248958,1,0.80078,0.28003,0.45459,-5.321,-1.863,4.435
2026-05-23 15:27:27.958,1433587414,248958,2,0.82153,0.47949,0.71509,7.389,2.145,2.29
2026-05-23 15:27:27.158,1433586614,249158,1,0.80542,0.21655,0.46094,-28.412,-4.183,3.115
2026-05-23 15:27:27.158,1433586614,249158,2,0.81396,0.49097,0.73486,-11.939,4.527,-0.122
2026-05-23 15:27:27.358,1433586814,249358,1,0.79468,0.12183,0.50024,-15.863,-0.962,9.023
2026-05-23 15:27:27.358,1433586814,249358,2,0.81055,0.46045,0.74634,0.183,4.595,1.71
2026-05-23 15:27:28.558,1433588014,249558,1,0.80713,0.09009,0.48413,-22.87,9.046,5.672
2026-05-23 15:27:28.558,1433588014,249558,2,0.77393,0.44727,0.83301,-15.641,7.824,-0.145
2026-05-23 15:27:28.758,1433588214,249758,1,0.78369,0.01123,0.49316,-10.71,11.168,2.718
2026-05-23 15:27:28.758,1433588214,249758,2,0.72485,0.45093,0.8335,-10.992,5.275,7.618
2026-05-23 15:27:28.958,1433588414,249958,1,0.82788,0.03345,0.54004,1.26,33.0,10.237
2026-05-23 15:27:28.958,1433588414,249958,2,0.81641,0.49219,0.82251,-2.405,17.58,-2.344
2026-05-23 15:27:28.158,1433587614,250158,1,0.67334,-0.01953,0.64233,-2.794,20.504,1.206
2026-05-23 15:27:28.158,1433587614,250158,2,0.75415,0.44165,0.88501,-0.359,13.496,-5.718
2026-05-23 15:27:28.358,1433587814,250358,1,0.60449,0.01318,0.63379,-5.046,15.618,4.427
2026-05-23 15:27:28.358,1433587814,250358,2,0.7002,0.44775,0.92725,1.435,12.496,-5.733
2026-05-23 15:27:29.558,1433589014,250558,1,0.65503,-0.05078,0.83862,19.649,29.771,3.328
2026-05-23 15:27:29.558,1433589014,250558,2,0.90747,0.84204,1.32617,-31.664,16.542,-13.656
2026-05-23 15:27:29.758,1433589214,250758,1,0.50049,-0.06934,0.70703,-18.573,90.626,-0.076
2026-05-23 15:27:29.758,1433589214,250758,2,0.56348,0.47729,0.96558,-22.786,76.695,-27.466
2026-05-23 15:27:29.958,1433589414,250958,1,-0.04614,-0.11646,0.8623,-7.534,83.55,10.099
2026-05-23 15:27:29.958,1433589414,250958,2,0.26074,0.44897,1.17505,-10.893,56.053,-21.389
2026-05-23 15:27:29.158,1433588614,251158,1,-0.16162,-0.16357,0.7749,-0.053,34.137,3.45
2026-05-23 15:27:29.158,1433588614,251158,2,0.15234,0.48755,1.25757,3.763,24.023,-4.656
2026-05-23 15:27:29.358,1433588814,251358,1,-0.32373,-0.11206,0.93726,-3.534,-42.603,5.45
2026-05-23 15:27:29.358,1433588814,251358,2,0.09302,0.42114,1.13281,8.107,-45.969,34.092
2026-05-23 15:27:30.558,1433590014,251558,1,-0.00269,-0.11255,0.67651,6.786,-126.74,-4.718
2026-05-23 15:27:30.558,1433590014,251558,2,0.59839,0.35107,0.98071,30.519,-106.718,54.58
2026-05-23 15:27:30.758,1433590214,251758,1,0.49194,-0.02319,0.46777,12.237,-148.908,-18.443
2026-05-23 15:27:30.758,1433590214,251758,2,0.89063,0.40479,0.77905,3.023,-105.527,36.786
2026-05-23 15:27:30.958,1433590414,251958,1,1.07031,0.0896,0.12427,-1.794,-107.618,-18.351
2026-05-23 15:27:30.958,1433590414,251958,2,0.87598,0.36377,0.64014,23.008,-11.832,9.855
2026-05-23 15:27:30.158,1433589614,252158,1,0.92432,0.00073,0.3728,-4.053,16.87,13.038
2026-05-23 15:27:30.158,1433589614,252158,2,0.86108,0.37402,0.59668,-2.191,3.687,6.061
2026-05-23 15:27:30.358,1433589814,252358,1,0.90576,0.03125,0.20166,10.366,51.107,9.695
2026-05-23 15:27:30.358,1433589814,252358,2,0.88989,0.38623,0.66602,8.038,38.015,-14.58
2026-05-23 15:27:31.558,1433591014,252558,1,0.64063,0.08423,0.5791,8.847,101.603,6.511
2026-05-23 15:27:31.558,1433591014,252558,2,0.64526,0.5188,0.84741,-17.313,73.214,-43.702
2026-05-23 15:27:31.758,1433591214,252758,1,0.43042,0.05957,0.41333,-19.176,93.824,-1.153
2026-05-23 15:27:31.758,1433591214,252758,2,0.64868,0.57056,1.01538,-29.191,46.947,-16.611
2026-05-23 15:27:31.958,1433591414,252958,1,0.01416,-0.17603,0.95532,-26.336,54.924,-13.489
2026-05-23 15:27:31.958,1433591414,252958,2,0.34741,0.39941,1.01807,-13.008,21.382,-17.74
2026-05-23 15:27:31.158,1433590614,253158,1,0.05566,-0.04297,0.94189,-6.427,-0.382,0.496
2026-05-23 15:27:31.158,1433590614,253158,2,0.44434,0.45825,1.25122,1.275,-17.954,10.733
2026-05-23 15:27:31.358,1433590814,253358,1,0.20337,0.02197,0.83716,18.282,-37.145,9.878
2026-05-23 15:27:31.358,1433590814,253358,2,0.49438,0.51514,1.07153,6.832,-22.74,16.26
2026-05-23 15:27:32.558,1433592014,253558,1,0.375,0.05713,0.7915,-8.817,-50.29,1.153
2026-05-23 15:27:32.558,1433592014,253558,2,0.57617,0.39478,0.89941,5.305,-31.008,21.046
2026-05-23 15:27:32.758,1433592214,253758,1,0.6709,0.05713,1.15039,-16.0,-52.763,1.084
2026-05-23 15:27:32.758,1433592214,253758,2,1.38501,0.802,1.58252,2.588,-25.74,14.29
2026-05-23 15:27:32.958,1433592414,253958,1,0.3457,0.06445,0.4624,-5.534,-1.916,2.16
2026-05-23 15:27:32.958,1433592414,253958,2,0.448,0.23633,0.69141,-1.847,0.962,16.954
2026-05-23 15:27:32.158,1433591614,254158,1,0.85205,0.1272,0.93604,7.595,-6.443,0.771
2026-05-23 15:27:32.158,1433591614,254158,2,0.98901,0.78296,0.97681,-27.786,26.275,-25.229
2026-05-23 15:27:32.358,1433591814,254358,1,0.50122,0.07666,0.59326,1.359,-11.298,-0.107
2026-05-23 15:27:32.358,1433591814,254358,2,0.77197,0.45117,0.98584,-5.473,-8.176,9.771
2026-05-23 15:27:33.558,1433593014,254558,1,0.56909,0.0896,0.6543,-2.534,6.412,-1.611
2026-05-23 15:27:33.558,1433593014,254558,2,0.63232,0.3689,0.84961,-12.695,11.931,-9.374
2026-05-23 15:27:33.758,1433593214,254758,1,0.64136,0.06226,0.73706,3.328,-1.618,0.809
2026-05-23 15:27:33.758,1433593214,254758,2,0.79858,0.4436,0.99292,12.603,-2.939,5.053
2026-05-23 15:27:33.958,1433593414,254958,1,0.55957,0.06079,0.65381,-5.069,-2.656,4.527
2026-05-23 15:27:33.958,1433593414,254958,2,0.76147,0.40503,0.90552,-1.069,-0.015,1.916
2026-05-23 15:27:33.158,1433592614,255158,1,0.59302,0.06787,0.70557,-4.0,-19.542,2.573
2026-05-23 15:27:33.158,1433592614,255158,2,0.74658,0.44434,0.86914,10.443,2.176,-1.351
2026-05-23 15:27:33.358,1433592814,255358,1,0.75757,0.10522,0.61279,5.145,-11.74,-1.885
2026-05-23 15:27:33.358,1433592814,255358,2,0.63477,0.46826,0.89087,-5.176,7.458,-12.626
2026-05-23 15:27:34.558,1433594014,255558,1,0.63232,0.02271,0.5918,-0.977,-7.542,-1.443
2026-05-23 15:27:34.558,1433594014,255558,2,0.80127,0.49316,0.91455,-6.916,-10.656,12.267
2026-05-23 15:27:34.758,1433594214,255758,1,0.74243,0.05957,0.5647,0.298,-7.305,-1.725
2026-05-23 15:27:34.758,1433594214,255758,2,0.6875,0.42529,0.81665,6.466,3.122,2.985
2026-05-23 15:27:34.958,1433594414,255958,1,0.7959,0.09961,0.61084,0.359,-1.687,1.015
2026-05-23 15:27:34.958,1433594414,255958,2,0.79883,0.49805,0.84644,1.0,2.45,0.504
2026-05-23 15:27:34.158,1433593614,256158,1,0.72852,0.0918,0.55688,-2.099,-1.206,1.504
2026-05-23 15:27:34.158,1433593614,256158,2,0.802,0.46777,0.84424,-0.809,1.229,2.977
2026-05-23 15:27:34.358,1433593814,256358,1,0.73413,0.09644,0.57666,-3.641,0.458,0.053
2026-05-23 15:27:34.358,1433593814,256358,2,0.7688,0.44165,0.80371,0.954,-0.489,2.344
2026-05-23 15:27:35.558,1433595014,256558,1,0.75073,0.08105,0.57178,-3.687,1.191,0.725
2026-05-23 15:27:35.558,1433595014,256558,2,0.76099,0.46436,0.80225,-1.519,3.794,0.908
2026-05-23 15:27:35.758,1433595214,256758,1,0.74463,0.0957,0.5708,-2.489,0.916,-0.855
2026-05-23 15:27:35.758,1433595214,256758,2,0.77515,0.45605,0.82129,-0.023,1.565,1.229
2026-05-23 15:27:35.958,1433595414,256958,1,0.74146,0.06519,0.57129,-1.542,0.84,0.237
2026-05-23 15:27:35.958,1433595414,256958,2,0.77148,0.46875,0.82788,-1.412,0.847,2.176
2026-05-23 15:27:35.158,1433594614,257158,1,0.74365,0.08472,0.57568,-3.649,-1.275,-0.824
2026-05-23 15:27:35.158,1433594614,257158,2,0.78418,0.46387,0.82568,-4.313,0.069,2.565
2026-05-23 15:27:35.358,1433594814,257358,1,0.7478,0.06714,0.57422,-0.267,0.26,-0.611
2026-05-23 15:27:35.358,1433594814,257358,2,0.76831,0.45166,0.81812,-3.351,-0.145,2.107
2026-05-23 15:27:36.558,1433596014,257558,1,0.75488,0.07886,0.56226,-1.725,-0.412,-1.557
2026-05-23 15:27:36.558,1433596014,257558,2,0.77686,0.43359,0.83423,-4.702,-0.611,1.718
2026-05-23 15:27:36.758,1433596214,257758,1,0.7395,0.07666,0.57568,-2.618,-0.443,0.046
2026-05-23 15:27:36.758,1433596214,257758,2,0.78516,0.448,0.82544,2.702,1.847,-0.13
2026-05-23 15:27:36.958,1433596414,257958,1,0.73022,0.0835,0.56396,-9.0,-2.954,1.084
2026-05-23 15:27:36.958,1433596414,257958,2,0.78271,0.45264,0.81152,-0.992,1.069,0.031
2026-05-23 15:27:36.158,1433595614,258158,1,0.77173,0.03516,0.57031,-7.382,-2.519,1.618
2026-05-23 15:27:36.158,1433595614,258158,2,0.77612,0.43604,0.79907,-0.756,1.885,1.0
2026-05-23 15:27:36.358,1433595814,258358,1,0.75244,0.04492,0.56323,-0.16,0.534,1.137
2026-05-23 15:27:36.358,1433595814,258358,2,0.79395,0.45605,0.82422,-0.756,1.924,0.427
2026-05-23 15:27:37.558,1433597014,258558,1,0.77783,0.07861,0.58105,-7.969,-0.473,2.954
2026-05-23 15:27:37.558,1433597014,258558,2,0.79517,0.43701,0.84424,-10.061,8.527,-2.397
2026-05-23 15:27:37.758,1433597214,258758,1,0.71558,0.03345,0.58325,-3.107,0.397,1.809
2026-05-23 15:27:37.758,1433597214,258758,2,0.76318,0.48364,0.80811,1.55,6.275,3.504
2026-05-23 15:27:37.958,1433597414,258958,1,0.74243,0.04517,0.573,0.099,2.832,-3.122
2026-05-23 15:27:37.958,1433597414,258958,2,0.75171,0.44434,0.84644,-4.389,-1.153,0.931
2026-05-23 15:27:37.158,1433596614,259158,1,0.77539,0.05103,0.63257,3.679,6.481,7.115
2026-05-23 15:27:37.158,1433596614,259158,2,0.77783,0.42798,0.86108,-14.832,8.824,1.176
2026-05-23 15:27:37.358,1433596814,259358,1,0.67578,0.12305,0.60132,-11.427,1.573,3.939
2026-05-23 15:27:37.358,1433596814,259358,2,0.80078,0.46655,0.89307,-19.885,0.206,0.977
2026-05-23 15:27:38.558,1433598014,259558,1,1.02783,-0.07617,1.15991,-39.947,43.87,-13.718
2026-05-23 15:27:38.558,1433598014,259558,2,0.99438,0.56836,1.16919,-11.893,43.595,-32.847
2026-05-23 15:27:38.758,1433598214,259758,1,0.61523,-0.02783,0.6167,-14.359,-24.58,-8.427
2026-05-23 15:27:38.758,1433598214,259758,2,0.67236,0.36914,0.95752,-10.931,-15.053,14.939
2026-05-23 15:27:38.958,1433598414,259958,1,0.69629,-0.03687,0.72998,9.924,-59.878,10.237
2026-05-23 15:27:38.958,1433598414,259958,2,0.80518,0.35791,0.84717,8.954,-21.55,34.168
2026-05-23 15:27:38.158,1433597614,260158,1,0.80078,-0.08081,0.26587,10.771,-40.992,0.481
2026-05-23 15:27:38.158,1433597614,260158,2,0.65601,0.26367,0.63721,35.206,-32.145,17.275
2026-05-23 15:27:38.358,1433597814,260358,1,0.521,0.0293,0.10327,9.718,-38.092,-10.519
2026-05-23 15:27:38.358,1433597814,260358,2,0.5791,0.26001,0.52271,18.557,-45.183,11.153
2026-05-23 15:27:39.558,1433599014,260558,1,0.90234,0.09058,0.36377,3.702,37.145,-7.321
2026-05-23 15:27:39.558,1433599014,260558,2,0.72363,0.39917,0.53125,1.252,16.351,-21.931
2026-05-23 15:27:39.758,1433599214,260758,1,0.97266,-0.03979,0.2439,-5.183,63.107,4.748
2026-05-23 15:27:39.758,1433599214,260758,2,0.85767,0.35669,0.70068,9.695,48.595,-28.802
2026-05-23 15:27:39.958,1433599414,260958,1,0.63306,0.06665,0.42627,-27.031,55.87,-6.435
2026-05-23 15:27:39.958,1433599414,260958,2,0.62573,0.14624,0.70386,-28.847,35.977,-20.122
2026-05-23 15:27:39.158,1433598614,261158,1,0.73926,-0.04517,0.79883,-13.023,65.962,3.053
2026-05-23 15:27:39.158,1433598614,261158,2,0.85303,0.45386,0.9812,-4.221,53.832,-31.924
2026-05-23 15:27:39.358,1433598814,261358,1,0.20923,-0.09277,0.57617,-1.588,47.733,2.84
2026-05-23 15:27:39.358,1433598814,261358,2,0.43042,0.40991,0.89966,-14.481,40.595,-13.435
2026-05-23 15:27:40.558,1433600014,261558,1,0.10986,-0.02051,0.67603,-1.977,36.771,-5.344
2026-05-23 15:27:40.558,1433600014,261558,2,0.48682,0.45874,1.15967,4.802,-3.756,-6.145
2026-05-23 15:27:40.758,1433600214,261758,1,0.15698,0.09595,0.79419,-13.321,-19.321,-8.679
2026-05-23 15:27:40.758,1433600214,261758,2,0.44629,0.42139,1.06323,-15.328,-24.87,9.389
2026-05-23 15:27:40.958,1433600414,261958,1,0.19092,-0.07153,0.85474,20.069,-47.58,-2.221
2026-05-23 15:27:40.958,1433600414,261958,2,0.61938,0.4812,1.01196,29.237,-42.206,36.74
2026-05-23 15:27:40.158,1433599614,262158,1,0.70483,-0.06934,0.75098,-12.336,-78.176,-5.053
2026-05-23 15:27:40.158,1433599614,262158,2,1.33276,0.63867,1.28735,-13.489,-54.435,34.397
2026-05-23 15:27:40.358,1433599814,262358,1,0.69751,0.00317,0.5293,7.137,10.13,4.237
2026-05-23 15:27:40.358,1433599814,262358,2,0.52637,0.1748,0.60767,-5.542,31.313,-7.13
2026-05-23 15:27:41.558,1433601014,262558,1,0.5813,-0.03467,0.71606,3.359,0.092,-1.672
2026-05-23 15:27:41.558,1433601014,262558,2,0.90186,0.52124,1.18994,17.672,-14.145,-2.321
2026-05-23 15:27:41.758,1433601214,262758,1,0.47021,0.00806,0.66309,-0.42,-2.42,-4.878
2026-05-23 15:27:41.758,1433601214,262758,2,0.52075,0.26221,0.78101,-20.282,23.908,-5.924
2026-05-23 15:27:41.958,1433601414,262958,1,0.70898,0.02344,0.78296,1.557,-9.664,-1.0
2026-05-23 15:27:41.958,1433601414,262958,2,0.802,0.44971,0.93555,13.473,-15.527,6.389
2026-05-23 15:27:41.158,1433600614,263158,1,0.64966,0.00317,0.57202,1.489,-8.145,4.344
2026-05-23 15:27:41.158,1433600614,263158,2,0.79297,0.4563,0.88159,11.458,-2.473,6.336
2026-05-23 15:27:41.358,1433600814,263358,1,0.6665,0.01611,0.65747,-3.718,-7.901,2.847
2026-05-23 15:27:41.358,1433600814,263358,2,0.75049,0.41943,0.84277,2.855,-0.282,4.359
2026-05-23 15:27:42.558,1433602014,263558,1,0.69995,-0.00854,0.64087,-3.939,-2.71,-0.817
2026-05-23 15:27:42.558,1433602014,263558,2,0.79517,0.41577,0.87402,-1.168,0.153,1.458
2026-05-23 15:27:42.758,1433602214,263758,1,0.70947,0.01953,0.604,3.359,-0.695,-1.771
2026-05-23 15:27:42.758,1433602214,263758,2,0.78979,0.3894,0.84839,-1.221,-2.076,2.992
2026-05-23 15:27:42.958,1433602414,263958,1,0.70093,0.01318,0.59473,4.809,-0.45,-0.504
2026-05-23 15:27:42.958,1433602414,263958,2,0.77954,0.40674,0.83716,-1.267,-0.573,2.84
2026-05-23 15:27:42.158,1433601614,264158,1,0.74072,0.03198,0.57056,-0.939,-1.328,1.191
2026-05-23 15:27:42.158,1433601614,264158,2,0.79639,0.34839,0.86133,-0.305,-0.115,-1.55
2026-05-23 15:27:42.358,1433601814,264358,1,0.73657,0.03223,0.60669,13.885,-11.641,5.656
2026-05-23 15:27:42.358,1433601814,264358,2,0.80054,0.44946,0.81934,13.229,4.344,2.786
2026-05-23 15:27:43.558,1433603014,264558,1,0.71777,0.07886,0.54175,-19.855,-12.214,-12.0
2026-05-23 15:27:43.558,1433603014,264558,2,0.76318,0.37695,0.80127,-3.672,0.435,3.069
2026-05-23 15:27:43.758,1433603214,264758,1,0.8064,0.03198,0.60107,-10.863,-0.305,1.763
2026-05-23 15:27:43.758,1433603214,264758,2,0.82251,0.37891,0.87183,-8.824,5.954,2.366
2026-05-23 15:27:43.958,1433603414,264958,1,0.76709,-0.00439,0.54639,2.015,1.061,4.565
2026-05-23 15:27:43.958,1433603414,264958,2,0.79688,0.42798,0.84204,10.313,3.573,4.099
2026-05-23 15:27:43.158,1433602614,265158,1,0.78418,-0.01294,0.53687,-1.344,4.473,-6.313
2026-05-23 15:27:43.158,1433602614,265158,2,0.79517,0.40601,0.87085,-7.573,-1.718,-2.588
2026-05-23 15:27:43.358,1433602814,265358,1,0.76538,0.06372,0.51929,-4.802,6.771,3.885
2026-05-23 15:27:43.358,1433602814,265358,2,0.74536,0.40015,0.86792,6.527,2.504,1.687
2026-05-23 15:27:44.558,1433604014,265558,1,1.25854,-0.12891,0.82202,-5.298,39.443,2.916
2026-05-23 15:27:44.558,1433604014,265558,2,1.22461,0.74097,1.14038,-5.374,43.519,-44.275
2026-05-23 15:27:44.758,1433604214,265758,1,0.49487,0.03247,0.71704,-4.405,42.427,-6.58
2026-05-23 15:27:44.758,1433604214,265758,2,0.59961,0.4624,0.95093,-23.031,27.672,-9.168
2026-05-23 15:27:44.958,1433604414,265958,1,0.40918,0.00806,0.7207,-20.191,34.481,-2.58
2026-05-23 15:27:44.958,1433604414,265958,2,0.58521,0.47388,1.07764,-16.687,37.107,-5.565
2026-05-23 15:27:44.158,1433603614,266158,1,0.13281,-0.12524,0.85669,30.481,34.389,26.13
2026-05-23 15:27:44.158,1433603614,266158,2,0.4021,0.51147,1.06787,16.176,23.664,-2.046
2026-05-23 15:27:44.358,1433603814,266358,1,0.20801,-0.08008,0.84497,-9.672,-39.504,0.901
2026-05-23 15:27:44.358,1433603814,266358,2,0.45435,0.33813,1.09839,-1.969,-45.458,15.55
2026-05-23 15:27:45.558,1433605014,266558,1,0.32251,-0.03345,0.73804,18.771,-82.878,-4.58
2026-05-23 15:27:45.558,1433605014,266558,2,0.5813,0.29956,0.87939,18.954,-63.092,39.611
2026-05-23 15:27:45.758,1433605214,266758,1,0.6377,0.04858,0.55933,23.916,-98.656,-1.954
2026-05-23 15:27:45.758,1433605214,266758,2,0.72876,0.38647,0.7019,2.374,-63.244,33.427
2026-05-23 15:27:45.958,1433605414,266958,1,0.91406,0.01953,0.23999,-12.0,-58.649,-24.992
2026-05-23 15:27:45.958,1433605414,266958,2,0.78564,0.27515,0.69312,-0.313,-11.565,8.458
2026-05-23 15:27:45.158,1433604614,267158,1,1.00977,0.09009,0.27002,-0.092,8.305,-1.481
2026-05-23 15:27:45.158,1433604614,267158,2,0.98071,0.33813,0.63354,6.137,13.511,-6.534
2026-05-23 15:27:45.358,1433604814,267358,1,0.86279,0.08594,0.33691,-3.977,54.916,-2.336
2026-05-23 15:27:45.358,1433604814,267358,2,0.77539,0.43188,0.64331,-23.817,40.069,-25.282
2026-05-23 15:27:46.558,1433606014,267558,1,-0.51001,0.22119,0.17969,55.656,80.405,-10.122
2026-05-23 15:27:46.558,1433606014,267558,2,1.18213,0.31055,0.68237,-56.977,81.916,1.824
2026-05-23 15:27:46.758,1433606214,267758,1,0.49414,-0.04565,0.66919,-13.092,80.542,-23.718
2026-05-23 15:27:46.758,1433606214,267758,2,0.66992,0.43677,0.9436,-0.595,63.031,-38.298
2026-05-23 15:27:46.958,1433606414,267958,1,0.13184,0.03638,0.58008,-11.824,93.863,-3.244
2026-05-23 15:27:46.958,1433606414,267958,2,0.42285,0.50635,1.19824,-17.458,53.481,-40.832
2026-05-23 15:27:46.158,1433605614,268158,1,-0.10107,-0.18018,0.95386,-8.237,56.374,-13.916
2026-05-23 15:27:46.158,1433605614,268158,2,0.24658,0.51099,1.19775,-10.87,38.908,-36.275
2026-05-23 15:27:46.358,1433605814,268358,1,-0.36768,-0.06445,0.86304,-4.779,41.443,-10.557
2026-05-23 15:27:46.358,1433605814,268358,2,0.04272,0.47363,1.271,-3.992,11.198,-18.389
2026-05-23 15:27:47.558,1433607014,268558,1,-0.34302,-0.07666,0.74341,-7.924,24.557,-6.817
2026-05-23 15:27:47.558,1433607014,268558,2,0.04736,0.52148,1.27197,-5.573,14.885,-18.885
2026-05-23 15:27:47.758,1433607214,268758,1,-0.38013,-0.06641,0.73242,1.26,24.115,-7.58
2026-05-23 15:27:47.758,1433607214,268758,2,-0.06592,0.51367,1.28149,-8.168,14.985,-14.328
2026-05-23 15:27:47.958,1433607414,268958,1,-0.48975,-0.06323,0.74121,7.649,5.656,-0.954
2026-05-23 15:27:47.958,1433607414,268958,2,-0.15552,0.49487,1.32422,-1.298,-5.74,0.725
2026-05-23 15:27:47.158,1433606614,269158,1,-0.46411,-0.05005,0.73462,15.893,-16.206,-15.023
2026-05-23 15:27:47.158,1433606614,269158,2,-0.05933,0.52002,1.30664,7.771,-18.916,8.176
2026-05-23 15:27:47.358,1433606814,269358,1,-0.42773,-0.02954,0.84692,35.725,-40.198,-13.221
2026-05-23 15:27:47.358,1433606814,269358,2,0.05347,0.5708,1.27393,20.573,-50.206,17.718
2026-05-23 15:27:48.558,1433608014,269558,1,-0.23291,0.03052,0.82471,40.275,-79.053,-25.252
2026-05-23 15:27:48.558,1433608014,269558,2,0.37598,0.56641,1.13159,20.076,-85.802,33.489
2026-05-23 15:27:48.758,1433608214,269758,1,0.09668,0.32715,0.72461,51.42,-92.344,-13.977
2026-05-23 15:27:48.758,1433608214,269758,2,0.59399,0.50537,0.93506,8.344,-85.733,40.183
2026-05-23 15:27:48.958,1433608414,269958,1,0.42432,0.3147,0.57764,23.695,-114.489,32.153
2026-05-23 15:27:48.958,1433608414,269958,2,0.82642,0.31323,0.6709,33.336,-81.718,62.336
2026-05-23 15:27:48.158,1433607614,270158,1,0.81787,0.28467,0.23022,24.885,-111.603,58.656
2026-05-23 15:27:48.158,1433607614,270158,2,1.01465,0.26099,0.4917,26.053,-46.519,55.542
2026-05-23 15:27:48.358,1433607814,270358,1,1.02759,0.19653,0.05029,-6.649,-58.015,29.58
2026-05-23 15:27:48.358,1433607814,270358,2,0.98389,0.26416,0.28516,-16.649,-17.153,22.45
2026-05-23 15:27:49.558,1433609014,270558,1,1.07739,0.1731,0.00537,-4.351,-11.443,1.504
2026-05-23 15:27:49.558,1433609014,270558,2,1.01221,0.09448,0.29248,-26.832,-17.313,20.992
2026-05-23 15:27:49.758,1433609214,270758,1,1.03955,0.12769,-0.01343,12.031,-11.275,5.198
2026-05-23 15:27:49.758,1433609214,270758,2,0.92261,0.06909,0.19873,-0.687,-19.015,-0.252
2026-05-23 15:27:49.958,1433609414,270958,1,1.04272,0.20581,-0.09106,33.427,-10.282,18.565
2026-05-23 15:27:49.958,1433609414,270958,2,1.01318,0.04761,0.04321,45.519,18.481,-10.038
2026-05-23 15:27:49.158,1433608614,271158,1,1.07666,0.12842,-0.10425,11.412,-1.618,11.031
2026-05-23 15:27:49.158,1433608614,271158,2,0.94019,0.11865,0.15991,6.076,-4.588,3.977
2026-05-23 15:27:49.358,1433608814,271358,1,1.05664,0.15112,-0.08789,-52.183,0.038,-19.939
2026-05-23 15:27:49.358,1433608814,271358,2,1.00513,0.04004,0.17896,-46.718,-8.916,0.908
2026-05-23 15:27:50.558,1433610014,271558,1,1.11279,0.1416,-0.14771,-48.672,0.015,-10.321
2026-05-23 15:27:50.558,1433610014,271558,2,0.93994,0.0979,0.28564,-13.969,49.168,7.382
2026-05-23 15:27:50.758,1433610214,271758,1,1.08789,0.1731,0.05127,-21.198,57.802,-24.924
2026-05-23 15:27:50.758,1433610214,271758,2,0.92163,0.0874,0.29248,33.733,104.695,-42.397
2026-05-23 15:27:50.958,1433610414,271958,1,0.80371,0.1062,0.45044,-65.679,1.122,-9.328
2026-05-23 15:27:50.958,1433610414,271958,2,0.85254,0.19336,0.50464,-35.458,-18.695,-14.275
2026-05-23 15:27:50.158,1433609614,272158,1,1.42334,-0.48535,0.85889,-81.267,250.13,91.71
2026-05-23 15:27:50.158,1433609614,272158,2,1.00269,0.3313,0.51538,-32.038,17.351,21.527
2026-05-23 15:27:50.358,1433609814,272358,1,0.85303,-0.02173,0.42114,-7.695,10.519,38.198
2026-05-23 15:27:50.358,1433609814,272358,2,0.84326,0.45313,0.57666,1.824,33.542,-6.641
2026-05-23 15:27:51.558,1433611014,272558,1,0.90552,-0.02979,0.3728,3.664,-3.321,5.794
2026-05-23 15:27:51.558,1433611014,272558,2,0.87988,0.26123,0.57544,-52.29,-47.511,-12.176
2026-05-23 15:27:51.758,1433611214,272758,1,1.00073,-0.02124,0.22852,-40.916,-42.107,-21.519
2026-05-23 15:27:51.758,1433611214,272758,2,0.98169,0.21899,0.57104,0.214,-20.168,13.718
2026-05-23 15:27:51.958,1433611414,272958,1,1.03003,-0.04858,0.12402,-5.588,-30.977,-16.267
2026-05-23 15:27:51.958,1433611414,272958,2,1.01465,0.11768,0.48682,24.618,-23.191,-4.275
2026-05-23 15:27:51.158,1433610614,273158,1,0.81909,0.23169,0.17041,-46.74,-21.649,-29.359
2026-05-23 15:27:51.158,1433610614,273158,2,0.93311,0.15771,0.27686,-99.985,-7.565,38.137
2026-05-23 15:27:51.358,1433610814,273358,1,0.81934,0.07959,0.02417,-95.969,-25.466,-36.863
2026-05-23 15:27:51.358,1433610814,273358,2,1.04004,0.32788,0.34399,-90.939,-78.153,30.74
2026-05-23 15:27:52.558,1433612014,273558,1,1.1355,-0.03491,-0.04492,-3.962,-6.679,-10.679
2026-05-23 15:27:52.558,1433612014,273558,2,0.94873,0.06494,0.27002,27.145,-1.618,-20.015
2026-05-23 15:27:52.758,1433612214,273758,1,1.04663,0.20508,-0.03467,62.718,7.397,3.405
2026-05-23 15:27:52.758,1433612214,273758,2,0.92114,0.20654,0.24219,44.924,8.71,-17.809
2026-05-23 15:27:52.958,1433612414,273958,1,1.05664,0.26001,,41.985,-7.405,0.588
2026-05-23 15:27:52.958,1433612414,273958,2,0.95239,0.30371,0.13989,18.466,-0.618,-11.153
2026-05-23 15:27:52.158,1433611614,274158,1,1.07471,0.20459,-0.10791,-20.076,54.504,7.634
2026-05-23 15:27:52.158,1433611614,274158,2,1.28687,0.02954,0.20703,55.954,5.092,48.634
2026-05-23 15:27:52.358,1433611814,274358,1,1.021,0.16455,0.04517,-8.481,103.611,24.664
2026-05-23 15:27:52.358,1433611814,274358,2,0.94116,0.3855,0.50537,-5.481,103.015,-31.038
2026-05-23 15:27:53.558,1433613014,274558,1,0.64136,-0.01074,0.50928,21.855,101.008,20.221
2026-05-23 15:27:53.558,1433613014,274558,2,0.76636,0.45703,0.82764,-38.397,107.076,-47.092
2026-05-23 15:27:53.758,1433613214,274758,1,0.42944,-0.00513,0.95435,-20.153,34.878,5.336
2026-05-23 15:27:53.758,1433613214,274758,2,0.68506,0.42847,0.9314,-1.679,23.298,-0.374
2026-05-23 15:27:53.958,1433613414,274958,1,0.51636,-0.03418,0.77563,-0.412,11.992,7.214
2026-05-23 15:27:53.958,1433613414,274958,2,0.65967,0.42163,0.97021,1.87,15.534,1.145
2026-05-23 15:27:53.158,1433612614,275158,1,0.47241,-0.01563,0.87036,26.351,-56.992,0.664
2026-05-23 15:27:53.158,1433612614,275158,2,0.71094,0.45557,0.8938,20.962,-41.611,20.183
2026-05-23 15:27:53.358,1433612814,275358,1,0.74121,0.0957,0.47632,42.107,-93.756,9.527
2026-05-23 15:27:53.358,1433612814,275358,2,0.78003,0.47046,0.72803,22.679,-62.382,6.16
2026-05-23 15:27:54.558,1433614014,275558,1,0.82739,0.11401,0.19019,5.756,-97.168,-1.626
2026-05-23 15:27:54.558,1433614014,275558,2,0.71948,0.25317,0.66528,12.031,-12.916,1.099
2026-05-23 15:27:54.758,1433614214,275758,1,1.07495,0.24097,0.01172,1.947,-31.038,3.595
2026-05-23 15:27:54.758,1433614214,275758,2,1.02856,0.55347,0.35083,-53.046,-16.557,4.649
2026-05-23 15:32:36.305,1433895761,7305,1,0.88281,0.07251,0.39917,-10.481,-2.718,6.542
2026-05-23 15:32:36.305,1433895761,7305,2,0.96167,0.15015,0.52661,-9.71,-2.542,-0.756
2026-05-23 15:32:36.505,1433895961,7505,1,0.90308,0.02295,0.37402,1.885,-4.229,2.275
2026-05-23 15:32:36.505,1433895961,7505,2,0.95679,0.1687,0.54688,-6.511,4.977,0.939
2026-05-23 15:32:37.705,1433897161,7705,1,0.92798,-0.02344,0.38477,-0.252,-5.374,-2.534
2026-05-23 15:32:37.705,1433897161,7705,2,0.95361,0.17773,0.50488,7.542,-4.618,0.748
2026-05-23 15:32:37.905,1433897361,7905,1,0.97852,0.08936,0.31079,0.191,-7.221,2.275
2026-05-23 15:32:37.905,1433897361,7905,2,0.96875,0.19214,0.47046,-3.496,1.718,8.267
2026-05-23 15:32:37.105,1433896561,8105,1,0.94556,0.01318,0.31885,-5.26,-3.71,1.557
2026-05-23 15:32:37.105,1433896561,8105,2,0.95142,0.1272,0.47339,1.855,2.901,6.321
2026-05-23 15:32:37.305,1433896761,8305,1,0.96558,-0.02515,0.3064,9.405,2.893,11.527
2026-05-23 15:32:37.305,1433896761,8305,2,0.94165,0.15845,0.47363,30.252,21.405,4.115
2026-05-23 15:32:37.505,1433896961,8505,1,0.93774,0.02759,0.32104,23.672,8.672,-0.878
2026-05-23 15:32:37.505,1433896961,8505,2,0.96655,0.2085,0.5061,19.725,17.802,2.489
2026-05-23 15:32:38.705,1433898161,8705,1,0.93213,0.08179,0.3606,6.771,2.817,-2.679
2026-05-23 15:32:38.705,1433898161,8705,2,0.94849,0.17163,0.48779,8.389,7.847,4.985
2026-05-23 15:32:38.905,1433898361,8905,1,0.93848,0.03271,0.30518,-11.794,-2.061,1.649
2026-05-23 15:32:38.905,1433898361,8905,2,0.96021,0.14844,0.49292,-8.702,11.71,2.275
2026-05-23 15:32:38.105,1433897561,9105,1,0.94214,0.04883,0.3479,-11.511,-0.412,-2.107
2026-05-23 15:32:38.105,1433897561,9105,2,0.9541,0.1355,0.49487,-15.328,-3.282,-3.359
2026-05-23 15:32:38.305,1433897761,9305,1,0.92163,0.06226,0.35425,-3.176,0.435,-0.191
2026-05-23 15:32:38.305,1433897761,9305,2,0.96021,0.15869,0.49243,-2.855,0.008,0.74
2026-05-23 15:32:38.505,1433897961,9505,1,0.91357,0.07104,0.36206,-4.443,1.824,-1.176
2026-05-23 15:32:38.505,1433897961,9505,2,0.95801,0.17432,0.51147,-4.504,-4.687,1.947
2026-05-23 15:32:39.705,1433899161,9705,1,0.92114,0.04907,0.36304,-2.725,-1.969,0.901
2026-05-23 15:32:39.705,1433899161,9705,2,0.95752,0.1499,0.50732,2.809,-2.779,1.679
2026-05-23 15:32:39.905,1433899361,9905,1,0.9248,0.04199,0.35327,-7.29,-2.351,1.023
2026-05-23 15:32:39.905,1433899361,9905,2,0.95435,0.16113,0.49805,-8.977,-5.16,2.366
2026-05-23 15:32:39.105,1433898561,10105,1,0.94458,0.02515,0.33081,5.0,-2.069,3.244
2026-05-23 15:32:39.105,1433898561,10105,2,0.96362,0.16846,0.48462,8.931,5.305,2.412
2026-05-23 15:32:39.305,1433898761,10305,1,0.95068,0.03149,0.33521,-1.855,0.748,-0.183
2026-05-23 15:32:39.305,1433898761,10305,2,0.96631,0.14941,0.48657,-5.198,0.954,1.748
2026-05-23 15:32:39.505,1433898961,10505,1,0.95264,0.0437,0.32983,1.42,-1.87,2.153
2026-05-23 15:32:39.505,1433898961,10505,2,0.95557,0.20068,0.49707,14.053,9.435,5.412
2026-05-23 15:32:40.705,1433900161,10705,1,0.93042,0.02515,0.36694,-11.015,2.389,-4.718
2026-05-23 15:32:40.705,1433900161,10705,2,0.94507,0.12769,0.49829,7.496,-1.687,6.122
2026-05-23 15:32:40.905,1433900361,10905,1,0.95166,-0.00513,0.29541,-21.015,9.466,-7.939
2026-05-23 15:32:40.905,1433900361,10905,2,0.97314,0.1687,0.4519,-28.534,4.305,7.611
2026-05-23 15:32:40.105,1433899561,11105,1,1.0957,-0.17725,0.21533,-20.42,-0.45,-5.954
2026-05-23 15:32:40.105,1433899561,11105,2,0.91089,0.15796,0.49707,28.908,7.634,7.038
2026-05-23 15:32:40.305,1433899761,11305,1,0.9729,-0.07056,0.28345,11.557,-2.725,7.26
2026-05-23 15:32:40.305,1433899761,11305,2,0.94727,0.19849,0.50513,36.168,9.908,11.252
2026-05-23 15:32:40.505,1433899961,11505,1,0.87866,0.03882,0.36816,-3.015,4.817,2.794
2026-05-23 15:32:40.505,1433899961,11505,2,0.948,0.1897,0.48486,23.809,5.389,9.595
2026-05-23 15:32:41.705,1433901161,11705,1,0.84033,0.07764,0.41357,3.412,-2.046,-3.634
2026-05-23 15:32:41.705,1433901161,11705,2,0.96484,0.1106,0.48413,8.45,-7.931,3.802
2026-05-23 15:32:41.905,1433901361,11905,1,0.87402,0.05957,0.38257,14.275,6.595,-2.313
2026-05-23 15:32:41.905,1433901361,11905,2,0.96729,0.1394,0.49316,12.282,-3.832,2.817
2026-05-23 15:32:41.105,1433900561,12105,1,0.96021,0.01099,0.28882,10.183,-0.076,1.344
2026-05-23 15:32:41.105,1433900561,12105,2,0.97656,0.13257,0.45483,24.802,6.527,0.153
2026-05-23 15:32:41.305,1433900761,12305,1,0.95923,0.00806,0.31787,7.298,2.305,1.466
2026-05-23 15:32:41.305,1433900761,12305,2,0.95728,0.14429,0.46875,18.443,10.733,-0.824
2026-05-23 15:32:41.505,1433900961,12505,1,0.94336,0.06421,0.32617,9.977,7.931,-2.282
2026-05-23 15:32:41.505,1433900961,12505,2,0.9646,0.15039,0.48242,0.153,12.0,-7.282
2026-05-23 15:32:42.705,1433902161,12705,1,0.91187,0.09106,0.36353,3.092,2.695,-2.527
2026-05-23 15:32:42.705,1433902161,12705,2,0.94385,0.1897,0.53223,-1.733,3.115,-2.16
2026-05-23 15:32:42.905,1433902361,12905,1,0.92041,0.09424,0.375,-0.351,2.893,0.618
2026-05-23 15:32:42.905,1433902361,12905,2,0.95654,0.18896,0.51636,0.229,1.87,0.542
2026-05-23 15:32:42.105,1433901561,13105,1,0.9292,0.07837,0.34497,-0.473,-0.229,0.786
2026-05-23 15:32:42.105,1433901561,13105,2,0.95581,0.19189,0.53174,2.092,5.191,2.687
2026-05-23 15:32:42.305,1433901761,13305,1,0.91064,0.08325,0.36377,-9.031,-8.718,7.137
2026-05-23 15:32:42.305,1433901761,13305,2,0.94531,0.18311,0.51978,6.771,1.58,2.702
2026-05-23 15:32:42.505,1433901961,13505,1,0.95386,0.04932,0.32178,2.145,-2.137,7.992
2026-05-23 15:32:42.505,1433901961,13505,2,0.96045,0.18823,0.4939,4.351,6.794,4.099
2026-05-23 15:32:43.705,1433903161,13705,1,0.93994,0.04614,0.33789,-1.771,-1.863,2.397
2026-05-23 15:32:43.705,1433903161,13705,2,0.96069,0.16235,0.50366,-1.489,-3.656,4.26
2026-05-23 15:32:43.905,1433903361,13905,1,0.94458,0.01978,0.32715,-6.832,-0.573,0.542
2026-05-23 15:32:43.905,1433903361,13905,2,0.96021,0.15063,0.50342,-5.328,-1.282,2.687
2026-05-23 15:32:43.105,1433902561,14105,1,0.94116,0.01953,0.32715,-3.878,0.305,-1.947
2026-05-23 15:32:43.105,1433902561,14105,2,0.95825,0.15771,0.49756,-0.496,-0.466,1.092
2026-05-23 15:32:43.305,1433902761,14305,1,0.94141,0.01807,0.3269,-7.366,0.351,0.084
2026-05-23 15:32:43.305,1433902761,14305,2,0.95483,0.1687,0.48022,-1.924,4.511,0.885
2026-05-23 15:32:43.505,1433902961,14505,1,0.93311,0.03735,0.34937,-7.725,4.168,-2.298
2026-05-23 15:32:43.505,1433902961,14505,2,0.96094,0.16528,0.51221,-11.374,2.588,0.153
2026-05-23 15:32:44.705,1433904161,14705,1,0.93018,0.02515,0.34888,-3.771,1.382,1.214
2026-05-23 15:32:44.705,1433904161,14705,2,0.95679,0.18091,0.51318,0.344,1.099,2.863
2026-05-23 15:32:44.905,1433904361,14905,1,0.9248,-0.00781,0.3562,-23.641,-1.275,-4.664
2026-05-23 15:32:44.905,1433904361,14905,2,0.96582,0.1416,0.51807,-16.282,-10.115,4.069
2026-05-23 15:32:44.105,1433903561,15105,1,0.9397,-0.03296,0.34839,-3.664,0.122,-0.099
