datetime,epoch_ms,ts_millis,mpu_id,ax,ay,az,gx,gy,gz
2026-05-20 17:18:29.083,1181048539,69083,1,0.896,-0.16699,0.55493,-8.977,8.504,9.496
2026-05-20 17:18:29.083,1181048539,69083,2,0.86621,-0.18286,0.49634,-26.053,1.443,-7.527
2026-05-20 17:18:29.283,1181048739,69283,1,0.87158,-0.19897,0.66187,-11.229,12.863,2.473
2026-05-20 17:18:29.283,1181048739,69283,2,0.79102,-0.19067,0.58105,-1.107,35.237,-15.061
2026-05-20 17:18:29.483,1181048939,69483,1,0.5835,-0.13232,0.33081,15.061,43.053,7.176
2026-05-20 17:18:29.483,1181048939,69483,2,0.41479,0.06055,0.32422,58.42,97.695,3.267
2026-05-20 17:18:29.683,1181049139,69683,1,0.5874,0.0022,0.75073,-3.786,54.244,-17.58
2026-05-20 17:18:29.683,1181049139,69683,2,0.49316,0.05078,0.6814,-36.069,-34.069,-28.107
2026-05-20 17:18:29.883,1181049339,69883,1,0.60938,-0.02173,1.15283,-2.405,-0.885,-5.756
2026-05-20 17:18:29.883,1181049339,69883,2,0.7251,0.19482,0.64111,-27.603,-23.969,-3.908
2026-05-20 17:18:30.083,1181049539,70083,1,0.92944,0.02173,0.90625,3.901,-51.023,-4.947
2026-05-20 17:18:30.083,1181049539,70083,2,0.91748,0.06812,0.77197,5.267,-31.595,16.328
2026-05-20 17:18:30.283,1181049739,70283,1,1.43945,-0.17163,0.71509,-10.542,-10.672,-16.672
2026-05-20 17:18:30.283,1181049739,70283,2,0.81641,0.00732,0.53418,10.252,45.794,-5.962
2026-05-20 17:18:30.483,1181049939,70483,1,0.76929,-0.03076,0.5415,3.046,0.313,-0.779
2026-05-20 17:18:30.483,1181049939,70483,2,0.7793,0.03052,0.61743,1.405,-45.443,6.176
2026-05-20 17:18:30.683,1181050139,70683,1,1.26685,-0.02368,0.71777,32.267,23.763,4.504
2026-05-20 17:18:30.683,1181050139,70683,2,1.05469,0.198,0.62939,38.031,78.328,-16.985
2026-05-20 17:18:30.883,1181050339,70883,1,0.88721,-0.01563,0.95679,-4.55,23.099,-8.267
2026-05-20 17:18:30.883,1181050339,70883,2,0.80835,0.14014,0.67456,17.985,-9.198,13.504
2026-05-20 17:18:31.083,1181050539,71083,1,0.85742,0.0271,1.02124,0.656,0.733,5.214
2026-05-20 17:18:31.083,1181050539,71083,2,0.84277,0.1311,0.65796,16.786,-26.107,22.473
2026-05-20 17:18:31.283,1181050739,71283,1,0.67041,-0.01563,0.57617,-6.748,-20.107,0.282
2026-05-20 17:18:31.283,1181050739,71283,2,0.26367,0.03052,0.13721,5.351,35.427,39.443
2026-05-20 17:18:31.483,1181050939,71483,1,0.52368,-0.06055,0.44312,-2.466,-86.13,-6.534
2026-05-20 17:18:31.483,1181050939,71483,2,1.08765,-0.02783,0.43164,-82.779,-215.885,23.756
2026-05-20 17:18:31.683,1181051139,71683,1,1.15161,-0.04712,0.35669,-20.885,8.481,-1.969
2026-05-20 17:18:31.683,1181051139,71683,2,1.00757,0.01636,0.25488,27.038,66.092,7.641
2026-05-20 17:18:31.883,1181051339,71883,1,1.05835,-0.03418,0.38062,-12.382,-14.534,-9.458
2026-05-20 17:18:31.883,1181051339,71883,2,1.02197,-0.18652,0.26978,26.328,30.061,8.42
2026-05-20 17:18:32.083,1181051539,72083,1,0.95776,-0.00732,0.48291,-0.344,10.718,-2.817
2026-05-20 17:18:32.083,1181051539,72083,2,0.95581,-0.09863,0.4082,-8.26,-0.115,-3.534
2026-05-20 17:18:32.394,1181051850,72394,1,0.88306,0.00391,0.45898,3.153,23.321,5.061
2026-05-20 17:18:32.394,1181051850,72394,2,0.71533,-0.03247,0.3562,-4.809,14.252,-18.84
2026-05-20 17:18:32.706,1181052162,72706,1,0.73291,-0.01831,0.5957,5.542,20.008,2.885
2026-05-20 17:18:32.706,1181052162,72706,2,0.77979,0.11646,0.5813,-4.504,24.809,-8.603
2026-05-20 17:18:33.214,1181052670,73214,1,0.90479,0.01099,0.85059,-0.046,-20.298,-1.206
2026-05-20 17:18:33.214,1181052670,73214,2,1.00537,0.05835,0.6792,-4.672,-22.145,9.145
2026-05-20 17:18:33.414,1181052870,73414,1,1.10303,-0.01733,0.59985,2.229,-10.992,-3.13
2026-05-20 17:18:33.414,1181052870,73414,2,1.05396,0.00903,0.65723,6.397,6.252,1.618
2026-05-20 17:18:33.614,1181053070,73614,1,1.0354,-0.0105,0.59204,-5.176,14.557,-1.244
2026-05-20 17:18:33.614,1181053070,73614,2,0.86841,0.04736,0.57764,30.588,31.298,1.359
2026-05-20 17:18:33.814,1181053270,73814,1,0.83252,0.03564,0.68335,-0.977,3.366,-3.908
2026-05-20 17:18:33.814,1181053270,73814,2,0.80371,-0.00073,0.55591,-11.687,-11.809,-2.55
2026-05-20 17:18:34.014,1181053470,74014,1,0.89087,-0.03613,0.62866,-9.595,3.191,-1.962
2026-05-20 17:18:34.014,1181053470,74014,2,0.76563,-0.00171,0.58911,-15.595,-12.26,-3.405
2026-05-20 17:18:34.214,1181053670,74214,1,0.93042,-0.0498,0.60132,-5.374,-5.069,-1.947
2026-05-20 17:18:34.214,1181053670,74214,2,0.77319,-0.01758,0.56055,-17.397,6.641,-7.634
2026-05-20 17:18:34.414,1181053870,74414,1,0.94775,-0.00391,0.59814,6.84,0.282,-4.313
2026-05-20 17:18:34.414,1181053870,74414,2,0.81592,-0.01807,0.54077,4.748,4.061,1.206
2026-05-20 17:18:34.759,1181054215,74759,1,1.4458,-0.01807,0.82886,-6.557,22.389,-1.908
2026-05-20 17:18:34.759,1181054215,74759,2,0.91113,0.05566,0.65796,-0.29,79.641,-10.771
2026-05-20 17:18:35.965,1181055421,74965,1,0.84351,-0.03467,0.83936,-7.244,-0.084,-1.191
2026-05-20 17:18:35.965,1181055421,74965,2,0.81543,0.01587,0.65845,-15.458,-73.0,5.023
2026-05-20 17:18:35.165,1181054621,75165,1,0.84668,0.02319,0.53027,-13.359,-8.389,-6.038
2026-05-20 17:18:35.165,1181054621,75165,2,0.58936,0.06787,0.39063,0.748,22.695,23.099
2026-05-20 17:18:35.365,1181054821,75365,1,0.35913,-0.01514,0.43823,-6.496,-17.679,-8.695
2026-05-20 17:18:35.365,1181054821,75365,2,0.51831,-0.0127,0.33862,-20.0,-83.58,13.023
2026-05-20 17:18:35.565,1181055021,75565,1,0.90063,0.00757,0.45581,-14.916,-24.053,-6.58
2026-05-20 17:18:35.565,1181055021,75565,2,0.96558,-0.2207,0.51196,18.198,9.679,44.015
2026-05-20 17:18:35.765,1181055221,75765,1,0.93726,-0.05371,0.42944,-13.0,-9.405,-3.489
2026-05-20 17:18:35.765,1181055221,75765,2,1.00122,-0.15698,0.32104,-10.359,-14.015,5.153
2026-05-20 17:18:36.965,1181056421,75965,1,1.00073,-0.05298,0.40137,-9.901,-4.649,-0.588
2026-05-20 17:18:36.965,1181056421,75965,2,0.92822,-0.2168,0.26807,8.412,6.038,12.763
2026-05-20 17:18:36.165,1181055621,76165,1,1.02563,-0.07837,0.38135,2.939,1.618,1.931
2026-05-20 17:18:36.165,1181055621,76165,2,0.95044,-0.20435,0.2688,13.87,9.557,6.267
2026-05-20 17:18:36.365,1181055821,76365,1,1.0144,-0.0603,0.3877,1.74,-2.847,3.305
2026-05-20 17:18:36.365,1181055821,76365,2,0.94653,-0.22119,0.29102,18.588,6.58,9.626
2026-05-20 17:18:36.565,1181056021,76565,1,1.01221,-0.07324,0.40552,9.183,5.626,4.237
2026-05-20 17:18:36.565,1181056021,76565,2,0.93848,-0.2395,0.28369,4.435,-3.863,2.298
2026-05-20 17:18:36.765,1181056221,76765,1,1.05371,-0.09326,0.36328,20.687,9.489,-4.748
2026-05-20 17:18:36.765,1181056221,76765,2,0.96094,-0.23926,0.35889,11.176,1.809,-12.084
2026-05-20 17:18:37.965,1181057421,76965,1,1.08228,-0.00562,0.32202,37.351,61.489,22.878
2026-05-20 17:18:37.965,1181057421,76965,2,1.02563,-0.11304,0.30396,73.87,63.168,-23.321
2026-05-20 17:18:37.165,1181056621,77165,1,0.63599,-0.06909,0.44116,36.26,107.183,5.321
2026-05-20 17:18:37.165,1181056621,77165,2,0.70581,0.29541,0.51904,89.267,70.046,-18.977
2026-05-20 17:18:37.384,1181056840,77384,1,0.31787,0.15283,0.9519,10.885,111.885,-13.244
2026-05-20 17:18:37.384,1181056840,77384,2,0.26733,0.37231,0.84375,-16.351,70.901,-34.71
2026-05-20 17:18:37.599,1181057055,77599,1,-0.00659,0.06885,1.2373,-9.435,70.244,-5.779
2026-05-20 17:18:37.599,1181057055,77599,2,-0.03027,0.24902,0.95459,14.786,16.107,4.473
2026-05-20 17:18:37.808,1181057264,77808,1,-0.15234,0.10815,1.27148,3.076,31.473,4.489
2026-05-20 17:18:37.808,1181057264,77808,2,-0.07056,0.26831,0.91772,2.809,25.267,
2026-05-20 17:18:38.008,1181057464,78008,1,-0.19092,0.10205,1.09131,-4.328,6.405,2.855
2026-05-20 17:18:38.008,1181057464,78008,2,-0.11597,0.26465,0.86475,-17.145,9.008,0.916
2026-05-20 17:18:38.208,1181057664,78208,1,-0.16162,-0.02661,1.20898,7.641,-11.344,2.137
2026-05-20 17:18:38.208,1181057664,78208,2,0.02808,0.22485,0.92139,13.008,-10.802,5.168
2026-05-20 17:18:38.408,1181057864,78408,1,-0.12524,0.04077,1.27979,-1.885,-8.504,2.305
2026-05-20 17:18:38.408,1181057864,78408,2,0.05151,0.33813,0.93433,22.137,-38.244,17.122
2026-05-20 17:18:38.608,1181058064,78608,1,-0.08398,0.0481,1.27441,-12.473,-62.679,-2.557
2026-05-20 17:18:38.608,1181058064,78608,2,0.177,0.32861,0.87573,2.427,-61.664,27.16
2026-05-20 17:18:38.808,1181058264,78808,1,0.24048,0.03223,1.00488,-4.473,-108.832,5.122
2026-05-20 17:18:38.808,1181058264,78808,2,0.57104,0.15576,0.62744,-16.298,-96.466,45.344
2026-05-20 17:18:39.008,1181058464,79008,1,0.47339,0.06006,0.77441,-1.305,-133.718,8.763
2026-05-20 17:18:39.008,1181058464,79008,2,0.91919,0.07275,0.46216,-43.443,-132.557,74.618
2026-05-20 17:18:39.208,1181058664,79208,1,1.11963,0.00195,0.12378,-22.282,-76.817,-4.16
2026-05-20 17:18:39.208,1181058664,79208,2,1.18335,-0.1377,0.23389,-22.359,-29.931,10.603
2026-05-20 17:18:39.408,1181058864,79408,1,1.15918,-0.03247,0.23218,-6.557,12.58,-0.305
2026-05-20 17:18:39.408,1181058864,79408,2,1.03979,-0.18726,0.26563,7.176,8.992,-18.023
2026-05-20 17:18:39.608,1181059064,79608,1,0.95898,-0.10083,0.25879,2.824,82.244,6.786
2026-05-20 17:18:39.608,1181059064,79608,2,0.80054,0.02173,0.4187,32.0,81.023,-43.42
2026-05-20 17:18:39.808,1181059264,79808,1,0.53149,-0.0835,0.79346,-0.084,116.275,-8.733
2026-05-20 17:18:39.808,1181059264,79808,2,0.63599,0.17163,0.81763,32.71,97.992,-45.351
2026-05-20 17:18:40.008,1181059464,80008,1,0.25269,-0.00342,1.15479,16.878,89.786,-4.489
2026-05-20 17:18:40.008,1181059464,80008,2,0.44409,0.30371,0.72803,32.397,73.496,-7.458
2026-05-20 17:18:40.208,1181059664,80208,1,0.19531,0.04126,1.17822,2.863,46.435,-8.206
2026-05-20 17:18:40.208,1181059664,80208,2,0.22998,0.33203,0.79517,-27.252,37.969,-21.198
2026-05-20 17:18:40.408,1181059864,80408,1,0.021,-0.03223,1.13721,0.115,32.878,4.55
2026-05-20 17:18:40.408,1181059864,80408,2,0.13354,0.22705,0.89673,-10.817,18.13,-8.534
2026-05-20 17:18:40.608,1181060064,80608,1,-0.02466,0.00171,1.09595,3.847,16.832,-0.359
2026-05-20 17:18:40.608,1181060064,80608,2,0.06763,0.18433,0.92871,0.466,15.847,-4.458
2026-05-20 17:18:40.821,1181060277,80821,1,-0.1062,0.02856,1.09644,4.191,34.374,-6.298
2026-05-20 17:18:40.821,1181060277,80821,2,0.03076,0.21216,0.90454,-0.87,20.076,-4.153
2026-05-20 17:18:41.021,1181060477,81021,1,-0.37769,-0.02051,1.30127,9.084,25.458,-12.504
2026-05-20 17:18:41.021,1181060477,81021,2,-0.04517,0.28369,0.88013,25.282,-50.221,15.382
2026-05-20 17:18:41.240,1181060696,81240,1,-0.24121,0.1333,1.33838,16.718,-84.282,-3.321
2026-05-20 17:18:41.240,1181060696,81240,2,0.27148,0.2937,0.81787,21.145,-82.878,56.038
2026-05-20 17:18:41.507,1181060963,81507,1,0.31519,0.12793,0.81519,-22.969,-144.214,5.359
2026-05-20 17:18:41.507,1181060963,81507,2,0.88525,0.00122,0.39893,-72.45,-122.275,44.786
2026-05-20 17:18:41.852,1181061308,81851,1,0.99976,-0.06006,0.31348,-20.237,-61.206,-11.878
2026-05-20 17:18:41.852,1181061308,81851,2,1.01465,-0.27173,0.32983,-24.863,-22.725,28.458
2026-05-20 17:18:42.051,1181061507,82051,1,1.04297,-0.06055,0.30127,-5.015,-16.275,-6.214
2026-05-20 17:18:42.051,1181061507,82051,2,0.98511,-0.33618,0.17944,-10.702,-17.695,14.885
2026-05-20 17:18:42.258,1181061714,82258,1,1.0564,-0.03906,0.3291,-4.794,2.481,-0.481
2026-05-20 17:18:42.258,1181061714,82258,2,1.00537,-0.34033,-0.06836,-83.412,-64.84,-89.344
2026-05-20 17:18:42.458,1181061914,82458,1,1.04102,-0.03345,0.33105,-6.527,-0.58,0.229
2026-05-20 17:18:42.458,1181061914,82458,2,0.99951,-0.30615,0.10229,0.344,6.275,2.038
2026-05-20 17:18:42.658,1181062114,82658,1,1.03296,-0.05029,0.35864,0.618,5.282,3.962
2026-05-20 17:18:42.658,1181062114,82658,2,0.98779,-0.27173,0.15796,-0.344,-18.916,-2.359
2026-05-20 17:18:42.858,1181062314,82858,1,1.02246,-0.07007,0.36572,10.611,8.16,5.947
2026-05-20 17:18:42.858,1181062314,82858,2,0.95728,-0.25317,0.17139,-3.565,-0.321,-4.45
2026-05-20 17:18:43.058,1181062514,83058,1,1.00952,-0.05493,0.37744,-0.763,4.473,2.55
2026-05-20 17:18:43.058,1181062514,83058,2,0.96338,-0.25146,0.17773,-2.878,-1.389,-4.275
2026-05-20 17:18:43.258,1181062714,83258,1,1.01001,-0.06909,0.38135,-5.076,3.466,-3.908
2026-05-20 17:18:43.258,1181062714,83258,2,0.97852,-0.28003,0.17139,-1.84,5.939,-0.611
2026-05-20 17:18:43.458,1181062914,83458,1,1.00439,-0.06006,0.37964,-3.939,3.069,-4.511
2026-05-20 17:18:43.458,1181062914,83458,2,0.96387,-0.27295,0.17871,-3.046,3.038,0.672
2026-05-20 17:18:43.662,1181063118,83662,1,1.01025,-0.04321,0.37354,1.779,2.198,-1.763
2026-05-20 17:18:43.662,1181063118,83662,2,0.9751,-0.26855,0.18335,-3.702,-1.771,0.221
2026-05-20 17:18:44.936,1181064392,83936,1,1.00879,-0.0542,0.38989,1.168,2.344,1.481
2026-05-20 17:18:44.936,1181064392,83936,2,0.96436,-0.25195,0.18799,0.336,1.351,1.183
2026-05-20 17:18:44.136,1181063592,84136,1,1.0022,-0.05737,0.38525,1.618,2.298,4.008
2026-05-20 17:18:44.136,1181063592,84136,2,0.96606,-0.26294,0.18579,2.427,2.863,2.038
2026-05-20 17:18:44.336,1181063792,84336,1,1.01538,-0.08179,0.38989,0.977,0.221,3.313
2026-05-20 17:18:44.336,1181063792,84336,2,0.96851,-0.2688,0.16675,1.733,1.511,1.885
2026-05-20 17:18:44.536,1181063992,84536,1,1.01489,-0.09326,0.37573,1.16,-0.588,0.443
2026-05-20 17:18:44.536,1181063992,84536,2,0.9624,-0.2605,0.20044,0.26,-0.061,0.458
2026-05-20 17:18:44.736,1181064192,84736,1,1.01831,-0.07739,0.37964,2.351,2.519,-0.748
2026-05-20 17:18:44.736,1181064192,84736,2,0.96411,-0.27588,0.19604,2.763,0.779,-0.405
2026-05-20 17:18:45.936,1181065392,84936,1,1.00537,-0.06177,0.39771,2.519,3.908,-0.313
2026-05-20 17:18:45.936,1181065392,84936,2,0.96558,-0.26025,0.18359,3.893,2.748,-0.374
2026-05-20 17:18:45.136,1181064592,85136,1,1.00293,-0.09644,0.3916,-0.122,-4.198,-4.084
2026-05-20 17:18:45.136,1181064592,85136,2,0.98315,-0.2478,0.25293,-6.947,-0.053,-4.13
2026-05-20 17:18:45.336,1181064792,85336,1,1.11401,-0.0293,0.29126,19.336,35.763,8.649
2026-05-20 17:18:45.336,1181064792,85336,2,0.98804,-0.26953,0.35229,51.069,38.649,-31.527
2026-05-20 17:18:45.536,1181064992,85536,1,0.67383,-0.03198,0.32227,36.893,97.832,20.351
2026-05-20 17:18:45.536,1181064992,85536,2,0.56958,-0.07373,0.35547,80.519,107.878,-16.267
2026-05-20 17:18:45.736,1181065192,85736,1,0.29663,0.04858,0.78491,29.366,69.901,6.542
2026-05-20 17:18:45.736,1181065192,85736,2,0.46753,0.14795,0.47095,-17.496,-5.855,-11.916
2026-05-20 17:18:46.936,1181066392,85936,1,0.49316,0.14795,1.19238,-0.893,-7.244,-1.298
2026-05-20 17:18:46.936,1181066392,85936,2,0.67358,0.19482,0.7937,-42.191,-12.802,5.534
2026-05-20 17:18:46.136,1181065592,86136,1,0.80981,-0.06445,0.99927,-2.771,-63.939,-0.191
2026-05-20 17:18:46.136,1181065592,86136,2,0.91187,0.10522,0.81079,-25.687,-60.275,5.053
2026-05-20 17:18:46.336,1181065792,86336,1,1.11719,0.11768,0.61157,-12.649,-57.267,-13.092
2026-05-20 17:18:46.336,1181065792,86336,2,1.19727,0.05908,0.97217,-29.863,-29.611,-9.603
2026-05-20 17:18:46.536,1181065992,86536,1,1.10571,-0.00806,0.85303,45.031,61.008,-4.809
2026-05-20 17:18:46.536,1181065992,86536,2,0.73682,0.30859,0.57397,12.221,44.534,4.878
2026-05-20 17:18:46.807,1181066263,86807,1,0.85303,0.06104,1.00049,12.26,-5.786,7.84
2026-05-20 17:18:46.807,1181066263,86807,2,0.87622,0.13452,0.67212,3.656,15.298,14.588
2026-05-20 17:18:47.007,1181066463,87007,1,0.53174,0.06079,0.66748,8.504,-9.458,-1.565
2026-05-20 17:18:47.007,1181066463,87007,2,0.19629,0.06396,0.21606,-25.076,-12.053,30.573
2026-05-20 17:18:47.207,1181066663,87207,1,0.42603,-0.06177,0.46509,2.87,-87.481,7.038
2026-05-20 17:18:47.207,1181066663,87207,2,0.83301,-0.10962,0.55859,-79.771,-148.405,21.069
2026-05-20 17:18:47.407,1181066863,87407,1,1.07031,0.02197,0.48145,-0.153,9.916,8.099
2026-05-20 17:18:47.407,1181066863,87407,2,0.9248,-0.177,0.25952,-7.908,52.435,8.122
2026-05-20 17:18:47.607,1181067063,87607,1,1.04492,0.02222,0.45581,0.137,-4.115,-0.511
2026-05-20 17:18:47.607,1181067063,87607,2,0.97803,-0.12085,0.31763,4.145,-12.198,-9.42
2026-05-20 17:18:47.887,1181067343,87887,1,1.03296,-0.02563,0.35718,-7.275,32.084,-4.26
2026-05-20 17:18:47.887,1181067343,87887,2,0.90527,-0.07397,0.44458,64.519,79.931,-28.969
2026-05-20 17:18:48.087,1181067543,88087,1,0.7771,-0.02856,0.51611,3.695,105.038,-3.16
2026-05-20 17:18:48.087,1181067543,88087,2,0.80713,0.16821,0.63672,57.29,114.511,-44.542
2026-05-20 17:18:48.287,1181067743,88287,1,0.32666,0.09351,0.95386,9.542,112.26,-9.878
2026-05-20 17:18:48.287,1181067743,88287,2,0.55249,0.37451,0.70557,32.496,71.725,-20.282
2026-05-20 17:18:48.487,1181067943,88487,1,0.24731,0.08252,1.13574,-9.389,63.237,-0.924
2026-05-20 17:18:48.487,1181067943,88487,2,0.28687,0.26172,0.88354,-47.382,32.427,-46.908
2026-05-20 17:18:48.687,1181068143,88687,1,0.02148,0.05469,1.1748,-11.282,43.473,2.359
2026-05-20 17:18:48.687,1181068143,88687,2,0.09375,0.17847,0.94043,-19.481,33.42,-13.008
2026-05-20 17:18:48.887,1181068343,88887,1,-0.05029,0.01514,1.09521,6.267,16.176,-1.038
2026-05-20 17:18:48.887,1181068343,88887,2,0.07861,0.17383,0.92017,-8.771,21.504,-0.137
2026-05-20 17:18:49.087,1181068543,89087,1,-0.09448,0.03052,1.07227,1.168,29.145,1.122
2026-05-20 17:18:49.087,1181068543,89087,2,-0.05981,0.21875,0.99048,-2.687,20.282,-3.885
2026-05-20 17:18:49.287,1181068743,89287,1,-0.33545,0.03442,1.29419,-5.939,-17.786,5.115
2026-05-20 17:18:49.287,1181068743,89287,2,-0.0835,0.20459,0.98071,23.519,-34.939,17.74
2026-05-20 17:18:49.487,1181068943,89487,1,-0.16992,0.06738,1.22217,6.71,-87.298,2.13
2026-05-20 17:18:49.487,1181068943,89487,2,0.23291,0.27344,0.86353,20.977,-75.87,41.405
2026-05-20 17:18:49.687,1181069143,89687,1,0.23706,0.11572,0.94312,-12.458,-114.557,-3.229
2026-05-20 17:18:49.687,1181069143,89687,2,0.58643,0.14795,0.68042,-33.466,-110.198,31.878
2026-05-20 17:18:49.887,1181069343,89887,1,0.57446,0.1106,0.67773,-29.603,-110.626,-2.084
2026-05-20 17:18:49.887,1181069343,89887,2,0.82153,-0.01685,0.35913,-85.565,-89.954,55.786
2026-05-20 17:18:50.087,1181069543,90087,1,0.94995,-0.04736,0.41479,-41.191,-74.588,-10.779
2026-05-20 17:18:50.087,1181069543,90087,2,0.98218,-0.23804,0.2959,-24.496,-12.122,24.237
2026-05-20 17:18:50.287,1181069743,90287,1,1.03711,-0.08813,0.35498,-12.221,-19.641,-8.153
2026-05-20 17:18:50.287,1181069743,90287,2,0.99487,-0.31396,0.16895,-24.725,-19.786,7.382
2026-05-20 17:18:50.487,1181069943,90487,1,1.05225,-0.05957,0.33398,6.023,-9.023,1.16
2026-05-20 17:18:50.487,1181069943,90487,2,0.97754,-0.28052,0.15723,0.122,-13.16,-1.298
2026-05-20 17:18:50.687,1181070143,90687,1,1.04175,-0.06445,0.3208,-8.176,6.153,-3.053
2026-05-20 17:18:50.687,1181070143,90687,2,0.9646,-0.29712,0.1604,-0.145,8.328,-4.237
2026-05-20 17:18:50.887,1181070343,90887,1,1.01733,-0.06323,0.37036,-1.29,6.275,0.58
2026-05-20 17:18:50.887,1181070343,90887,2,0.9585,-0.28467,0.18994,2.847,3.115,-3.313
2026-05-20 17:18:51.106,1181070562,91106,1,1.00854,-0.06519,0.37988,-0.718,4.061,2.122
2026-05-20 17:18:51.106,1181070562,91106,2,0.95483,-0.28174,0.17847,1.794,4.0,0.672
2026-05-20 17:18:51.306,1181070762,91306,1,1.01147,-0.08154,0.36401,-0.29,0.985,1.344
2026-05-20 17:18:51.306,1181070762,91306,2,0.97021,-0.27588,0.17188,1.115,-0.771,1.115
2026-05-20 17:18:51.506,1181070962,91506,1,1.01831,-0.07251,0.36938,2.565,-0.16,-0.748
2026-05-20 17:18:51.506,1181070962,91506,2,0.96802,-0.27222,0.16724,2.863,0.084,0.901
2026-05-20 17:18:51.706,1181071162,91706,1,1.03589,-0.07104,0.36133,3.84,-4.626,-3.435
2026-05-20 17:18:51.706,1181071162,91706,2,0.96582,-0.27075,0.18433,-6.015,-5.214,-1.412
2026-05-20 17:18:51.906,1181071362,91906,1,1.0481,-0.04419,0.32837,17.397,15.771,6.145
2026-05-20 17:18:51.906,1181071362,91906,2,0.97729,-0.25195,0.1687,30.771,13.405,-5.305
2026-05-20 17:18:52.106,1181071562,92106,1,1.11255,-0.04663,0.28223,11.618,47.954,1.229
2026-05-20 17:18:52.106,1181071562,92106,2,0.98999,-0.24561,0.39551,20.489,54.55,-42.176
2026-05-20 17:18:52.306,1181071762,92306,1,0.61206,-0.03271,0.46777,25.695,146.573,9.786
2026-05-20 17:18:52.306,1181071762,92306,2,0.76001,0.04858,0.39771,110.305,193.473,-34.603
2026-05-20 17:18:52.506,1181071962,92506,1,0.12256,0.11328,1.13696,22.878,118.817,2.603
2026-05-20 17:18:52.506,1181071962,92506,2,0.50439,0.46069,0.70557,-20.969,76.466,-47.298
2026-05-20 17:18:52.706,1181072162,92706,1,0.04395,0.06592,1.21851,6.87,67.29,-1.855
2026-05-20 17:18:52.706,1181072162,92706,2,0.12964,0.28491,0.89282,2.427,43.542,-13.351
2026-05-20 17:18:52.906,1181072362,92906,1,-0.0752,0.09619,1.20288,-3.336,44.298,5.656
2026-05-20 17:18:52.906,1181072362,92906,2,-0.00439,0.21533,0.97974,-15.084,25.626,-8.344
2026-05-20 17:18:53.106,1181072562,93106,1,-0.19727,0.01855,1.21167,-16.824,7.008,-0.817
2026-05-20 17:18:53.106,1181072562,93106,2,-0.07446,0.22778,0.89355,-13.977,-8.015,3.076
2026-05-20 17:18:53.306,1181072762,93306,1,-0.13477,-0.02979,1.25757,10.893,-11.817,-2.473
2026-05-20 17:18:53.306,1181072762,93306,2,0.07251,0.31348,0.96143,26.733,-27.435,11.496
2026-05-20 17:18:53.506,1181072962,93506,1,-0.08838,0.03296,1.23511,-8.901,-69.176,4.58
2026-05-20 17:18:53.506,1181072962,93506,2,0.19775,0.37134,0.84912,14.656,-63.313,31.397
2026-05-20 17:18:53.706,1181073162,93706,1,0.1228,0.02612,1.15356,-13.389,-104.076,11.45
2026-05-20 17:18:53.706,1181073162,93706,2,0.51221,0.28711,0.64624,1.954,-98.649,52.802
2026-05-20 17:18:53.906,1181073362,93906,1,0.55933,0.06763,0.76514,-37.473,-98.16,-0.626
2026-05-20 17:18:53.906,1181073362,93906,2,0.81836,0.09863,0.55591,-13.427,-70.153,52.565
2026-05-20 17:18:54.106,1181073562,94106,1,0.7688,-0.06616,0.53442,-45.351,-78.817,-20.794
2026-05-20 17:18:54.106,1181073562,94106,2,0.95923,-0.03979,0.30127,-58.221,-74.015,27.725
2026-05-20 17:18:54.306,1181073762,94306,1,1.06641,-0.08691,0.2771,-7.763,-32.443,-12.252
2026-05-20 17:18:54.306,1181073762,94306,2,1.02197,-0.23389,0.20972,0.221,-6.099,4.695
2026-05-20 17:18:54.506,1181073962,94506,1,1.16235,-0.06177,0.26196,16.969,23.13,0.397
2026-05-20 17:18:54.506,1181073962,94506,2,0.94385,-0.15894,0.36206,35.664,53.908,-24.137
2026-05-20 17:18:54.706,1181074162,94706,1,0.57495,-0.05078,0.49854,26.489,51.412,18.069
2026-05-20 17:18:54.706,1181074162,94706,2,0.53223,-0.09985,0.3562,-15.443,50.198,-39.618
2026-05-20 17:18:54.906,1181074362,94906,1,0.74707,-0.07031,0.54346,11.824,5.168,15.26
2026-05-20 17:18:54.906,1181074362,94906,2,0.7041,-0.0127,0.5481,28.183,-35.405,17.771
2026-05-20 17:18:55.106,1181074562,95106,1,0.75488,-0.07056,0.83618,2.076,0.924,8.626
2026-05-20 17:18:55.106,1181074562,95106,2,1.00903,0.09399,0.61597,-5.435,13.321,2.336
2026-05-20 17:18:55.306,1181074762,95306,1,1.15942,-0.10229,0.71655,-14.313,-16.511,1.55
2026-05-20 17:18:55.306,1181074762,95306,2,0.99658,-0.00488,0.71729,5.809,16.473,7.595
2026-05-20 17:18:55.697,1181075153,95697,1,0.86694,-0.20776,0.91919,11.122,-0.321,0.107
2026-05-20 17:18:55.697,1181075153,95697,2,1.04785,0.18799,1.03369,4.115,-5.023,-16.763
2026-05-20 17:18:56.068,1181075524,96068,1,0.73901,0.12158,1.05273,21.412,-41.29,-5.733
2026-05-20 17:18:56.068,1181075524,96068,2,0.7019,0.02637,0.50098,-26.191,1.947,15.176
2026-05-20 17:18:56.370,1181075826,96370,1,0.6394,-0.04297,0.42847,-16.435,-24.84,-5.649
2026-05-20 17:18:56.370,1181075826,96370,2,0.56177,-0.0188,0.24414,-36.565,-56.519,7.595
2026-05-20 17:18:56.572,1181076028,96572,1,0.62891,-0.03223,0.36694,-27.069,-33.992,-17.962
2026-05-20 17:18:56.572,1181076028,96572,2,0.79126,-0.14771,0.23779,-22.466,-48.038,28.969
2026-05-20 17:18:56.772,1181076228,96772,1,1.25586,-0.07959,0.38257,-26.397,-22.931,-9.527
2026-05-20 17:18:56.772,1181076228,96772,2,0.86523,-0.15503,0.11938,26.29,23.084,20.679
2026-05-20 17:18:57.999,1181077455,96999,1,1.08472,-0.0686,0.37134,-4.015,-12.435,-5.55
2026-05-20 17:18:57.999,1181077455,96999,2,0.927,-0.26782,0.13892,42.924,34.336,14.412
2026-05-20 17:18:57.234,1181076690,97234,1,1.04956,-0.0752,0.3418,-3.802,-6.023,0.099
2026-05-20 17:18:57.234,1181076690,97234,2,0.95996,-0.26685,0.16895,-24.069,-22.855,-10.16
2026-05-20 17:18:57.434,1181076890,97434,1,1.03394,-0.07764,0.32813,-3.153,2.58,1.603
2026-05-20 17:18:57.434,1181076890,97434,2,0.97803,-0.26367,0.18677,-17.237,-11.412,-7.893
2026-05-20 17:18:57.634,1181077090,97634,1,1.02905,-0.0896,0.3252,-3.496,5.466,0.244
2026-05-20 17:18:57.634,1181077090,97634,2,0.97729,-0.26782,0.17749,3.267,15.321,1.031
2026-05-20 17:18:57.834,1181077290,97834,1,1.00562,-0.0835,0.35645,7.824,0.229,1.595
2026-05-20 17:18:57.834,1181077290,97834,2,0.95923,-0.25854,0.17236,9.107,5.588,4.443
2026-05-20 17:18:58.034,1181077490,98034,1,1.01855,-0.09106,0.34912,0.321,-1.244,-0.901
2026-05-20 17:18:58.034,1181077490,98034,2,0.96362,-0.24854,0.16846,1.496,4.588,2.519
2026-05-20 17:18:58.234,1181077690,98234,1,1.0415,-0.09399,0.30811,7.405,-2.573,-5.389
2026-05-20 17:18:58.234,1181077690,98234,2,0.99097,-0.26587,0.1853,11.26,-0.733,-3.588
2026-05-20 17:18:58.434,1181077890,98434,1,1.04761,-0.03711,0.32104,18.137,16.489,3.763
2026-05-20 17:18:58.434,1181077890,98434,2,0.93604,-0.20923,0.17676,19.191,5.252,-6.565
2026-05-20 17:18:58.634,1181078090,98634,1,0.99365,-0.01587,0.35938,10.71,20.282,0.824
2026-05-20 17:18:58.634,1181078090,98634,2,0.94751,-0.18726,0.20825,25.122,22.252,-2.443
2026-05-20 17:18:58.834,1181078290,98834,1,0.9436,-0.06738,0.49878,-0.557,16.702,-0.718
2026-05-20 17:18:58.834,1181078290,98834,2,0.95361,-0.17847,0.22974,5.603,10.802,0.893
2026-05-20 17:18:59.034,1181078490,99034,1,0.97827,-0.06177,0.47925,-0.992,3.473,1.107
2026-05-20 17:18:59.034,1181078490,99034,2,0.93408,-0.14307,0.28394,1.847,0.863,3.107
2026-05-20 17:18:59.234,1181078690,99234,1,1.00171,-0.09839,0.48706,-1.435,-2.061,0.374
2026-05-20 17:18:59.234,1181078690,99234,2,0.98901,-0.18408,0.34351,1.42,-3.305,-4.58
2026-05-20 17:18:59.434,1181078890,99434,1,0.94214,-0.0708,0.30786,28.733,57.382,4.87
2026-05-20 17:18:59.434,1181078890,99434,2,0.92749,-0.04541,0.4917,39.443,63.244,-49.74
2026-05-20 17:18:59.634,1181079090,99634,1,0.43945,-0.00781,0.48999,30.863,151.382,3.565
2026-05-20 17:18:59.634,1181079090,99634,2,0.45264,0.0498,0.15454,37.641,133.458,-49.076
2026-05-20 17:18:59.834,1181079290,99834,1,0.0791,0.03149,1.19165,2.282,31.519,0.13
2026-05-20 17:18:59.834,1181079290,99834,2,0.33716,0.24194,0.62817,3.588,-40.786,17.687
2026-05-20 17:19:00.034,1181079490,100034,1,0.47437,0.08667,1.1665,-10.802,-90.664,-0.305
2026-05-20 17:19:00.034,1181079490,100034,2,1.03467,0.12329,0.979,-13.267,-94.534,38.672
2026-05-20 17:19:00.330,1181079786,100330,1,1.12671,0.05566,0.82471,16.008,-58.947,-9.145
2026-05-20 17:19:00.330,1181079786,100330,2,1.17627,-0.03516,0.78003,11.481,-5.412,5.282
2026-05-20 17:19:00.535,1181079991,100534,1,1.24731,-0.00903,0.80371,2.374,46.878,8.443
2026-05-20 17:19:00.535,1181079991,100534,2,1.16138,0.01318,0.6355,9.145,48.58,-28.573
2026-05-20 17:19:00.734,1181080190,100734,1,0.79272,-0.08008,0.95776,-3.481,30.237,-7.344
2026-05-20 17:19:00.734,1181080190,100734,2,0.81689,0.13745,0.73657,20.16,-26.511,5.954
2026-05-20 17:19:01.934,1181081390,100934,1,0.80396,0.09424,0.91357,-12.031,-8.756,-4.863
2026-05-20 17:19:01.934,1181081390,100934,2,0.70508,0.14746,0.59131,-21.397,12.519,4.321
2026-05-20 17:19:01.134,1181080590,101134,1,0.44263,0.00513,0.59888,-18.45,-30.107,-8.282
2026-05-20 17:19:01.134,1181080590,101134,2,0.41089,0.06665,0.29297,-24.679,-50.107,26.214
2026-05-20 17:19:01.334,1181080790,101334,1,0.81274,-0.03613,0.44824,-3.038,-65.015,-12.359
2026-05-20 17:19:01.334,1181080790,101334,2,1.04053,-0.1106,0.40063,-25.336,-80.0,12.573
2026-05-20 17:19:01.534,1181080990,101534,1,0.91602,0.0105,0.59424,-9.649,-1.779,-5.641
2026-05-20 17:19:01.534,1181080990,101534,2,1.00439,-0.1228,0.33496,-24.611,-40.969,-7.206
2026-05-20 17:19:01.786,1181081242,101786,1,0.96997,-0.03735,0.50781,-2.924,-2.603,2.282
2026-05-20 17:19:01.786,1181081242,101786,2,0.93408,-0.12085,0.25317,4.824,-2.962,7.779
2026-05-20 17:19:02.986,1181082442,101986,1,0.96533,-0.0415,0.50659,-0.504,-2.344,1.13
2026-05-20 17:19:02.986,1181082442,101986,2,0.97925,-0.13232,0.29883,10.969,10.84,3.382
2026-05-20 17:19:02.186,1181081642,102186,1,0.98218,-0.02271,0.49731,1.985,2.061,-0.985
2026-05-20 17:19:02.186,1181081642,102186,2,0.96777,-0.13086,0.27368,-3.206,-5.45,-0.931
2026-05-20 17:19:02.386,1181081842,102386,1,1.07153,-0.01978,0.39917,8.168,10.084,-0.779
2026-05-20 17:19:02.386,1181081842,102386,2,1.05811,-0.12451,0.37769,9.817,8.786,-16.344
2026-05-20 17:19:02.586,1181082042,102586,1,0.59717,0.18823,0.59229,5.168,50.443,-0.069
2026-05-20 17:19:02.586,1181082042,102586,2,0.31055,-0.38013,0.15234,-72.275,66.733,-28.924
2026-05-20 17:19:02.786,1181082242,102786,1,0.63159,0.06299,0.58667,30.092,-22.13,17.664
2026-05-20 17:19:02.786,1181082242,102786,2,0.7356,-0.00708,0.53613,-22.137,-67.542,1.489
2026-05-20 17:19:03.986,1181083442,102986,1,1.00684,0.03979,0.52905,5.733,-6.16,3.038
2026-05-20 17:19:03.986,1181083442,102986,2,0.89063,-0.07129,0.52173,32.939,-7.542,17.389
2026-05-20 17:19:03.186,1181082642,103186,1,1.2063,-0.01489,0.79224,6.809,-3.221,5.74
2026-05-20 17:19:03.186,1181082642,103186,2,1.12817,0.05054,0.63892,18.809,0.084,-3.496
2026-05-20 17:19:03.386,1181082842,103386,1,1.09448,0.02539,0.67773,0.031,12.328,-2.664
2026-05-20 17:19:03.386,1181082842,103386,2,0.87305,-0.09302,0.50708,1.008,1.504,3.718
2026-05-20 17:19:03.586,1181083042,103586,1,0.96313,0.02539,0.49487,7.748,1.321,0.565
2026-05-20 17:19:03.586,1181083042,103586,2,0.89233,0.07373,0.49121,1.687,5.13,-0.26
2026-05-20 17:19:03.786,1181083242,103786,1,1.4314,-0.03442,0.65869,-17.42,38.511,-9.718
2026-05-20 17:19:03.786,1181083242,103786,2,1.44971,0.06689,0.88135,3.351,2.084,-23.954
2026-05-20 17:19:04.986,1181084442,103986,1,0.84058,0.00684,0.89111,-17.687,-3.084,-4.878
2026-05-20 17:19:04.986,1181084442,103986,2,0.73413,0.16724,0.56274,-8.985,-47.13,6.847
2026-05-20 17:19:04.186,1181083642,104186,1,0.87988,0.00439,0.65137,-27.275,-20.954,1.29
2026-05-20 17:19:04.186,1181083642,104186,2,0.60254,-0.06226,0.31128,-26.366,-14.924,29.313
2026-05-20 17:19:04.386,1181083842,104386,1,0.56592,-0.03271,0.39087,-27.74,-26.382,-6.336
2026-05-20 17:19:04.386,1181083842,104386,2,0.62231,-0.16602,0.30981,-31.863,-32.84,7.206
2026-05-20 17:19:04.638,1181084094,104638,1,1.00317,-0.1123,0.32935,-17.443,-31.344,-8.847
2026-05-20 17:19:04.638,1181084094,104638,2,1.17627,-0.32861,0.38013,-27.87,-29.687,-2.809
2026-05-20 17:19:04.838,1181084294,104838,1,0.94458,-0.09814,0.34497,-3.969,-8.031,-1.107
2026-05-20 17:19:04.838,1181084294,104838,2,1.06543,-0.22998,0.24463,-4.244,-18.351,11.26
2026-05-20 17:19:05.038,1181084494,105038,1,1.0293,-0.07544,0.30469,-3.107,1.534,1.107
2026-05-20 17:19:05.038,1181084494,105038,2,0.97119,-0.24731,0.24243,28.115,35.076,13.397
2026-05-20 17:19:05.247,1181084703,105247,1,0.99414,-0.04126,0.36841,-5.695,4.809,4.397
2026-05-20 17:19:05.247,1181084703,105247,2,0.98096,-0.26245,0.18921,17.771,23.015,12.427
2026-05-20 17:19:05.511,1181084967,105510,1,1.02808,-0.05005,0.36401,4.076,1.267,-2.817
2026-05-20 17:19:05.511,1181084967,105510,2,0.96924,-0.2522,0.21606,11.29,12.107,3.74
2026-05-20 17:19:05.710,1181085166,105710,1,1.02075,-0.04712,0.36426,0.786,4.71,1.969
2026-05-20 17:19:05.710,1181085166,105710,2,0.96558,-0.22681,0.20898,-0.756,4.618,0.359
2026-05-20 17:19:05.910,1181085366,105910,1,1.00757,-0.06128,0.38428,3.282,2.298,1.74
2026-05-20 17:19:05.910,1181085366,105910,2,0.97534,-0.19849,0.23218,-4.702,-8.466,-3.672
2026-05-20 17:19:06.110,1181085566,106110,1,1.0083,-0.04443,0.38745,0.939,1.962,-2.008
2026-05-20 17:19:06.110,1181085566,106110,2,0.97803,-0.22827,0.23999,-3.038,-9.008,0.328
2026-05-20 17:19:06.310,1181085766,106310,1,1.01538,-0.0459,0.36768,0.389,5.748,-1.29
2026-05-20 17:19:06.310,1181085766,106310,2,0.96899,-0.21265,0.27051,11.076,-1.275,2.023
2026-05-20 17:19:06.510,1181085966,106510,1,1.03223,-0.0564,0.38037,0.817,6.305,-0.763
2026-05-20 17:19:06.510,1181085966,106510,2,0.96094,-0.22925,0.19995,4.275,-3.595,-0.328
2026-05-20 17:19:06.713,1181086169,106713,1,1.00269,-0.05933,0.40771,0.267,2.672,-0.809
2026-05-20 17:19:06.713,1181086169,106713,2,0.9624,-0.21973,0.23999,5.031,-3.725,-1.13
2026-05-20 17:19:06.913,1181086369,106913,1,1.01636,-0.03101,0.42163,-0.595,2.168,-0.962
2026-05-20 17:19:06.913,1181086369,106913,2,0.9668,-0.21387,0.22192,-1.061,-0.389,0.748
2026-05-20 17:19:07.113,1181086569,107113,1,0.97681,-0.05225,0.43066,14.496,-4.908,1.122
2026-05-20 17:19:07.113,1181086569,107113,2,0.98071,-0.21655,0.26025,-10.191,-11.221,-3.191
2026-05-20 17:19:07.313,1181086769,107313,1,1.05078,0.01807,0.33032,32.473,30.26,10.389
2026-05-20 17:19:07.313,1181086769,107313,2,0.98413,-0.177,0.26611,34.824,23.969,-8.023
2026-05-20 17:19:07.513,1181086969,107513,1,1.01587,-0.01855,0.4812,20.0,56.382,10.687
2026-05-20 17:19:07.513,1181086969,107513,2,0.95117,-0.04858,0.33447,41.656,54.84,-12.076
2026-05-20 17:19:07.713,1181087169,107713,1,0.92505,-0.02002,0.62622,18.427,27.099,3.191
2026-05-20 17:19:07.713,1181087169,107713,2,0.82837,-0.05054,0.66577,-37.298,90.84,-90.252
2026-05-20 17:19:08.968,1181088424,107968,1,0.26221,0.00781,0.57275,4.061,143.504,-3.534
2026-05-20 17:19:08.968,1181088424,107968,2,0.44604,0.30225,0.86011,-15.656,86.893,-59.916
2026-05-20 17:19:08.168,1181087624,108168,1,-0.01831,0.07373,1.34424,-3.099,80.855,-12.519
2026-05-20 17:19:08.168,1181087624,108168,2,0.02539,0.20776,0.98877,-21.29,84.779,-11.504
2026-05-20 17:19:08.368,1181087824,108368,1,-0.13306,0.06201,1.40869,0.664,40.366,-10.641
2026-05-20 17:19:08.368,1181087824,108368,2,-0.10669,0.27783,0.89087,5.672,23.412,-4.198
2026-05-20 17:19:08.708,1181088164,108708,1,-0.05786,0.08838,1.26807,3.74,-8.656,-5.244
2026-05-20 17:19:08.708,1181088164,108708,2,0.15259,0.30664,0.91016,-5.008,-69.855,14.939
2026-05-20 17:19:09.997,1181089453,108997,1,0.08472,0.00244,1.15723,-16.351,-61.656,-0.771
2026-05-20 17:19:09.997,1181089453,108997,2,0.32373,0.23706,0.78198,-2.504,-71.366,37.443
2026-05-20 17:19:09.197,1181088653,109197,1,0.31665,0.02271,0.96924,4.908,-97.405,-10.382
2026-05-20 17:19:09.197,1181088653,109197,2,0.65747,0.22754,0.69824,-13.351,-86.58,28.145
2026-05-20 17:19:09.397,1181088853,109397,1,0.64673,0.04468,0.69409,-0.511,-89.534,-9.092
2026-05-20 17:19:09.397,1181088853,109397,2,0.86353,0.06567,0.41406,-25.878,-73.336,39.038
2026-05-20 17:19:09.597,1181089053,109597,1,0.8689,0.01514,0.51099,-5.023,-57.733,1.015
2026-05-20 17:19:09.597,1181089053,109597,2,1.06641,-0.07861,0.26099,20.412,-36.664,30.962
2026-05-20 17:19:09.797,1181089253,109797,1,1.01025,0.02197,0.3811,-5.084,-22.565,0.641
2026-05-20 17:19:09.797,1181089253,109797,2,1.00928,-0.13721,0.24219,2.145,-18.954,11.771
2026-05-20 17:19:10.997,1181090453,109997,1,1.00977,-0.01465,0.42725,-4.748,3.565,-0.206
2026-05-20 17:19:10.997,1181090453,109997,2,0.99219,-0.16016,0.22559,-2.977,9.046,-2.16
2026-05-20 17:19:10.197,1181089653,110197,1,1.05273,-0.01343,0.36548,7.023,22.626,-1.0
2026-05-20 17:19:10.197,1181089653,110197,2,1.00684,-0.1665,0.29932,30.412,31.351,-12.84
2026-05-20 17:19:10.397,1181089853,110397,1,0.91504,-0.00781,0.43408,7.725,82.763,10.092
2026-05-20 17:19:10.397,1181089853,110397,2,0.83936,-0.03516,0.49341,56.061,103.42,-43.206
2026-05-20 17:19:10.597,1181090053,110597,1,0.51855,0.00391,0.76855,-2.511,115.489,-1.489
2026-05-20 17:19:10.597,1181090053,110597,2,0.67651,0.23169,0.60059,2.779,75.794,-45.237
2026-05-20 17:19:10.797,1181090253,110797,1,0.18384,0.06006,1.03101,11.489,84.122,-8.061
2026-05-20 17:19:10.797,1181090253,110797,2,0.39282,0.23291,0.89819,-46.458,58.13,-54.374
2026-05-20 17:19:11.997,1181091453,110997,1,0.11279,0.05151,1.1626,10.527,41.046,-11.458
2026-05-20 17:19:11.997,1181091453,110997,2,0.11621,0.31274,0.896,-22.847,46.374,-30.511
2026-05-20 17:19:11.267,1181090723,111267,1,-0.12061,0.00732,1.15381,3.878,21.45,0.153
2026-05-20 17:19:11.267,1181090723,111267,2,0.02002,0.302,0.87793,0.13,25.198,-14.802
2026-05-20 17:19:11.467,1181090923,111467,1,-0.26611,0.12231,1.23242,0.244,29.099,-6.031
2026-05-20 17:19:11.467,1181090923,111467,2,-0.06592,0.28027,0.92554,4.344,-16.542,4.809
2026-05-20 17:19:11.667,1181091123,111667,1,-0.17896,0.09937,1.2666,10.893,-58.748,4.214
2026-05-20 17:19:11.667,1181091123,111667,2,0.16724,0.31177,0.92432,7.908,-77.0,34.382
2026-05-20 17:19:11.867,1181091323,111867,1,0.12915,0.05859,1.0415,-3.878,-87.611,14.588
2026-05-20 17:19:11.867,1181091323,111867,2,0.56201,0.26294,0.66675,-10.931,-105.298,62.176
2026-05-20 17:19:12.067,1181091523,112067,1,0.49536,0.1377,0.75879,-26.725,-112.534,8.412
2026-05-20 17:19:12.067,1181091523,112067,2,0.80713,0.01147,0.45947,-77.74,-93.992,47.954
2026-05-20 17:19:12.268,1181091724,112268,1,0.77368,-0.0061,0.56104,-33.031,-96.771,-8.565
2026-05-20 17:19:12.268,1181091724,112268,2,0.95068,-0.14258,0.32275,-55.863,-71.237,24.817
2026-05-20 17:19:12.473,1181091929,112473,1,1.03979,-0.07813,0.35986,-9.534,-41.992,-10.069
2026-05-20 17:19:12.473,1181091929,112473,2,1.01147,-0.28174,0.24194,-18.198,-21.336,12.191
2026-05-20 17:19:12.673,1181092129,112673,1,1.05103,-0.06519,0.32007,-0.992,-14.87,-3.351
2026-05-20 17:19:12.673,1181092129,112673,2,0.98364,-0.28809,0.13354,6.626,-1.107,2.725
2026-05-20 17:19:13.201,1181092657,113201,1,1.02051,-0.05054,0.35498,-4.794,3.191,1.046
2026-05-20 17:19:13.201,1181092657,113201,2,0.95703,-0.2561,0.16211,0.992,0.947,-0.107
2026-05-20 17:19:13.417,1181092873,113417,1,1.03296,-0.05981,0.35327,2.427,3.42,1.626
2026-05-20 17:19:13.417,1181092873,113417,2,0.97803,-0.25146,0.15405,-1.168,-3.145,2.389
2026-05-20 17:19:13.617,1181093073,113617,1,1.02808,-0.052,0.35229,2.237,1.565,-1.931
2026-05-20 17:19:13.617,1181093073,113617,2,0.96484,-0.25879,0.13257,-1.168,0.794,-0.656
2026-05-20 17:19:13.817,1181093273,113817,1,1.02686,-0.0459,0.33179,1.16,0.817,-1.527
2026-05-20 17:19:13.817,1181093273,113817,2,0.97949,-0.24316,0.16138,-0.435,-1.29,-0.336
2026-05-20 17:19:14.017,1181093473,114017,1,1.0249,-0.05127,0.35156,-1.046,2.45,-0.42
2026-05-20 17:19:14.017,1181093473,114017,2,0.98584,-0.25439,0.16626,1.061,2.061,-1.916
2026-05-20 17:19:14.217,1181093673,114217,1,1.01563,-0.05908,0.36426,1.382,4.298,0.351
2026-05-20 17:19:14.217,1181093673,114217,2,0.96826,-0.24414,0.15967,3.679,2.565,-0.985
2026-05-20 17:19:14.417,1181093873,114417,1,0.98242,-0.07251,0.38281,5.916,-4.107,-5.198
2026-05-20 17:19:14.417,1181093873,114417,2,1.00073,-0.23853,0.17505,-6.992,-6.45,-3.305
2026-05-20 17:19:14.617,1181094073,114617,1,1.06128,-0.00806,0.30713,18.863,21.939,3.29
2026-05-20 17:19:14.617,1181094073,114617,2,1.00684,-0.25586,0.16333,28.634,21.076,-8.931
2026-05-20 17:19:14.817,1181094273,114817,1,1.03271,-0.02686,0.33105,14.649,41.908,8.389
2026-05-20 17:19:14.817,1181094273,114817,2,0.98462,-0.14941,0.34326,32.015,36.985,-20.618
2026-05-20 17:19:15.017,1181094473,115017,1,0.80518,-0.01416,0.43042,21.702,92.947,11.725
2026-05-20 17:19:15.017,1181094473,115017,2,0.91064,0.54956,0.31079,-76.809,98.252,-172.458
2026-05-20 17:19:15.217,1181094673,115217,1,0.31958,0.00928,0.72485,20.389,147.924,13.557
2026-05-20 17:19:15.217,1181094673,115217,2,0.42993,0.33398,0.65845,-10.809,117.023,-55.656
2026-05-20 17:19:15.417,1181094873,115417,1,-0.05859,0.08984,1.29907,1.504,81.87,-3.435
2026-05-20 17:19:15.417,1181094873,115417,2,-0.04639,0.15015,0.95142,-16.641,83.198,-4.328
2026-05-20 17:19:15.617,1181095073,115617,1,-0.19775,-0.0144,1.25024,-3.763,22.763,5.435
2026-05-20 17:19:15.617,1181095073,115617,2,-0.05225,0.29907,0.98633,1.565,6.084,1.198
2026-05-20 17:19:15.817,1181095273,115817,1,-0.146,0.00903,1.23755,-16.588,-16.053,-3.702
2026-05-20 17:19:15.817,1181095273,115817,2,0.07275,0.11597,0.93652,2.534,-20.809,4.046
2026-05-20 17:19:16.017,1181095473,116017,1,-0.07959,0.04297,1.37866,19.748,-5.099,-5.053
2026-05-20 17:19:16.017,1181095473,116017,2,0.07617,0.28662,0.94141,9.015,-38.298,19.687
2026-05-20 17:19:16.217,1181095673,116217,1,0.0564,0.07471,1.04614,-1.252,-82.618,-2.55
2026-05-20 17:19:16.217,1181095673,116217,2,0.33716,0.24756,0.73242,-11.565,-87.351,36.45
2026-05-20 17:19:16.417,1181095873,116417,1,0.35376,0.0376,0.96704,3.084,-92.794,-0.992
2026-05-20 17:19:16.417,1181095873,116417,2,0.63989,0.2229,0.66772,-15.985,-87.443,32.687
2026-05-20 17:19:16.617,1181096073,116617,1,0.70483,0.03589,0.65967,-2.16,-85.641,2.298
2026-05-20 17:19:16.617,1181096073,116617,2,0.90771,0.04321,0.3877,-7.183,-76.893,49.634
2026-05-20 17:19:16.817,1181096273,116817,1,0.93994,0.00244,0.41235,-17.336,-60.763,-5.916
2026-05-20 17:19:16.817,1181096273,116817,2,0.89233,-0.07739,0.21704,-21.534,-58.679,32.16
2026-05-20 17:19:17.060,1181096516,117060,1,1.01636,0.00781,0.34497,-8.71,-15.359,-4.359
2026-05-20 17:19:17.060,1181096516,117060,2,0.99731,-0.19141,0.18579,-5.389,-5.84,1.817
2026-05-20 17:19:17.403,1181096859,117403,1,0.9895,-0.03638,0.4209,0.824,6.618,-1.168
2026-05-20 17:19:17.403,1181096859,117403,2,0.98242,-0.18579,0.22949,4.183,-2.313,-5.328
2026-05-20 17:19:17.603,1181097059,117603,1,1.13379,0.01172,0.3064,18.511,33.328,8.313
2026-05-20 17:19:17.603,1181097059,117603,2,1.03711,-0.08667,0.44922,56.901,56.947,-20.962
2026-05-20 17:19:17.884,1181097340,117884,1,0.62402,0.08521,0.67896,10.221,123.122,9.863
2026-05-20 17:19:17.884,1181097340,117884,2,0.64355,0.22241,0.47778,35.008,81.328,-38.855
2026-05-20 17:19:18.084,1181097540,118084,1,0.24487,-0.00122,1.09229,6.771,99.328,-3.229
2026-05-20 17:19:18.084,1181097540,118084,2,0.39087,0.323,0.8938,27.26,75.863,-22.557
2026-05-20 17:19:18.284,1181097740,118284,1,0.03711,0.05786,1.17334,-0.176,56.275,-2.962
2026-05-20 17:19:18.284,1181097740,118284,2,0.21484,0.34106,0.87354,-18.542,34.183,-18.534
2026-05-20 17:19:18.484,1181097940,118484,1,-0.00171,0.02563,1.14966,2.42,33.542,-11.046
2026-05-20 17:19:18.484,1181097940,118484,2,0.07202,0.30811,0.95508,-7.351,14.519,-13.359
2026-05-20 17:19:18.908,1181098364,118908,1,-0.19336,-0.01489,1.18896,-9.351,-29.351,-0.947
2026-05-20 17:19:18.908,1181098364,118908,2,-0.04443,0.29126,1.00415,6.573,-10.115,-2.313
2026-05-20 17:19:19.108,1181098564,119108,1,-0.09131,0.12671,1.36792,8.977,-63.023,0.015
2026-05-20 17:19:19.108,1181098564,119108,2,0.1394,0.34692,0.92993,28.733,-77.916,30.74
2026-05-20 17:19:19.308,1181098764,119308,1,0.15796,0.1145,0.92383,-8.771,-102.45,-8.695
2026-05-20 17:19:19.308,1181098764,119308,2,0.58179,0.07422,0.63013,-58.542,-116.13,53.328
2026-05-20 17:19:19.538,1181098994,119537,1,0.59521,0.04248,0.7312,-17.267,-105.443,3.015
2026-05-20 17:19:19.538,1181098994,119537,2,0.97437,-0.14844,0.32739,-60.947,-86.885,24.099
2026-05-20 17:19:19.824,1181099280,119824,1,0.99585,-0.09839,0.27515,-21.382,-65.588,-2.947
2026-05-20 17:19:19.824,1181099280,119824,2,1.06592,-0.19629,0.17944,-29.779,-19.947,25.137
2026-05-20 17:19:20.024,1181099480,120024,1,1.10767,-0.08569,0.23047,-7.702,-15.061,-6.053
2026-05-20 17:19:20.024,1181099480,120024,2,1.01978,-0.25488,0.1311,-24.458,-8.832,0.519
2026-05-20 17:19:20.224,1181099680,120224,1,1.0293,-0.02148,0.3291,-1.107,2.45,-6.824
2026-05-20 17:19:20.224,1181099680,120224,2,0.97192,-0.23926,0.14258,13.031,1.855,-6.901
2026-05-20 17:19:20.424,1181099880,120424,1,1.02734,-0.04956,0.34302,5.71,3.397,4.725
2026-05-20 17:19:20.424,1181099880,120424,2,0.97852,-0.21924,0.14795,9.13,-0.618,3.916
2026-05-20 17:19:20.624,1181100080,120624,1,1.03394,-0.05005,0.3313,4.962,4.137,2.076
2026-05-20 17:19:20.624,1181100080,120624,2,0.97607,-0.21753,0.16138,5.74,6.71,1.366
2026-05-20 17:19:20.824,1181100280,120824,1,1.02832,-0.06055,0.33667,2.191,2.344,2.092
2026-05-20 17:19:20.824,1181100280,120824,2,0.98608,-0.21094,0.14209,2.374,1.115,2.397
2026-05-20 17:19:21.024,1181100480,121024,1,1.02271,-0.0647,0.32983,-3.008,-1.481,-2.504
2026-05-20 17:19:21.024,1181100480,121024,2,1.00171,-0.22754,0.14771,7.756,1.824,1.595
2026-05-20 17:19:21.452,1181100908,121452,1,0.99268,-0.06323,0.38062,4.252,-0.084,-4.931
2026-05-20 17:19:21.452,1181100908,121452,2,0.99683,-0.26953,0.17017,6.145,-4.275,-5.321
2026-05-20 17:19:21.670,1181101126,121670,1,1.06372,0.0022,0.27563,24.107,25.924,9.206
2026-05-20 17:19:21.670,1181101126,121670,2,1.02856,-0.20337,0.19214,43.748,32.427,-10.649
2026-05-20 17:19:21.870,1181101326,121870,1,1.04907,-0.01465,0.21313,22.542,88.611,11.405
2026-05-20 17:19:21.870,1181101326,121870,2,0.91211,-0.12451,0.2041,93.595,142.641,-78.954
2026-05-20 17:19:22.070,1181101526,122070,1,0.23145,-0.13721,0.57715,20.947,121.794,8.901
2026-05-20 17:19:22.070,1181101526,122070,2,0.17505,0.13989,0.37793,-1.802,100.359,-74.168
2026-05-20 17:19:22.270,1181101726,122270,1,0.37842,0.0498,1.19604,10.427,21.053,-6.969
2026-05-20 17:19:22.270,1181101726,122270,2,0.48242,0.2334,0.88281,-25.435,17.626,-0.244
2026-05-20 17:19:22.470,1181101926,122470,1,0.51074,-0.03027,1.17896,4.328,-61.763,-3.947
2026-05-20 17:19:22.470,1181101926,122470,2,0.72266,0.20386,0.80542,-1.435,-71.023,25.366
2026-05-20 17:19:22.670,1181102126,122670,1,0.93701,0.21484,0.77563,23.237,-103.275,10.206
2026-05-20 17:19:22.670,1181102126,122670,2,1.00928,0.21558,0.83911,-27.183,-35.084,17.672
2026-05-20 17:19:22.870,1181102326,122870,1,1.37915,0.14063,0.89746,-27.901,76.298,7.817
2026-05-20 17:19:22.870,1181102326,122870,2,1.10498,0.05737,0.56201,-8.55,112.443,-42.046
2026-05-20 17:19:23.070,1181102526,123070,1,0.69727,0.0188,0.9856,-0.519,21.748,-1.672
2026-05-20 17:19:23.070,1181102526,123070,2,0.76855,0.14404,0.70996,-5.466,-57.794,0.748
2026-05-20 17:19:23.270,1181102726,123270,1,0.67969,-0.02979,0.96729,-5.382,-9.313,1.763
2026-05-20 17:19:23.270,1181102726,123270,2,0.57056,0.06421,0.56201,11.702,9.718,30.74
2026-05-20 17:19:23.470,1181102926,123470,1,0.32251,0.01221,0.56787,4.405,-50.74,-6.023
2026-05-20 17:19:23.470,1181102926,123470,2,0.39746,0.00537,0.17871,-26.145,-93.015,48.008
2026-05-20 17:19:23.670,1181103126,123670,1,1.05933,0.02173,0.40356,-5.145,-52.695,12.374
2026-05-20 17:19:23.670,1181103126,123670,2,0.98901,0.04077,0.2085,4.878,26.824,24.748
2026-05-20 17:19:23.870,1181103326,123870,1,1.03687,-0.01831,0.45386,-5.641,-20.115,-5.489
2026-05-20 17:19:23.870,1181103326,123870,2,0.99683,-0.06738,0.35107,-14.87,-58.74,6.74
2026-05-20 17:19:24.070,1181103526,124070,1,1.02905,-0.04297,0.39233,-0.84,7.16,1.076
2026-05-20 17:19:24.070,1181103526,124070,2,0.98608,-0.12939,0.22461,-14.45,-15.183,-1.519
2026-05-20 17:19:24.270,1181103726,124270,1,1.03564,-0.07178,0.39526,4.374,10.466,-2.511
2026-05-20 17:19:24.270,1181103726,124270,2,0.96436,-0.13306,0.27124,13.008,20.618,-3.641
2026-05-20 17:19:24.470,1181103926,124470,1,1.06152,-0.04736,0.44116,7.824,22.099,-2.038
2026-05-20 17:19:24.470,1181103926,124470,2,0.92578,-0.07861,0.42334,22.359,33.58,-11.664
2026-05-20 17:19:24.670,1181104126,124670,1,0.62402,0.01807,0.59106,9.115,45.427,-0.542
2026-05-20 17:19:24.670,1181104126,124670,2,0.60205,0.06152,0.39966,70.115,79.924,8.046
2026-05-20 17:19:24.870,1181104326,124870,1,0.66113,0.05615,0.67871,26.031,-28.649,4.183
2026-05-20 17:19:24.870,1181104326,124870,2,0.81738,-0.02954,0.46704,-12.443,-48.046,13.679
2026-05-20 17:19:25.070,1181104526,125070,1,1.00073,0.10107,0.61621,-0.16,-9.16,3.511
2026-05-20 17:19:25.070,1181104526,125070,2,0.94165,0.0376,0.56323,-3.359,20.87,5.824
2026-05-20 17:19:25.270,1181104726,125270,1,1.26685,0.01416,0.56274,2.718,-13.664,-1.649
2026-05-20 17:19:25.270,1181104726,125270,2,1.1665,-0.05981,0.69751,-14.534,-19.763,-0.634
2026-05-20 17:19:25.470,1181104926,125470,1,1.0,-0.00122,0.64307,-4.641,17.992,-6.748
2026-05-20 17:19:25.470,1181104926,125470,2,0.96948,-0.0249,0.52246,-1.076,-2.672,-9.313
2026-05-20 17:19:25.670,1181105126,125670,1,0.81738,-0.0061,0.83423,3.443,-2.321,0.595
2026-05-20 17:19:25.670,1181105126,125670,2,0.8855,0.07568,0.59668,16.443,1.748,4.321
2026-05-20 17:19:25.870,1181105326,125870,1,1.34863,-0.01611,0.78125,-25.908,49.588,-2.924
2026-05-20 17:19:25.870,1181105326,125870,2,0.76953,0.12451,0.72144,20.16,-67.672,6.87
2026-05-20 17:19:26.435,1181105891,126435,1,0.63916,-0.02759,0.43237,-6.298,-43.0,5.71
2026-05-20 17:19:26.435,1181105891,126435,2,0.62451,-0.01953,0.3667,-64.985,-30.641,7.847
2026-05-20 17:19:26.643,1181106099,126642,1,0.83838,-0.0874,0.42163,-27.443,-30.412,-16.664
2026-05-20 17:19:26.643,1181106099,126642,2,0.85132,-0.19238,0.26685,-5.756,-43.191,14.191
2026-05-20 17:19:26.842,1181106298,126842,1,1.1023,-0.04028,0.39429,-13.008,2.252,-20.427
2026-05-20 17:19:26.842,1181106298,126842,2,0.98853,-0.08618,0.14673,47.771,15.092,40.069
2026-05-20 17:19:27.042,1181106498,127042,1,1.08374,-0.0564,0.354,-0.74,-8.916,-2.58
2026-05-20 17:19:27.042,1181106498,127042,2,0.98315,-0.24365,0.25098,-48.198,-21.954,6.702
2026-05-20 17:19:27.242,1181106698,127242,1,1.04883,-0.04517,0.32983,-1.733,6.519,3.061
2026-05-20 17:19:27.242,1181106698,127242,2,0.97998,-0.27417,0.17627,-28.901,-14.466,0.031
2026-05-20 17:19:27.442,1181106898,127442,1,1.00659,-0.06665,0.34399,0.74,10.641,3.443
2026-05-20 17:19:27.442,1181106898,127442,2,0.95703,-0.25903,0.16187,0.595,9.382,4.504
2026-05-20 17:19:27.642,1181107098,127642,1,1.01587,-0.05811,0.36768,5.008,2.443,1.985
2026-05-20 17:19:27.642,1181107098,127642,2,0.9668,-0.23608,0.19434,8.237,9.992,4.099
2026-05-20 17:19:27.842,1181107298,127842,1,1.01147,-0.0542,0.39624,5.206,0.275,2.252
2026-05-20 17:19:27.842,1181107298,127842,2,0.97461,-0.23877,0.20068,1.794,1.55,4.359
2026-05-20 17:19:28.042,1181107498,128042,1,1.01416,-0.07104,0.38062,2.809,-1.252,0.87
2026-05-20 17:19:28.042,1181107498,128042,2,0.9624,-0.23169,0.17578,-6.389,-5.397,1.519
2026-05-20 17:19:28.242,1181107698,128242,1,1.06616,-0.08691,0.29102,11.672,0.359,-9.122
2026-05-20 17:19:28.242,1181107698,128242,2,1.02344,-0.25269,0.21582,22.496,-2.191,-4.863
2026-05-20 17:19:28.442,1181107898,128442,1,1.11108,-0.0127,0.25732,19.565,39.344,8.969
2026-05-20 17:19:28.442,1181107898,128442,2,1.03296,-0.17065,0.37085,45.992,37.229,-27.832
2026-05-20 17:19:28.642,1181108098,128642,1,0.56763,0.00464,0.33691,35.237,111.145,12.313
2026-05-20 17:19:28.642,1181108098,128642,2,0.54565,0.01123,-0.00171,5.527,166.389,-37.885
2026-05-20 17:19:28.842,1181108298,128842,1,0.2749,0.07324,0.83154,16.115,60.802,-2.198
2026-05-20 17:19:28.842,1181108298,128842,2,0.47852,0.12866,0.39551,-4.908,1.748,-9.679
2026-05-20 17:19:29.042,1181108498,129042,1,0.48608,0.17285,1.18579,-5.847,-14.198,4.489
2026-05-20 17:19:29.042,1181108498,129042,2,0.65308,0.10327,0.73975,-32.855,-60.664,22.626
2026-05-20 17:19:29.242,1181108698,129242,1,0.77441,0.0896,1.07153,-0.168,-75.198,-5.985
2026-05-20 17:19:29.242,1181108698,129242,2,0.99243,0.11792,0.85645,-35.45,-56.802,17.45
2026-05-20 17:19:29.442,1181108898,129442,1,1.36572,-0.08228,0.77637,17.29,-31.145,-4.374
2026-05-20 17:19:29.442,1181108898,129442,2,1.49292,0.02759,0.95142,26.878,-32.153,6.527
2026-05-20 17:19:29.642,1181109098,129642,1,0.80835,0.04517,1.08643,-5.481,44.718,-10.863
2026-05-20 17:19:29.642,1181109098,129642,2,0.80151,0.09058,0.57593,39.275,28.802,10.725
2026-05-20 17:19:29.842,1181109298,129842,1,0.74927,0.02905,0.97852,-9.0,-7.427,-1.733
2026-05-20 17:19:29.842,1181109298,129842,2,0.85718,0.09692,0.68506,22.901,22.756,-2.977
2026-05-20 17:19:30.042,1181109498,130042,1,0.66943,0.07544,0.72827,-21.885,-23.366,-12.221
2026-05-20 17:19:30.042,1181109498,130042,2,0.58765,0.04224,0.3855,-49.84,-47.832,0.573
2026-05-20 17:19:30.242,1181109698,130242,1,0.43726,0.02026,0.45093,-18.244,-39.878,-15.427
2026-05-20 17:19:30.242,1181109698,130242,2,0.96948,-0.11279,0.44922,-75.489,-110.412,5.84
2026-05-20 17:19:30.442,1181109898,130442,1,1.20117,-0.00195,0.43042,-0.824,-10.031,-4.176
2026-05-20 17:19:30.442,1181109898,130442,2,0.85449,-0.26733,0.37646,47.206,59.656,-10.405
2026-05-20 17:19:30.642,1181110098,130642,1,0.97925,0.05054,0.53857,-6.756,1.084,1.634
2026-05-20 17:19:30.642,1181110098,130642,2,1.01904,-0.2395,0.3457,-7.893,22.885,-3.45
2026-05-20 17:19:30.842,1181110298,130842,1,0.93042,-0.01025,0.54492,6.176,11.489,5.031
2026-05-20 17:19:30.842,1181110298,130842,2,0.95801,-0.1355,0.3269,-21.198,-17.832,-3.389
2026-05-20 17:19:31.042,1181110498,131042,1,1.01855,-0.01978,0.47803,11.489,18.519,0.58
2026-05-20 17:19:31.042,1181110498,131042,2,0.90967,-0.11743,0.4292,39.282,45.649,-35.305
2026-05-20 17:19:31.362,1181110818,131362,1,0.33276,0.09961,0.70337,17.168,61.023,17.954
2026-05-20 17:19:31.362,1181110818,131362,2,0.67749,0.01221,0.51221,-17.183,-35.267,3.496
2026-05-20 17:19:31.562,1181111018,131562,1,0.65112,0.09106,0.78369,6.42,-0.153,7.122
2026-05-20 17:19:31.562,1181111018,131562,2,0.77637,0.19678,0.47632,21.458,26.595,4.351
2026-05-20 17:19:31.762,1181111218,131762,1,0.93823,0.0144,0.91748,-0.008,-31.893,5.015
2026-05-20 17:19:31.762,1181111218,131762,2,1.07349,0.08716,0.68164,-14.305,-48.542,13.71
2026-05-20 17:19:32.962,1181112418,131962,1,1.13403,-0.03149,0.65381,4.405,-20.389,-3.229
2026-05-20 17:19:32.962,1181112418,131962,2,1.05566,-0.01758,0.61792,24.802,-7.198,24.405
2026-05-20 17:19:32.162,1181111618,132162,1,1.03174,-0.0144,0.68457,10.763,3.305,4.649
2026-05-20 17:19:32.162,1181111618,132162,2,1.03882,0.00513,0.75146,17.779,-29.122,24.901
2026-05-20 17:19:32.362,1181111818,132362,1,1.24316,-0.15552,0.70923,-12.29,44.641,0.71
2026-05-20 17:19:32.362,1181111818,132362,2,0.98462,0.05054,0.66577,-16.321,110.206,-52.275
2026-05-20 17:19:32.562,1181112018,132562,1,0.84839,0.03613,0.99731,6.885,-4.84,-14.168
2026-05-20 17:19:32.562,1181112018,132562,2,0.8208,0.16064,0.6853,-22.794,-59.748,-10.023
2026-05-20 17:19:32.762,1181112218,132762,1,0.74414,0.1084,0.67041,-13.947,1.038,-1.824
2026-05-20 17:19:32.762,1181112218,132762,2,0.56812,0.14819,0.4043,-24.878,8.084,11.511
2026-05-20 17:19:33.962,1181113418,132962,1,0.50732,0.01294,0.55908,-33.275,-28.855,-3.275
2026-05-20 17:19:33.962,1181113418,132962,2,0.48657,0.03125,0.34937,-42.206,-56.71,18.183
2026-05-20 17:19:33.162,1181112618,133162,1,0.89795,-0.05493,0.56128,-38.878,-44.84,-12.481
2026-05-20 17:19:33.162,1181112618,133162,2,0.99658,-0.17773,0.32813,-24.145,-19.855,8.908
2026-05-20 17:19:33.367,1181112823,133367,1,0.97241,-0.05884,0.38647,-4.511,-21.313,-7.901
2026-05-20 17:19:33.367,1181112823,133367,2,0.95166,-0.27368,0.23975,-24.153,-27.565,11.511
2026-05-20 17:19:33.567,1181113023,133567,1,1.04102,-0.0332,0.32397,-3.885,-8.237,-2.626
2026-05-20 17:19:33.567,1181113023,133567,2,0.96753,-0.22607,0.21265,4.511,9.863,6.489
2026-05-20 17:19:33.767,1181113223,133767,1,1.01758,-0.08691,0.36597,-7.275,2.42,0.855
2026-05-20 17:19:33.767,1181113223,133767,2,0.94678,-0.29492,0.19189,-0.412,4.786,3.252
2026-05-20 17:19:34.967,1181114423,133967,1,1.02124,-0.07031,0.32935,3.015,-1.969,-0.015
2026-05-20 17:19:34.967,1181114423,133967,2,0.98169,-0.25732,0.18677,-0.359,1.115,-1.069
2026-05-20 17:19:34.167,1181113623,134167,1,1.02051,-0.05151,0.33911,-0.664,5.107,-2.679
2026-05-20 17:19:34.167,1181113623,134167,2,0.9563,-0.25098,0.17627,1.092,1.565,0.992
2026-05-20 17:19:34.367,1181113823,134367,1,1.02417,-0.04492,0.35718,1.115,2.328,-0.198
2026-05-20 17:19:34.367,1181113823,134367,2,0.96216,-0.25024,0.20068,-0.954,0.992,1.191
2026-05-20 17:19:34.567,1181114023,134567,1,1.02661,-0.05054,0.38623,3.817,1.656,3.153
2026-05-20 17:19:34.567,1181114023,134567,2,0.95801,-0.24414,0.20752,3.611,0.427,1.244
2026-05-20 17:19:34.767,1181114223,134767,1,1.104,-0.104,0.23315,14.824,-3.069,-13.519
2026-05-20 17:19:34.767,1181114223,134767,2,0.99487,-0.28442,0.22803,19.45,-5.893,-11.863
2026-05-20 17:19:35.967,1181115423,134967,1,1.03296,-0.00684,0.33032,20.053,16.725,7.901
2026-05-20 17:19:35.967,1181115423,134967,2,0.98608,-0.17383,0.25903,9.076,5.611,-9.321
2026-05-20 17:19:35.167,1181114623,135167,1,0.96606,-0.04175,0.46143,14.511,53.916,7.122
2026-05-20 17:19:35.167,1181114623,135167,2,0.90991,-0.12109,0.34375,37.29,66.672,-19.595
2026-05-20 17:19:35.367,1181114823,135367,1,0.94873,-0.05005,0.34595,9.763,80.71,-4.481
2026-05-20 17:19:35.367,1181114823,135367,2,0.89038,-0.01855,0.6167,46.542,108.275,-60.221
2026-05-20 17:19:35.567,1181115023,135567,1,0.13745,0.05664,0.8208,21.992,163.305,-10.901
2026-05-20 17:19:35.567,1181115023,135567,2,0.479,0.22852,0.59912,14.206,109.939,-59.42
2026-05-20 17:19:35.767,1181115223,135767,1,-0.00488,0.13525,1.3147,0.435,71.649,-7.954
2026-05-20 17:19:35.767,1181115223,135767,2,-0.00635,0.35791,0.84131,-22.237,105.099,-22.779
2026-05-20 17:19:36.967,1181116423,135967,1,-0.18115,0.04736,1.3916,-10.863,34.481,1.076
2026-05-20 17:19:36.967,1181116423,135967,2,-0.09961,0.2832,0.94678,-4.885,11.023,0.305
2026-05-20 17:19:36.201,1181115657,136201,1,-0.0166,0.08008,1.20508,8.588,-28.305,-3.725
2026-05-20 17:19:36.201,1181115657,136201,2,0.09351,0.3186,0.93384,15.84,-22.954,14.756
2026-05-20 17:19:36.469,1181115925,136469,1,0.05371,0.05005,1.06665,-19.275,-44.916,-0.107
2026-05-20 17:19:36.469,1181115925,136469,2,0.25903,0.30542,0.79224,-6.252,-60.031,16.702
2026-05-20 17:19:36.669,1181116125,136669,1,0.17725,0.05518,1.13403,-20.198,-78.397,5.847
2026-05-20 17:19:36.669,1181116125,136669,2,0.4834,0.30127,0.71875,-7.87,-80.29,37.863
2026-05-20 17:19:36.869,1181116325,136869,1,0.57007,0.03589,0.80713,-0.733,-97.328,-7.107
2026-05-20 17:19:36.869,1181116325,136869,2,0.79126,0.10693,0.59375,-24.649,-77.252,45.756
2026-05-20 17:19:37.069,1181116525,137069,1,0.82788,0.00391,0.50781,-32.046,-72.947,-4.802
2026-05-20 17:19:37.069,1181116525,137069,2,0.8894,-0.05225,0.5144,-59.878,-55.198,16.794
2026-05-20 17:19:37.269,1181116725,137269,1,0.98657,-0.07715,0.4375,-4.534,-31.695,-4.069
2026-05-20 17:19:37.269,1181116725,137269,2,0.98218,-0.14233,0.34863,-4.679,-17.931,11.84
2026-05-20 17:19:37.469,1181116925,137469,1,0.97876,-0.03564,0.44482,3.267,-0.466,-0.305
2026-05-20 17:19:37.469,1181116925,137469,2,0.98169,-0.14966,0.28369,-0.275,4.298,1.626
2026-05-20 17:19:37.669,1181117125,137669,1,0.98071,-0.0791,0.50684,-0.267,6.366,-2.466
2026-05-20 17:19:37.669,1181117125,137669,2,0.94751,-0.1665,0.28833,3.87,4.244,-0.321
2026-05-20 17:19:37.869,1181117325,137869,1,0.96875,-0.01831,0.5293,17.947,17.786,2.672
2026-05-20 17:19:37.869,1181117325,137869,2,0.95874,-0.12769,0.30029,29.267,11.374,0.397
2026-05-20 17:19:38.069,1181117525,138069,1,0.89453,0.06055,0.58618,32.008,-4.053,2.557
2026-05-20 17:19:38.069,1181117525,138069,2,0.92944,-0.03931,0.2356,-33.176,-2.58,-7.489
2026-05-20 17:19:38.269,1181117725,138269,1,0.90747,0.06372,0.68311,-19.244,-6.634,-7.008
2026-05-20 17:19:38.269,1181117725,138269,2,0.90918,-0.26001,0.33984,-4.748,-11.931,8.603
2026-05-20 17:19:38.469,1181117925,138469,1,0.88306,0.08716,0.58276,29.687,15.351,2.481
2026-05-20 17:19:38.469,1181117925,138469,2,0.93213,-0.08081,0.31934,-14.298,-28.481,10.275
2026-05-20 17:19:38.669,1181118125,138669,1,0.90845,0.0459,0.56079,-3.26,-1.084,0.145
2026-05-20 17:19:38.669,1181118125,138669,2,0.91357,-0.0686,0.4104,-6.473,-2.359,-0.313
2026-05-20 17:19:38.869,1181118325,138869,1,0.93433,0.06274,0.49341,1.397,-2.489,3.55
2026-05-20 17:19:38.869,1181118325,138869,2,0.8833,0.0144,0.30029,-0.214,13.71,0.618
2026-05-20 17:19:39.069,1181118525,139069,1,0.8606,0.07031,0.50098,-7.634,-15.053,-2.305
2026-05-20 17:19:39.069,1181118525,139069,2,0.91138,-0.07593,0.30029,-21.504,-13.26,-7.534
2026-05-20 17:19:39.269,1181118725,139269,1,1.10107,-0.03564,0.37134,-12.565,-12.412,-4.55
2026-05-20 17:19:39.269,1181118725,139269,2,1.06348,-0.12329,0.30347,-21.794,-12.092,-19.321
2026-05-20 17:19:39.469,1181118925,139469,1,1.07031,-0.02368,0.35962,16.695,18.008,-5.305
2026-05-20 17:19:39.469,1181118925,139469,2,0.99658,-0.10083,0.31909,22.237,19.389,1.542
2026-05-20 17:19:39.669,1181119125,139669,1,0.9729,-0.00098,0.42188,-2.847,31.947,-2.969
2026-05-20 17:19:39.669,1181119125,139669,2,0.88159,-0.14111,0.42505,33.397,16.947,3.015
2026-05-20 17:19:39.869,1181119325,139869,1,0.86938,0.09863,0.65356,27.847,17.084,-10.931
2026-05-20 17:19:39.869,1181119325,139869,2,0.90869,0.16675,0.41699,-1.534,25.802,-0.252
2026-05-20 17:19:40.069,1181119525,140069,1,0.94092,0.18433,0.51489,-27.382,9.221,-26.305
2026-05-20 17:19:40.069,1181119525,140069,2,0.91528,0.02344,0.49292,-37.145,21.649,-31.427
2026-05-20 17:19:40.269,1181119725,140269,1,0.90869,0.19946,0.61133,2.695,36.557,14.931
2026-05-20 17:19:40.269,1181119725,140269,2,1.00269,0.0083,0.51465,0.794,23.466,-1.924
2026-05-20 17:19:40.469,1181119925,140469,1,0.81055,0.10474,0.70801,11.267,69.702,20.626
2026-05-20 17:19:40.469,1181119925,140469,2,0.83325,0.1001,0.64087,29.099,69.183,-12.649
2026-05-20 17:19:40.669,1181120125,140669,1,0.37964,-0.02002,0.77319,-13.389,83.702,6.015
2026-05-20 17:19:40.669,1181120125,140669,2,0.47095,0.15503,0.59204,8.847,68.611,-41.427
2026-05-20 17:19:40.869,1181120325,140869,1,0.24731,-0.0166,1.03638,-11.786,59.786,-9.275
2026-05-20 17:19:40.869,1181120325,140869,2,0.24756,0.35083,0.82471,-28.298,38.992,-30.71
2026-05-20 17:19:41.136,1181120592,141136,1,0.06592,0.03735,1.15723,5.496,39.061,-2.763
2026-05-20 17:19:41.136,1181120592,141136,2,0.20605,0.35474,0.85425,-11.695,35.359,-18.527
2026-05-20 17:19:41.336,1181120792,141336,1,0.0022,0.0791,1.17554,0.489,20.397,-3.718
2026-05-20 17:19:41.336,1181120792,141336,2,0.08569,0.32397,0.88623,-4.153,13.992,-9.168
2026-05-20 17:19:41.536,1181120992,141536,1,-0.01807,0.06299,1.13403,1.145,23.366,-4.977
2026-05-20 17:19:41.536,1181120992,141536,2,-0.06641,0.2876,1.02197,-4.137,10.229,-15.58
2026-05-20 17:19:41.736,1181121192,141736,1,-0.21143,0.07861,1.27759,-0.664,-16.137,-3.573
2026-05-20 17:19:41.736,1181121192,141736,2,-0.14868,0.30835,0.9541,-7.031,-36.511,-1.908
2026-05-20 17:19:42.936,1181122392,141936,1,-0.07397,0.11694,1.30371,12.565,-45.733,-3.229
2026-05-20 17:19:42.936,1181122392,141936,2,0.06348,0.3606,0.93848,20.71,-56.038,21.832
2026-05-20 17:19:42.136,1181121592,142136,1,0.14258,0.14453,1.13306,-4.779,-93.84,-4.023
2026-05-20 17:19:42.136,1181121592,142136,2,0.55225,0.25562,0.65576,-38.26,-94.115,43.42
2026-05-20 17:19:42.428,1181121884,142428,1,0.61523,0.08887,0.67627,-43.74,-96.878,-14.763
2026-05-20 17:19:42.428,1181121884,142428,2,0.80396,0.01221,0.44873,-81.626,-88.031,41.176
2026-05-20 17:19:42.628,1181122084,142628,1,0.95752,-0.05908,0.37402,-48.275,-73.687,-20.42
2026-05-20 17:19:42.628,1181122084,142628,2,0.95508,-0.22217,0.28345,-27.298,-25.351,30.687
2026-05-20 17:19:42.828,1181122284,142828,1,1.08374,-0.0769,0.30273,-19.74,-30.924,-8.939
2026-05-20 17:19:42.828,1181122284,142828,2,1.01636,-0.3186,0.18945,-20.092,-19.015,8.687
2026-05-20 17:19:43.028,1181122484,143028,1,1.05371,-0.08862,0.31299,6.252,2.046,1.771
2026-05-20 17:19:43.028,1181122484,143028,2,0.95361,-0.31592,0.15771,8.42,7.817,-0.679
2026-05-20 17:19:43.228,1181122684,143228,1,1.01001,-0.08154,0.35596,7.939,9.756,1.901
2026-05-20 17:19:43.228,1181122684,143228,2,0.94922,-0.28491,0.13086,8.397,-3.489,-0.916
2026-05-20 17:19:43.432,1181122888,143432,1,1.01709,-0.06738,0.37598,9.115,-0.618,-2.405
2026-05-20 17:19:43.432,1181122888,143432,2,0.95996,-0.27124,0.19751,16.214,-2.656,3.344
2026-05-20 17:19:43.632,1181123088,143632,1,1.02148,-0.02588,0.36523,17.779,1.893,3.359
2026-05-20 17:19:43.632,1181123088,143632,2,0.96924,-0.25342,0.16943,19.557,-0.702,3.557
2026-05-20 17:19:43.832,1181123288,143832,1,1.01611,-0.03149,0.37695,10.954,0.664,3.198
2026-05-20 17:19:43.832,1181123288,143832,2,0.98218,-0.21826,0.19482,1.847,-2.939,-0.908
2026-05-20 17:19:44.032,1181123488,144032,1,1.00903,-0.03467,0.37939,-0.45,2.221,0.176
2026-05-20 17:19:44.032,1181123488,144032,2,0.97437,-0.24756,0.20166,-11.137,-2.313,-1.176
2026-05-20 17:19:44.232,1181123688,144232,1,1.01733,-0.05811,0.38159,-0.832,3.634,1.313
2026-05-20 17:19:44.232,1181123688,144232,2,0.96826,-0.26489,0.18408,2.237,5.542,0.893
2026-05-20 17:19:44.432,1181123888,144432,1,1.00708,-0.0686,0.38892,5.198,1.45,0.962
2026-05-20 17:19:44.432,1181123888,144432,2,0.94067,-0.24805,0.19019,-2.031,-0.191,-1.046
2026-05-20 17:19:44.632,1181124088,144632,1,1.01904,-0.04834,0.37109,6.168,-1.679,1.092
2026-05-20 17:19:44.632,1181124088,144632,2,0.97534,-0.24829,0.1731,2.412,-1.55,1.824
2026-05-20 17:19:44.832,1181124288,144832,1,1.02124,-0.06006,0.36255,1.412,-0.718,0.992
2026-05-20 17:19:44.832,1181124288,144832,2,0.97778,-0.24634,0.16577,-3.115,-0.969,0.855
2026-05-20 17:19:45.032,1181124488,145032,1,1.01465,-0.05298,0.35522,-1.679,0.153,-1.092
2026-05-20 17:19:45.032,1181124488,145032,2,0.98022,-0.24854,0.1665,-2.046,0.176,1.427
2026-05-20 17:19:45.232,1181124688,145232,1,1.01416,-0.05298,0.36157,0.496,-0.382,-1.046
2026-05-20 17:19:45.232,1181124688,145232,2,0.97168,-0.24707,0.16431,-0.817,-1.733,2.061
2026-05-20 17:19:45.432,1181124888,145432,1,1.01929,-0.05591,0.35645,2.107,-0.046,0.565
2026-05-20 17:19:45.432,1181124888,145432,2,0.9751,-0.25781,0.16138,1.664,0.481,0.908
2026-05-20 17:19:45.632,1181125088,145632,1,1.02637,-0.06543,0.354,1.542,1.229,2.275
2026-05-20 17:19:45.632,1181125088,145632,2,0.9729,-0.24805,0.16846,0.977,1.702,1.42
2026-05-20 17:19:45.878,1181125334,145878,1,1.02124,-0.07104,0.36279,1.198,1.695,0.466
2026-05-20 17:19:45.878,1181125334,145878,2,0.97192,-0.25977,0.17163,0.351,1.13,0.023
2026-05-20 17:19:46.146,1181125602,146146,1,1.01563,-0.07568,0.37183,0.466,1.565,-1.924
2026-05-20 17:19:46.146,1181125602,146146,2,0.97852,-0.25024,0.17871,-0.496,0.847,0.863
2026-05-20 17:19:46.346,1181125802,146346,1,1.01758,-0.05566,0.36646,-0.206,1.802,-1.229
2026-05-20 17:19:46.346,1181125802,146346,2,0.97363,-0.24585,0.17407,-0.779,0.656,0.519
2026-05-20 17:19:46.546,1181126002,146546,1,1.01318,-0.06567,0.36133,-3.092,0.405,-1.191
2026-05-20 17:19:46.546,1181126002,146546,2,0.97412,-0.25586,0.18506,-3.687,-0.427,0.771
2026-05-20 17:19:46.746,1181126202,146746,1,1.02051,-0.06396,0.34277,-0.87,0.229,-0.221
2026-05-20 17:19:46.746,1181126202,146746,2,0.97412,-0.25269,0.16431,-3.328,-1.305,0.191
2026-05-20 17:19:47.946,1181127402,146946,1,1.0166,-0.05884,0.35034,-0.718,1.74,-0.702
2026-05-20 17:19:47.946,1181127402,146946,2,0.97876,-0.24902,0.17822,-4.405,1.534,-2.267
2026-05-20 17:19:47.146,1181126602,147146,1,1.02295,-0.05444,0.35742,-1.595,1.214,-1.924
2026-05-20 17:19:47.146,1181126602,147146,2,0.97266,-0.25488,0.1709,-2.58,0.924,-0.802
2026-05-20 17:19:47.346,1181126802,147346,1,1.02222,-0.05029,0.35376,0.824,1.756,-1.298
2026-05-20 17:19:47.346,1181126802,147346,2,0.98877,-0.2417,0.146,0.817,1.16,0.031
2026-05-20 17:19:47.546,1181127002,147546,1,1.03296,-0.05273,0.3479,-0.366,1.779,2.267
2026-05-20 17:19:47.546,1181127002,147546,2,0.979,-0.25195,0.146,0.214,1.603,1.168
2026-05-20 17:19:47.746,1181127202,147746,1,1.01904,-0.05469,0.35571,-1.725,1.313,0.58
2026-05-20 17:19:47.746,1181127202,147746,2,0.97217,-0.24951,0.16333,-3.328,0.557,1.183
2026-05-20 17:19:48.946,1181128402,147946,1,1.01514,-0.06323,0.35718,-0.55,0.977,0.122
2026-05-20 17:19:48.946,1181128402,147946,2,0.9751,-0.25293,0.17505,-2.542,0.031,1.122
2026-05-20 17:19:48.146,1181127602,148146,1,1.01343,-0.0686,0.37207,-1.275,2.122,-0.313
2026-05-20 17:19:48.146,1181127602,148146,2,0.96558,-0.23169,0.15161,-7.58,-1.313,1.313
2026-05-20 17:19:48.346,1181127802,148346,1,1.08203,-0.0708,0.27539,10.16,4.824,-7.435
2026-05-20 17:19:48.346,1181127802,148346,2,1.00879,-0.27686,0.20166,15.947,6.756,-6.641
2026-05-20 17:19:48.546,1181128002,148546,1,1.08228,-0.00537,0.26611,22.26,51.832,17.0
2026-05-20 17:19:48.546,1181128002,148546,2,0.99829,-0.16846,0.35693,53.733,51.893,-19.634
2026-05-20 17:19:48.746,1181128202,148746,1,0.41284,0.00171,0.33081,33.962,149.137,9.794
2026-05-20 17:19:48.746,1181128202,148746,2,0.3606,0.01709,0.13208,21.885,187.733,-49.641
2026-05-20 17:19:49.946,1181129402,148946,1,0.14063,0.05176,1.02124,25.802,65.511,2.71
2026-05-20 17:19:49.946,1181129402,148946,2,0.42139,0.20898,0.55981,-3.435,-12.122,-14.344
2026-05-20 17:19:49.146,1181128602,149146,1,0.38184,0.07666,1.34766,-8.924,-37.198,0.359
2026-05-20 17:19:49.146,1181128602,149146,2,0.67358,0.22559,0.82788,-35.412,-78.954,23.267
2026-05-20 17:19:49.346,1181128802,149346,1,0.97437,0.05615,1.0144,14.298,-77.679,-0.916
2026-05-20 17:19:49.346,1181128802,149346,2,1.0979,0.10986,0.88745,-19.336,-32.458,7.015
2026-05-20 17:19:49.546,1181129002,149546,1,1.11084,-0.04468,0.77222,-15.947,19.855,-11.756
2026-05-20 17:19:49.546,1181129002,149546,2,1.02466,-0.01978,0.91138,2.954,13.183,-5.756
2026-05-20 17:19:49.746,1181129202,149746,1,0.90137,0.00708,0.85205,-16.244,46.733,9.214
2026-05-20 17:19:49.746,1181129202,149746,2,0.7915,0.13892,0.71045,20.985,52.901,-17.473
2026-05-20 17:19:50.946,1181130402,149946,1,0.65283,0.0481,1.16699,-9.313,20.779,-12.626
2026-05-20 17:19:50.946,1181130402,149946,2,0.67212,0.25049,0.82593,10.046,-14.42,1.107
2026-05-20 17:19:50.146,1181129602,150146,1,0.50171,0.06592,0.91479,-8.313,-27.534,-4.015
2026-05-20 17:19:50.146,1181129602,150146,2,0.28516,0.0979,0.37061,-24.542,-48.748,37.023
2026-05-20 17:19:52.796,1181132252,152796,1,0.85571,-0.05176,0.90942,-5.786,10.069,2.817
2026-05-20 17:19:52.796,1181132252,152796,2,0.82178,0.0249,0.61719,-10.344,-31.71,-1.229
2026-05-20 17:19:53.996,1181133452,152996,1,0.83423,-0.0376,0.72388,-9.061,-3.366,-5.107
2026-05-20 17:19:53.996,1181133452,152996,2,0.74048,0.10474,0.55127,-12.847,30.985,-14.29
2026-05-20 17:19:53.196,1181132652,153196,1,1.2832,-0.11157,0.9458,-5.672,14.611,-9.176
2026-05-20 17:19:53.196,1181132652,153196,2,1.31641,0.21289,1.01904,-20.962,-28.313,-29.695
2026-05-20 17:19:53.396,1181132852,153396,1,0.81641,-0.00562,0.96655,9.168,3.863,-13.298
2026-05-20 17:19:53.396,1181132852,153396,2,0.74341,0.13647,0.66504,-6.603,-75.237,3.641
2026-05-20 17:19:53.596,1181133052,153596,1,0.78589,0.09668,0.77588,-5.015,-35.16,7.733
2026-05-20 17:19:53.596,1181133052,153596,2,0.71045,0.09595,0.50708,-16.092,-5.641,26.969
2026-05-20 17:19:53.796,1181133252,153796,1,0.58423,0.01196,0.49023,-29.45,-32.55,-2.359
2026-05-20 17:19:53.796,1181133252,153796,2,0.57739,0.03101,0.32959,-44.534,-48.527,15.573
2026-05-20 17:19:54.996,1181134452,153996,1,0.77368,-0.01147,0.4397,-19.573,-39.038,-8.443
2026-05-20 17:19:54.996,1181134452,153996,2,0.8374,-0.09473,0.28857,-34.863,-43.695,18.656
2026-05-20 17:19:54.196,1181133652,154196,1,1.07568,-0.0354,0.37231,-31.168,-28.366,-13.962
2026-05-20 17:19:54.196,1181133652,154196,2,1.0127,-0.29565,0.19141,-35.466,-14.878,14.092
2026-05-20 17:19:54.396,1181133852,154396,1,1.05469,-0.03711,0.28198,-21.916,-13.588,-7.84
2026-05-20 17:19:54.396,1181133852,154396,2,0.97559,-0.33179,0.2251,-45.221,-27.206,0.061
2026-05-20 17:19:54.596,1181134052,154596,1,1.04297,-0.07617,0.26831,-3.527,5.504,3.351
2026-05-20 17:19:54.596,1181134052,154596,2,0.97192,-0.31177,0.19653,-9.527,-5.267,-2.595
2026-05-20 17:19:54.796,1181134252,154796,1,1.01782,-0.08667,0.32227,8.527,12.122,7.565
2026-05-20 17:19:54.796,1181134252,154796,2,0.94653,-0.27515,0.17749,13.252,18.359,0.702
2026-05-20 17:19:55.996,1181135452,154996,1,1.02783,-0.11914,0.30688,14.122,-9.206,-13.13
2026-05-20 17:19:55.996,1181135452,154996,2,0.99927,-0.28735,0.23755,22.71,0.069,-8.817
2026-05-20 17:19:55.196,1181134652,155196,1,1.03247,0.00464,0.32642,31.496,15.092,12.0
2026-05-20 17:19:55.196,1181134652,155196,2,0.97974,-0.21899,0.21021,12.885,-1.771,-3.679
2026-05-20 17:19:55.396,1181134852,155396,1,1.06226,-0.01733,0.31934,24.924,42.748,8.153
2026-05-20 17:19:55.396,1181134852,155396,2,1.0166,-0.08936,0.37476,50.511,46.45,-19.412
2026-05-20 17:19:55.596,1181135052,155596,1,0.74341,-0.00659,0.19946,28.42,135.985,9.794
2026-05-20 17:19:55.596,1181135052,155596,2,0.76855,-0.04785,0.396,57.122,182.015,-73.718
2026-05-20 17:19:55.796,1181135252,155796,1,0.13574,0.08521,0.90723,28.786,131.771,-7.611
2026-05-20 17:19:55.796,1181135252,155796,2,0.24902,0.30225,0.67627,-24.046,66.763,-61.718
2026-05-20 17:19:56.996,1181136452,155996,1,0.01147,0.13721,1.44092,-13.374,51.511,-5.771
2026-05-20 17:19:56.996,1181136452,155996,2,0.08203,0.42261,1.05054,-9.031,70.809,-13.527
2026-05-20 17:19:56.196,1181135652,156196,1,0.00977,0.08423,1.30811,-8.802,16.092,4.0
2026-05-20 17:19:56.196,1181135652,156196,2,-0.03442,0.29565,0.94849,-0.626,15.489,0.779
2026-05-20 17:19:56.396,1181135852,156396,1,0.03516,-0.07349,1.16333,1.779,-9.954,-5.176
2026-05-20 17:19:56.396,1181135852,156396,2,0.0874,0.31714,0.95093,8.237,-32.87,15.748
2026-05-20 17:19:56.600,1181136056,156600,1,0.15698,0.03931,1.28198,2.916,-18.939,-9.443
2026-05-20 17:19:56.600,1181136056,156600,2,0.22144,0.34814,1.08618,5.412,-44.992,12.45
2026-05-20 17:19:56.800,1181136256,156800,1,0.21509,0.04272,1.22778,-2.649,-38.634,-4.924
2026-05-20 17:19:56.800,1181136256,156800,2,0.28369,0.31104,0.8606,8.557,-46.969,30.023
2026-05-20 17:19:57.000,1181136456,157000,1,0.27271,0.09741,0.95313,-22.695,-92.977,-16.221
2026-05-20 17:19:57.000,1181136456,157000,2,0.729,0.12549,0.50952,-10.992,-95.069,36.275
2026-05-20 17:19:57.232,1181136688,157232,1,0.66211,0.06396,0.54492,-12.687,-83.122,-6.977
2026-05-20 17:19:57.232,1181136688,157232,2,0.88184,0.07764,0.43652,-69.405,-73.618,27.626
2026-05-20 17:19:57.432,1181136888,157432,1,0.94409,0.03687,0.52197,-6.756,-43.321,-6.885
2026-05-20 17:19:57.432,1181136888,157432,2,0.93457,-0.05371,0.33813,-15.969,-28.519,1.053
2026-05-20 17:19:57.632,1181137088,157632,1,1.00513,0.00684,0.41089,5.229,-37.649,-4.58
2026-05-20 17:19:57.632,1181137088,157632,2,0.95996,-0.16943,0.19043,1.603,-31.168,18.397
2026-05-20 17:19:57.832,1181137288,157832,1,1.02295,0.00977,0.33716,3.008,-7.397,2.557
2026-05-20 17:19:57.832,1181137288,157832,2,1.0249,-0.177,0.14893,7.802,5.252,5.145
2026-05-20 17:19:58.032,1181137488,158032,1,1.07544,0.06494,0.30078,2.122,24.695,-0.519
2026-05-20 17:19:58.032,1181137488,158032,2,0.99707,-0.19751,0.22876,24.695,27.885,-8.786
2026-05-20 17:19:58.232,1181137688,158232,1,0.96655,-0.01563,0.31079,9.237,85.229,12.13
2026-05-20 17:19:58.232,1181137688,158232,2,0.93896,0.29688,0.17456,-42.26,81.931,-143.84
2026-05-20 17:19:58.432,1181137888,158432,1,0.46631,0.0979,0.68311,32.26,124.069,22.359
2026-05-20 17:19:58.432,1181137888,158432,2,0.5,0.19336,0.71558,-10.802,42.473,-72.168
2026-05-20 17:19:58.632,1181138088,158632,1,0.29932,0.01343,1.125,3.145,83.076,5.87
2026-05-20 17:19:58.632,1181138088,158632,2,0.50879,0.29492,0.70923,-7.695,83.74,-35.626
2026-05-20 17:19:58.832,1181138288,158832,1,0.073,0.09497,1.18823,-6.603,65.26,-0.977
2026-05-20 17:19:58.832,1181138288,158832,2,0.14795,0.39307,0.94409,14.931,63.656,-7.168
2026-05-20 17:19:59.032,1181138488,159032,1,-0.12183,0.03394,1.23828,2.214,51.305,-2.053
2026-05-20 17:19:59.032,1181138488,159032,2,-0.04565,0.26465,0.93408,-13.031,31.695,-19.74
2026-05-20 17:19:59.232,1181138688,159232,1,-0.20654,0.05176,1.13281,-8.588,-13.534,-1.084
2026-05-20 17:19:59.232,1181138688,159232,2,-0.14404,0.27612,0.93555,-3.176,-17.824,0.015
2026-05-20 17:19:59.432,1181138888,159432,1,-0.19092,0.05688,1.39038,8.137,-44.527,-8.87
2026-05-20 17:19:59.432,1181138888,159432,2,0.11694,0.34155,0.90747,22.42,-73.481,35.412
2026-05-20 17:19:59.632,1181139088,159632,1,0.0293,0.08057,1.13892,-4.573,-102.702,-8.351
2026-05-20 17:19:59.632,1181139088,159632,2,0.39331,0.30005,0.66528,-12.618,-101.985,55.473
2026-05-20 17:19:59.832,1181139288,159832,1,0.41968,0.04224,0.7373,-35.0,-114.458,-13.664
2026-05-20 17:19:59.832,1181139288,159832,2,0.64673,0.03711,0.59399,-73.405,-113.061,38.099
2026-05-20 17:20:00.032,1181139488,160032,1,0.79419,-0.0415,0.6145,-21.397,-83.076,-5.557
2026-05-20 17:20:00.032,1181139488,160032,2,0.8291,-0.1167,0.38623,-35.076,-46.328,31.45
2026-05-20 17:20:00.312,1181139768,160312,1,1.09253,-0.16333,0.28955,-2.641,-30.733,3.473
2026-05-20 17:20:00.312,1181139768,160312,2,0.9917,-0.34814,0.20215,1.55,0.885,3.901
2026-05-20 17:20:00.512,1181139968,160512,1,1.06836,-0.0979,0.31592,-9.863,-9.221,-5.359
2026-05-20 17:20:00.512,1181139968,160512,2,0.97559,-0.25537,0.18188,-7.321,-2.015,-8.466
2026-05-20 17:20:00.712,1181140168,160712,1,0.99414,-0.08594,0.4043,4.527,6.611,-0.954
2026-05-20 17:20:00.712,1181140168,160712,2,0.94946,-0.21948,0.22363,2.695,2.656,-0.679
2026-05-20 17:20:00.912,1181140368,160912,1,1.02563,-0.0769,0.38184,-7.145,11.0,7.489
2026-05-20 17:20:00.912,1181140368,160912,2,0.95288,-0.24512,0.23584,-3.618,10.26,2.71
2026-05-20 17:20:01.112,1181140568,161112,1,0.93701,-0.22949,0.45239,-16.977,16.176,-3.771
2026-05-20 17:20:01.112,1181140568,161112,2,0.88452,-0.43433,0.22949,-39.305,26.427,-21.435
2026-05-20 17:20:01.312,1181140768,161312,1,0.9624,-0.26245,0.37671,20.718,-18.58,0.74
2026-05-20 17:20:01.312,1181140768,161312,2,1.00684,-0.24536,0.17529,0.878,-22.832,4.092
2026-05-20 17:20:01.532,1181140988,161532,1,1.10718,-0.05347,0.24805,27.374,0.313,-1.863
2026-05-20 17:20:01.532,1181140988,161532,2,1.06812,-0.24292,0.1814,14.008,17.466,-13.824
2026-05-20 17:20:01.837,1181141293,161837,1,0.8374,-0.03174,0.0752,44.687,142.0,16.603
2026-05-20 17:20:01.837,1181141293,161837,2,0.70532,0.02881,0.23169,101.939,204.305,-59.267
2026-05-20 17:20:02.037,1181141493,162037,1,0.22632,0.05884,0.77612,30.321,156.947,-21.023
2026-05-20 17:20:02.037,1181141493,162037,2,0.37744,0.53101,0.27075,-165.985,8.298,-153.427
2026-05-20 17:20:02.237,1181141693,162237,1,-0.15747,0.13623,1.50269,16.328,69.511,-5.794
2026-05-20 17:20:02.237,1181141693,162237,2,0.06055,0.51978,1.05737,-36.725,43.802,-12.107
2026-05-20 17:20:02.437,1181141893,162437,1,-0.19263,0.05981,1.28418,-15.649,25.481,2.84
2026-05-20 17:20:02.437,1181141893,162437,2,-0.09741,0.2124,0.9292,1.183,37.542,3.206
2026-05-20 17:20:02.637,1181142093,162637,1,-0.12793,0.05542,1.1814,11.649,-22.344,-1.634
2026-05-20 17:20:02.637,1181142093,162637,2,0.08447,0.23633,0.91724,2.389,-19.679,4.893
2026-05-20 17:20:02.837,1181142293,162837,1,-0.00122,0.17505,1.29321,3.328,-11.855,1.702
2026-05-20 17:20:02.837,1181142293,162837,2,0.29492,0.35522,0.92017,-4.595,-41.656,13.809
2026-05-20 17:20:03.037,1181142493,163037,1,0.03149,0.06812,1.29468,-13.206,-38.336,-10.122
2026-05-20 17:20:03.037,1181142493,163037,2,0.24268,0.30859,0.83081,0.771,-65.748,25.588
2026-05-20 17:20:03.237,1181142693,163237,1,0.11548,0.06104,1.07324,-8.618,-89.313,7.931
2026-05-20 17:20:03.237,1181142693,163237,2,0.58081,0.2832,0.50049,15.542,-95.954,68.611
2026-05-20 17:20:03.437,1181142893,163437,1,0.62158,-0.00269,0.64404,-17.198,-107.649,-4.099
2026-05-20 17:20:03.437,1181142893,163437,2,0.82227,0.10327,0.47144,-5.031,-59.595,45.13
2026-05-20 17:20:03.637,1181143093,163637,1,0.86035,-0.07837,0.42285,-42.618,-78.908,-19.771
2026-05-20 17:20:03.637,1181143093,163637,2,0.90625,-0.08936,0.29224,-56.542,-43.137,13.29
2026-05-20 17:20:03.837,1181143293,163837,1,1.05469,-0.15479,0.33398,-10.42,-7.71,-0.985
2026-05-20 17:20:03.837,1181143293,163837,2,0.85205,-0.23071,0.24487,9.916,19.847,-2.771
2026-05-20 17:20:04.037,1181143493,164037,1,1.01807,-0.12476,0.36841,20.458,38.626,1.679
2026-05-20 17:20:04.037,1181143493,164037,2,1.03784,-0.17212,0.33911,26.595,34.71,-11.542
2026-05-20 17:20:04.237,1181143693,164237,1,0.60889,-0.03613,0.43921,30.573,87.427,8.588
2026-05-20 17:20:04.237,1181143693,164237,2,0.55469,0.00732,0.47266,5.725,79.893,-33.282
2026-05-20 17:20:04.437,1181143893,164437,1,0.34204,0.00903,0.92773,26.092,71.481,12.496
2026-05-20 17:20:04.437,1181143893,164437,2,0.35718,0.11572,0.52246,-18.0,72.573,-21.672
2026-05-20 17:20:04.637,1181144093,164637,1,0.51294,-0.01221,1.04736,2.565,-8.336,15.611
2026-05-20 17:20:04.637,1181144093,164637,2,0.6001,0.16162,0.70264,-3.168,-38.359,11.107
2026-05-20 17:20:04.837,1181144293,164837,1,0.82495,-0.13184,1.02979,-5.031,-29.901,2.794
2026-05-20 17:20:04.837,1181144293,164837,2,1.09961,0.25977,0.93237,17.336,-61.809,21.344
2026-05-20 17:20:05.037,1181144493,165037,1,0.85986,-0.0625,0.92261,-8.748,-3.855,5.611
2026-05-20 17:20:05.037,1181144493,165037,2,0.8396,0.0647,0.64844,-2.901,44.893,0.435
2026-05-20 17:20:05.261,1181144717,165261,1,0.80518,-0.03491,0.79492,-10.214,-5.153,-1.557
2026-05-20 17:20:05.261,1181144717,165261,2,0.86963,0.11987,0.67383,2.634,8.573,1.748
2026-05-20 17:20:05.461,1181144917,165461,1,0.98926,-0.1416,1.04443,6.267,21.733,1.534
2026-05-20 17:20:05.461,1181144917,165461,2,1.04712,0.15649,1.00732,5.809,-3.687,-17.305
2026-05-20 17:20:05.661,1181145117,165661,1,0.60327,0.06348,1.15503,1.802,-21.336,-5.16
2026-05-20 17:20:05.661,1181145117,165661,2,0.62891,0.1853,0.75928,2.901,-14.511,18.87
2026-05-20 17:20:05.861,1181145317,165861,1,0.70898,-0.01074,0.82129,-7.695,-43.13,-2.145
2026-05-20 17:20:05.861,1181145317,165861,2,0.68433,0.0564,0.48877,-15.191,-22.214,28.954
2026-05-20 17:20:06.061,1181145517,166061,1,0.48584,-0.06616,0.48511,-33.344,-33.855,-17.863
2026-05-20 17:20:06.061,1181145517,166061,2,0.51465,-0.04248,0.2395,-80.168,-96.786,-3.145
2026-05-20 17:20:06.261,1181145717,166261,1,0.84741,-0.05273,0.47852,-17.557,-43.809,-16.061
2026-05-20 17:20:06.261,1181145717,166261,2,1.0188,-0.16504,0.38818,-31.198,-29.137,9.794
2026-05-20 17:20:06.487,1181145943,166487,1,0.99512,-0.03687,0.32275,1.191,-21.702,-4.908
2026-05-20 17:20:06.487,1181145943,166487,2,0.95239,-0.16431,0.18286,21.748,-1.962,6.618
2026-05-20 17:20:06.687,1181146143,166687,1,1.0896,0.02295,0.3042,-8.588,-15.42,-3.382
2026-05-20 17:20:06.687,1181146143,166687,2,0.97437,-0.21851,0.15601,0.588,0.221,11.725
2026-05-20 17:20:09.193,1181148649,169193,1,0.15015,0.06812,0.84473,-27.214,-86.13,-6.863
2026-05-20 17:20:09.193,1181148649,169193,2,0.46997,0.11011,0.38892,-1.573,-84.695,72.527
2026-05-20 17:20:09.393,1181148849,169393,1,0.83569,-0.11108,0.67188,-32.26,-55.168,-20.405
2026-05-20 17:20:09.393,1181148849,169393,2,0.8418,0.04224,0.43237,-36.55,-9.939,5.618
2026-05-20 17:20:09.593,1181149049,169593,1,0.98999,-0.02368,0.51855,-4.466,-33.626,-16.328
2026-05-20 17:20:09.593,1181149049,169593,2,0.97339,-0.0542,0.25562,-24.015,-27.244,11.718
2026-05-20 17:20:09.793,1181149249,169793,1,1.03223,-0.01685,0.42188,-3.42,-17.069,-3.878
2026-05-20 17:20:09.793,1181149249,169793,2,0.99976,-0.10962,0.24023,-9.595,-10.931,5.13
2026-05-20 17:20:10.047,1181149503,170047,1,0.9812,-0.05908,0.47241,4.84,3.55,7.321
2026-05-20 17:20:10.047,1181149503,170047,2,0.97705,-0.10376,0.21655,-3.916,-4.634,4.481
2026-05-20 17:20:10.247,1181149703,170247,1,0.98267,-0.08252,0.46509,5.435,-0.893,4.87
2026-05-20 17:20:10.247,1181149703,170247,2,0.97998,-0.10449,0.23901,3.443,-0.053,3.366
2026-05-20 17:20:10.447,1181149903,170447,1,0.97339,-0.03003,0.5,5.275,1.13,9.489
2026-05-20 17:20:10.447,1181149903,170447,2,0.99707,-0.09106,0.21753,10.191,1.084,3.725
2026-05-20 17:20:10.647,1181150103,170647,1,0.9519,-0.11084,0.48364,9.046,0.137,-0.542
2026-05-20 17:20:10.647,1181150103,170647,2,1.00098,-0.11035,0.22363,4.718,-2.786,2.221
2026-05-20 17:20:10.847,1181150303,170847,1,1.03271,-0.08105,0.38037,14.099,23.099,0.092
2026-05-20 17:20:10.847,1181150303,170847,2,1.01587,-0.10767,0.27222,28.191,28.443,-12.458
2026-05-20 17:20:11.047,1181150503,171047,1,0.84717,-0.04761,0.43848,23.183,87.214,6.817
2026-05-20 17:20:11.047,1181150503,171047,2,0.86646,-0.0481,0.32153,57.573,99.038,-33.534
2026-05-20 17:20:11.247,1181150703,171247,1,0.51831,0.04199,0.81274,28.305,86.275,3.053
2026-05-20 17:20:11.247,1181150703,171247,2,0.72363,0.31714,0.6416,13.206,77.382,-32.26
2026-05-20 17:20:11.447,1181150903,171447,1,0.23926,0.06348,1.07056,1.748,84.031,-9.16
2026-05-20 17:20:11.447,1181150903,171447,2,0.36816,0.20459,0.67603,-27.58,55.458,-46.718
2026-05-20 17:20:11.647,1181151103,171647,1,0.16992,0.02295,1.1394,13.977,36.908,2.626
2026-05-20 17:20:11.647,1181151103,171647,2,0.32056,0.29956,0.89624,-8.107,69.366,-19.71
2026-05-20 17:20:11.847,1181151303,171847,1,0.00659,0.10571,1.20044,0.916,38.725,-0.939
2026-05-20 17:20:11.847,1181151303,171847,2,0.13257,0.26563,0.89746,-0.954,35.336,-4.679
2026-05-20 17:20:12.047,1181151503,172047,1,-0.03198,0.03003,1.12061,2.947,26.641,-3.237
2026-05-20 17:20:12.047,1181151503,172047,2,-0.04639,0.32129,0.90991,8.748,17.275,-4.229
2026-05-20 17:20:12.247,1181151703,172247,1,-0.15967,0.07739,1.28687,-9.588,-18.176,-3.29
2026-05-20 17:20:12.247,1181151703,172247,2,0.07764,0.36475,0.9834,27.695,-55.183,20.847
2026-05-20 17:20:12.511,1181151967,172511,1,-0.09448,0.03345,1.39722,14.206,-76.817,0.901
2026-05-20 17:20:12.511,1181151967,172511,2,0.46875,0.33398,0.60645,-33.359,-126.802,52.145
2026-05-20 17:20:12.761,1181152217,172760,1,0.32544,0.1228,0.71606,-11.802,-138.107,-7.656
2026-05-20 17:20:12.761,1181152217,172760,2,0.68896,0.07227,0.50903,-63.84,-111.412,38.641
2026-05-20 17:20:13.015,1181152471,173015,1,0.8584,0.01392,0.44946,-49.412,-86.038,-10.496
2026-05-20 17:20:13.015,1181152471,173015,2,0.95874,-0.14136,0.26123,-60.008,-40.42,32.076
2026-05-20 17:20:13.215,1181152671,173215,1,1.04028,-0.14209,0.26025,-20.962,-42.069,-1.305
2026-05-20 17:20:13.215,1181152671,173215,2,1.00439,-0.27954,0.1438,-22.504,-18.099,-3.817
2026-05-20 17:20:13.415,1181152871,173415,1,1.09863,-0.09741,0.19092,-1.855,-17.099,-3.641
2026-05-20 17:20:13.415,1181152871,173415,2,1.03174,-0.25,0.06006,4.817,-12.313,1.359
2026-05-20 17:20:13.615,1181153071,173615,1,1.05884,-0.08862,0.20898,7.885,-6.405,2.687
2026-05-20 17:20:13.615,1181153071,173615,2,0.98828,-0.2627,0.07739,2.252,-4.313,-0.84
2026-05-20 17:20:13.815,1181153271,173815,1,1.03613,-0.0918,0.25195,15.992,3.206,6.489
2026-05-20 17:20:13.815,1181153271,173815,2,1.0083,-0.23633,0.0647,10.779,-0.305,-2.695
2026-05-20 17:20:14.015,1181153471,174015,1,1.03882,-0.07007,0.27368,5.153,11.069,-0.809
2026-05-20 17:20:14.015,1181153471,174015,2,0.99707,-0.21875,0.07544,4.573,3.092,2.046
2026-05-20 17:20:14.215,1181153671,174215,1,1.00781,-0.08472,0.3252,1.0,8.817,-4.061
2026-05-20 17:20:14.215,1181153671,174215,2,0.98022,-0.22656,0.06958,0.023,0.336,-2.855
2026-05-20 17:20:14.415,1181153871,174415,1,1.09473,-0.06421,0.23877,16.618,18.237,-6.26
2026-05-20 17:20:14.415,1181153871,174415,2,1.04321,-0.2522,0.15283,35.176,19.328,-7.847
2026-05-20 17:20:14.615,1181154071,174615,1,1.0332,-0.05029,0.27222,21.954,67.794,13.702
2026-05-20 17:20:14.615,1181154071,174615,2,1.0332,-0.14697,0.2583,56.191,64.214,-25.809
2026-05-20 17:20:14.815,1181154271,174815,1,0.5542,-0.00439,0.34839,33.229,162.634,9.405
2026-05-20 17:20:14.815,1181154271,174815,2,0.73999,0.12793,0.37427,87.13,167.634,-58.046
2026-05-20 17:20:15.015,1181154471,175015,1,0.08667,0.15356,1.04761,21.336,121.412,-10.847
2026-05-20 17:20:15.015,1181154471,175015,2,0.24927,0.27979,0.7522,-32.092,69.13,-40.771
2026-05-20 17:20:15.215,1181154671,175215,1,-0.00781,0.14209,1.35425,5.71,48.084,-1.588
2026-05-20 17:20:15.215,1181154671,175215,2,0.05884,0.43359,1.01563,7.359,44.153,4.031
2026-05-20 17:20:15.415,1181154871,175415,1,-0.15112,0.06445,1.33887,-12.977,22.977,-1.611
2026-05-20 17:20:15.415,1181154871,175415,2,-0.0752,0.30884,0.96533,-11.656,-2.977,2.366
2026-05-20 17:20:15.615,1181155071,175615,1,-0.05518,0.10034,1.12109,0.168,-27.389,-2.031
2026-05-20 17:20:15.615,1181155071,175615,2,0.13599,0.30615,0.91699,-9.099,-27.137,6.008
2026-05-20 17:20:15.815,1181155271,175815,1,0.07788,0.05981,1.27002,8.389,-13.458,-0.817
2026-05-20 17:20:15.815,1181155271,175815,2,0.25098,0.46948,0.97021,19.634,-45.031,18.397
2026-05-20 17:20:16.015,1181155471,176015,1,-0.021,0.0603,1.32056,-23.099,-60.489,-3.679
2026-05-20 17:20:16.015,1181155471,176015,2,0.34399,0.37622,0.74951,-19.878,-100.481,30.977
2026-05-20 17:20:16.215,1181155671,176215,1,0.28271,-0.07495,0.94727,-10.168,-109.611,-24.725
2026-05-20 17:20:16.215,1181155671,176215,2,0.70239,0.21558,0.40894,0.389,-89.206,56.214
2026-05-20 17:20:16.415,1181155871,176415,1,0.66553,-0.03564,0.49707,-22.786,-116.794,-14.802
2026-05-20 17:20:16.415,1181155871,176415,2,0.8623,-0.0188,0.35376,-53.252,-83.626,33.893
2026-05-20 17:20:16.615,1181156071,176615,1,0.99292,-0.07153,0.38916,-41.733,-45.885,-19.779
2026-05-20 17:20:16.615,1181156071,176615,2,0.95874,-0.14648,0.2522,-10.45,-10.099,1.878
2026-05-20 17:20:17.090,1181156546,177089,1,0.9939,-0.02295,0.44629,5.542,7.595,2.962
2026-05-20 17:20:17.090,1181156546,177089,2,0.97534,-0.1062,0.22485,5.328,-1.008,-0.168
2026-05-20 17:20:17.292,1181156748,177292,1,0.9917,-0.0415,0.448,4.817,6.931,2.878
2026-05-20 17:20:17.292,1181156748,177292,2,0.98389,-0.12061,0.19092,-1.145,4.13,-0.313
2026-05-20 17:20:20.094,1181159550,180094,1,0.59326,0.01318,0.58252,-15.282,-21.656,-5.29
2026-05-20 17:20:20.094,1181159550,180094,2,0.604,0.01904,0.30054,-17.023,-63.802,42.107
2026-05-20 17:20:20.294,1181159750,180294,1,0.61377,0.09058,0.51001,-36.427,-45.107,-8.099
2026-05-20 17:20:20.294,1181159750,180294,2,0.63354,-0.19604,0.3064,-73.069,-34.832,30.878
2026-05-20 17:20:20.494,1181159950,180494,1,1.1582,-0.04126,0.30371,-10.298,-62.107,12.267
2026-05-20 17:20:20.494,1181159950,180494,2,1.23169,-0.18677,0.29688,-27.053,-16.786,-18.145
2026-05-20 17:20:20.694,1181160150,180694,1,1.06445,-0.09692,0.20581,-14.023,-12.359,-4.786
2026-05-20 17:20:20.694,1181160150,180694,2,1.09448,-0.24292,0.00244,-17.672,-9.031,1.397
2026-05-20 17:20:20.894,1181160350,180894,1,1.02954,-0.0647,0.23755,-3.519,1.87,-4.221
2026-05-20 17:20:20.894,1181160350,180894,2,0.93286,-0.20874,0.08521,13.626,5.153,0.611
2026-05-20 17:20:21.094,1181160550,181094,1,1.052,-0.07935,0.2605,1.023,5.344,5.374
2026-05-20 17:20:21.094,1181160550,181094,2,0.97388,-0.25781,0.08521,33.763,6.939,2.695
2026-05-20 17:20:21.294,1181160750,181294,1,1.02832,-0.08887,0.30737,6.046,1.641,1.992
2026-05-20 17:20:21.294,1181160750,181294,2,0.99438,-0.22827,0.11035,0.992,-0.588,1.046
2026-05-20 17:20:21.494,1181160950,181494,1,1.02051,-0.09375,0.31299,4.351,3.267,0.214
2026-05-20 17:20:21.494,1181160950,181494,2,0.99609,-0.20288,0.10693,5.229,-2.504,-0.321
2026-05-20 17:20:21.694,1181161150,181694,1,1.02661,-0.05884,0.33838,1.122,4.015,-3.427
2026-05-20 17:20:21.694,1181161150,181694,2,0.9895,-0.20532,0.08691,-1.863,-2.443,-1.611
2026-05-20 17:20:21.894,1181161350,181894,1,1.03271,-0.06152,0.32251,-4.618,0.962,-2.237
2026-05-20 17:20:21.894,1181161350,181894,2,1.00293,-0.21777,0.1001,-1.71,-0.328,0.198
2026-05-20 17:20:22.098,1181161554,182097,1,1.04224,-0.073,0.33203,-1.901,0.206,-0.71
2026-05-20 17:20:22.098,1181161554,182097,2,0.98633,-0.20288,0.1001,-1.336,0.679,0.786
2026-05-20 17:20:22.297,1181161753,182297,1,1.03198,-0.0686,0.32129,0.397,-1.214,0.412
2026-05-20 17:20:22.297,1181161753,182297,2,0.9939,-0.21265,0.09961,-2.618,0.13,1.863
2026-05-20 17:20:22.497,1181161953,182497,1,1.03882,-0.09351,0.2981,-10.611,0.458,0.779
2026-05-20 17:20:22.497,1181161953,182497,2,1.00024,-0.24463,0.11035,-4.13,-2.733,0.229
2026-05-20 17:20:22.697,1181162153,182697,1,1.02905,-0.08105,0.30444,20.695,-3.924,4.008
2026-05-20 17:20:22.697,1181162153,182697,2,0.99805,-0.21582,0.0708,-1.939,-5.511,1.588
2026-05-20 17:20:22.897,1181162353,182897,1,1.06396,-0.03198,0.24878,1.145,-1.756,-5.374
2026-05-20 17:20:22.897,1181162353,182897,2,1.00659,-0.20508,0.04077,-19.397,3.084,-2.382
2026-05-20 17:20:23.097,1181162553,183097,1,1.03687,-0.06567,0.27173,-7.809,-0.336,-5.824
2026-05-20 17:20:23.097,1181162553,183097,2,0.99365,-0.23047,0.09521,-9.992,1.008,-2.496
2026-05-20 17:20:23.297,1181162753,183297,1,1.02588,-0.07349,0.29395,0.496,-0.786,1.405
2026-05-20 17:20:23.297,1181162753,183297,2,1.00098,-0.23242,0.07104,-10.412,-2.618,-1.115
2026-05-20 17:20:23.525,1181162981,183525,1,1.03198,-0.05933,0.28296,5.176,-2.153,0.573
2026-05-20 17:20:23.525,1181162981,183525,2,1.00684,-0.20361,0.06274,5.137,1.313,2.16
2026-05-20 17:20:23.745,1181163201,183745,1,1.03857,-0.05176,0.26929,2.931,0.595,-0.87
2026-05-20 17:20:23.745,1181163201,183745,2,1.00537,-0.20776,0.0603,-2.397,0.847,0.252
2026-05-20 17:20:24.954,1181164410,183954,1,1.04492,0.0022,0.24927,-8.328,3.206,-4.611
2026-05-20 17:20:24.954,1181164410,183954,2,0.99121,-0.21167,0.05981,-2.031,5.237,3.122
2026-05-20 17:20:24.154,1181163610,184154,1,1.02173,-0.01904,0.28589,-4.58,1.847,-2.84
2026-05-20 17:20:24.154,1181163610,184154,2,1.00269,-0.21826,0.0376,2.137,4.641,4.565
2026-05-20 17:20:24.354,1181163810,184354,1,1.01831,-0.02612,0.30859,-4.137,-1.397,1.298
2026-05-20 17:20:24.354,1181163810,184354,2,1.00391,-0.23657,0.03149,4.611,1.519,5.893
2026-05-20 17:20:24.554,1181164010,184554,1,1.0625,-0.03662,0.2373,5.336,-1.42,0.863
2026-05-20 17:20:24.554,1181164010,184554,2,1.01978,-0.23242,0.04248,-6.878,-0.229,1.718
2026-05-20 17:20:24.754,1181164210,184754,1,1.05884,-0.03589,0.23926,-8.198,3.679,-2.069
2026-05-20 17:20:24.754,1181164210,184754,2,0.99243,-0.25977,0.0686,-5.405,4.359,-1.191
2026-05-20 17:20:25.954,1181165410,184954,1,1.04077,-0.0293,0.2793,2.298,4.748,0.214
2026-05-20 17:20:25.954,1181165410,184954,2,0.98633,-0.23071,0.0769,1.969,2.298,1.351
2026-05-20 17:20:25.154,1181164610,185154,1,1.03296,-0.06274,0.28638,1.405,3.855,1.519
2026-05-20 17:20:25.154,1181164610,185154,2,0.99731,-0.24561,0.06641,2.382,-0.153,1.26
2026-05-20 17:20:25.354,1181164810,185354,1,1.03711,-0.05151,0.30322,-5.16,1.504,1.611
2026-05-20 17:20:25.354,1181164810,185354,2,1.00635,-0.23438,0.05371,-4.13,0.878,0.756
2026-05-20 17:20:25.554,1181165010,185554,1,1.04028,-0.04712,0.28418,4.733,-3.878,-0.344
2026-05-20 17:20:25.554,1181165010,185554,2,1.01904,-0.24438,0.05884,-6.366,0.618,-0.458
2026-05-20 17:20:25.754,1181165210,185754,1,1.03638,-0.03418,0.29028,-1.153,5.725,-2.221
2026-05-20 17:20:25.754,1181165210,185754,2,1.00952,-0.24805,0.0647,-1.389,2.733,-2.183
2026-05-20 17:20:26.954,1181166410,185954,1,1.02002,-0.03125,0.30151,5.168,2.748,0.16
2026-05-20 17:20:26.954,1181166410,185954,2,0.99341,-0.22656,0.04272,3.847,0.771,1.947
2026-05-20 17:20:26.154,1181165610,186154,1,1.0127,-0.04395,0.32617,-2.992,3.672,-0.588
2026-05-20 17:20:26.154,1181165610,186154,2,1.00977,-0.23608,0.04932,8.527,1.397,1.13
2026-05-20 17:20:26.354,1181165810,186354,1,1.03003,-0.04614,0.30493,5.099,-0.053,-1.504
2026-05-20 17:20:26.354,1181165810,186354,2,0.99219,-0.229,0.05029,5.962,-0.534,0.031
2026-05-20 17:20:26.554,1181166010,186554,1,1.0293,-0.01953,0.30811,-1.168,-0.985,0.496
2026-05-20 17:20:26.554,1181166010,186554,2,0.99854,-0.22925,0.05444,9.267,-0.87,3.382
2026-05-20 17:20:26.754,1181166210,186754,1,1.05249,-0.03296,0.25806,3.275,-0.595,3.038
2026-05-20 17:20:26.754,1181166210,186754,2,1.0127,-0.21948,0.04126,1.42,2.511,2.084
2026-05-20 17:20:27.954,1181167410,186954,1,1.03613,-0.00684,0.28833,-3.168,5.641,-1.573
2026-05-20 17:20:27.954,1181167410,186954,2,0.99097,-0.23145,0.07031,1.26,2.321,0.42
2026-05-20 17:20:27.154,1181166610,187154,1,1.02319,-0.04492,0.30469,0.206,1.16,-2.282
2026-05-20 17:20:27.154,1181166610,187154,2,0.99146,-0.2356,0.06812,-0.084,-0.527,2.008
2026-05-20 17:20:27.354,1181166810,187354,1,1.021,-0.07227,0.31934,,1.305,0.076
2026-05-20 17:20:27.354,1181166810,187354,2,0.9939,-0.2583,0.07495,-0.901,-5.885,-0.282
2026-05-20 17:20:27.554,1181167010,187554,1,1.03833,-0.03906,0.28491,12.099,-3.305,3.672
2026-05-20 17:20:27.554,1181167010,187554,2,0.99976,-0.21362,0.03735,6.275,-7.687,0.519
2026-05-20 17:20:27.754,1181167210,187754,1,1.05249,-0.00659,0.25928,5.366,4.725,-4.855
2026-05-20 17:20:27.754,1181167210,187754,2,1.00098,-0.20483,0.02393,5.504,-0.206,-1.84
2026-05-20 17:20:28.954,1181168410,187954,1,1.03027,0.01563,0.29688,2.359,1.618,-1.366
2026-05-20 17:20:28.954,1181168410,187954,2,0.99463,-0.20728,0.03052,-0.351,0.824,1.771
2026-05-20 17:20:28.154,1181167610,188154,1,1.04077,0.00391,0.2854,-0.137,-1.397,2.069
2026-05-20 17:20:28.154,1181167610,188154,2,1.01001,-0.21729,0.02197,-2.176,2.031,2.573
2026-05-20 17:20:28.354,1181167810,188354,1,1.04468,-0.01978,0.28564,-4.267,2.473,1.595
2026-05-20 17:20:28.354,1181167810,188354,2,1.00635,-0.23242,0.04395,-4.641,3.191,1.595
2026-05-20 17:20:28.554,1181168010,188554,1,1.03003,-0.06226,0.28882,4.802,-0.656,2.786
2026-05-20 17:20:28.554,1181168010,188554,2,1.01709,-0.23315,0.04077,6.794,4.466,1.153
2026-05-20 17:20:29.940,1181169396,188940,1,1.03369,-0.0896,0.31104,6.115,3.069,-3.802
2026-05-20 17:20:29.940,1181169396,188940,2,1.0271,-0.23364,0.07446,14.565,3.382,-4.962
2026-05-20 17:20:29.142,1181168598,189142,1,1.07153,0.01733,0.2417,5.824,20.015,0.481
2026-05-20 17:20:29.142,1181168598,189142,2,1.0481,-0.17871,0.08813,31.282,18.947,-5.679
2026-05-20 17:20:29.342,1181168798,189342,1,1.03809,-0.00171,0.31372,10.191,40.344,12.458
2026-05-20 17:20:29.342,1181168798,189342,2,1.01685,-0.13574,0.21777,41.351,39.489,-14.954
2026-05-20 17:20:32.936,1181172392,191936,1,0.34521,0.06641,1.0603,-23.191,16.26,-3.954
2026-05-20 17:20:32.936,1181172392,191936,2,0.35034,0.17798,0.87158,-15.893,16.031,-8.511
2026-05-20 17:20:32.136,1181171592,192136,1,0.25024,-0.02783,1.06055,-5.924,23.42,-2.595
2026-05-20 17:20:32.136,1181171592,192136,2,0.31616,0.2168,0.89111,1.481,25.771,-0.939
2026-05-20 17:20:32.336,1181171792,192336,1,0.25684,0.00439,1.08203,13.565,33.45,-4.092
2026-05-20 17:20:32.336,1181171792,192336,2,0.3252,0.21826,0.91797,4.481,29.313,-15.153
2026-05-20 17:20:32.593,1181172049,192593,1,0.01904,-0.00952,1.09546,5.565,27.679,-17.168
2026-05-20 17:20:32.593,1181172049,192593,2,0.10767,0.24585,0.88379,-0.626,10.282,-20.183
2026-05-20 17:20:32.793,1181172249,192793,1,-0.05225,0.13013,1.12939,7.565,15.626,-19.534
2026-05-20 17:20:32.793,1181172249,192793,2,0.04248,0.2561,0.93384,4.359,13.168,-8.901
2026-05-20 17:20:33.993,1181173449,192993,1,-0.0813,0.15161,1.0769,-5.26,6.489,8.366
2026-05-20 17:20:33.993,1181173449,192993,2,0.01025,0.28052,0.90503,-4.458,8.634,9.015
2026-05-20 17:20:33.193,1181172649,193193,1,-0.05981,0.04565,1.06787,-0.794,5.168,13.847
2026-05-20 17:20:33.193,1181172649,193193,2,0.0293,0.26831,0.89063,-0.763,6.679,9.038
2026-05-20 17:20:33.439,1181172895,193439,1,-0.07593,0.06714,1.07739,-3.221,-1.748,9.122
2026-05-20 17:20:33.439,1181172895,193439,2,0.01074,0.20825,0.80249,2.817,5.076,5.443
2026-05-20 17:20:33.639,1181173095,193639,1,0.03198,0.09497,0.96729,46.443,-2.786,6.496
2026-05-20 17:20:33.639,1181173095,193639,2,0.07764,0.33203,0.89819,-3.603,-4.191,-1.931
2026-05-20 17:20:33.839,1181173295,193839,1,-0.00098,0.31348,1.08447,18.939,11.794,6.069
2026-05-20 17:20:33.839,1181173295,193839,2,0.03198,0.35376,0.96069,1.328,4.931,22.305
2026-05-20 17:20:34.039,1181173495,194039,1,0.01392,0.37329,1.18677,-7.908,-8.832,12.099
2026-05-20 17:20:34.039,1181173495,194039,2,0.13428,0.27905,0.9624,-24.649,-19.504,9.344
2026-05-20 17:20:34.239,1181173695,194239,1,0.07739,0.17944,0.97632,35.557,0.748,-11.16
2026-05-20 17:20:34.239,1181173695,194239,2,0.08301,0.25024,0.93628,-0.573,5.42,4.382
2026-05-20 17:20:34.439,1181173895,194439,1,0.11792,0.17554,1.01782,14.061,-0.595,2.115
2026-05-20 17:20:34.439,1181173895,194439,2,0.16113,0.2854,0.92529,3.863,6.321,5.832
2026-05-20 17:20:34.639,1181174095,194639,1,0.05444,0.37964,1.05981,15.779,1.641,0.412
2026-05-20 17:20:34.639,1181174095,194639,2,0.11914,0.30322,0.94336,-1.397,14.687,-9.397
2026-05-20 17:20:34.839,1181174295,194839,1,0.14429,0.29102,0.89844,8.282,13.611,-1.046
2026-05-20 17:20:34.839,1181174295,194839,2,0.04736,0.37085,0.89136,5.374,10.328,3.221
2026-05-20 17:20:35.086,1181174542,195086,1,0.04077,0.39429,1.00269,-20.176,-5.634,10.779
2026-05-20 17:20:35.086,1181174542,195086,2,0.05054,0.3833,0.88867,6.328,12.969,4.458
2026-05-20 17:20:35.291,1181174747,195290,1,-0.05811,0.27881,1.0415,-6.542,11.878,-8.344
2026-05-20 17:20:35.291,1181174747,195290,2,0.00122,0.37915,0.98804,6.702,-12.634,5.58
2026-05-20 17:20:35.490,1181174946,195490,1,-0.00024,0.19995,0.97095,26.504,4.214,-4.13
2026-05-20 17:20:35.490,1181174946,195490,2,0.0166,0.22681,0.88452,-11.664,21.611,-21.626
2026-05-20 17:20:35.690,1181175146,195690,1,-0.08276,0.49731,1.24634,1.58,3.084,-11.969
2026-05-20 17:20:35.690,1181175146,195690,2,-0.03369,0.43237,0.97144,-14.962,0.008,-14.305
2026-05-20 17:20:35.890,1181175346,195890,1,-0.16235,0.48242,1.20654,-11.756,-29.328,1.298
2026-05-20 17:20:35.890,1181175346,195890,2,-0.03467,0.40918,0.80493,-2.435,-71.031,33.435
2026-05-20 17:20:36.090,1181175546,196090,1,0.11646,0.354,1.02344,-17.328,-109.511,14.786
2026-05-20 17:20:36.090,1181175546,196090,2,0.47827,0.36865,0.58813,-1.725,-101.229,66.573
2026-05-20 17:20:36.290,1181175746,196290,1,0.36841,0.0769,0.53931,-55.031,-123.115,15.908
2026-05-20 17:20:36.290,1181175746,196290,2,0.65552,-0.18359,0.43262,-85.985,-131.115,63.412
2026-05-20 17:20:36.490,1181175946,196490,1,0.95947,-0.2041,0.33765,-16.405,-86.817,9.718
2026-05-20 17:20:36.490,1181175946,196490,2,1.25537,-0.08203,0.52808,-55.855,-60.969,-0.015
2026-05-20 17:20:36.690,1181176146,196690,1,1.146,-0.03247,0.36377,17.015,-7.626,-0.832
2026-05-20 17:20:36.690,1181176146,196690,2,0.9563,-0.05347,0.23877,8.863,-26.038,-6.198
2026-05-20 17:20:36.890,1181176346,196890,1,1.02222,0.04346,0.41089,15.885,23.252,-3.847
2026-05-20 17:20:36.890,1181176346,196890,2,1.04956,-0.09375,0.32251,23.496,17.298,-11.137
2026-05-20 17:20:37.090,1181176546,197090,1,0.85669,0.10205,0.6543,28.015,55.679,1.031
2026-05-20 17:20:37.090,1181176546,197090,2,0.8479,0.06689,0.34253,53.504,46.664,0.053
2026-05-20 17:20:37.290,1181176746,197290,1,0.75684,0.21777,0.84668,13.824,13.664,-14.71
2026-05-20 17:20:37.290,1181176746,197290,2,0.89282,0.12378,0.34155,19.427,5.221,1.832
2026-05-20 17:20:37.490,1181176946,197490,1,0.79224,0.23926,0.72998,2.557,-12.069,1.496
2026-05-20 17:20:37.490,1181176946,197490,2,0.93726,0.06104,0.38208,-2.809,-7.252,6.076
2026-05-20 17:20:37.690,1181177146,197690,1,0.95142,0.03906,0.51001,-0.137,6.069,5.687
2026-05-20 17:20:37.690,1181177146,197690,2,0.9707,0.01563,0.4082,7.405,14.534,-17.473
2026-05-20 17:20:37.890,1181177346,197890,1,0.6875,0.05664,0.37476,10.901,106.053,-10.718
2026-05-20 17:20:37.890,1181177346,197890,2,0.77979,0.09668,0.3894,57.458,117.412,-62.985
2026-05-20 17:20:38.090,1181177546,198090,1,0.23511,0.23511,1.01953,13.557,120.427,-32.901
2026-05-20 17:20:38.090,1181177546,198090,2,0.48804,0.32642,0.75708,-19.855,65.313,-46.878
2026-05-20 17:20:38.290,1181177746,198290,1,-0.0647,0.31226,1.16943,2.198,83.313,-29.0
2026-05-20 17:20:38.290,1181177746,198290,2,0.12891,0.21655,0.79224,-30.466,37.672,-34.084
2026-05-20 17:20:38.490,1181177946,198490,1,-0.3042,0.36133,1.12231,6.29,50.809,-13.519
2026-05-20 17:20:38.490,1181177946,198490,2,-0.11182,0.33276,0.97339,-8.534,8.504,-12.779
2026-05-20 17:20:38.690,1181178146,198690,1,-0.26978,0.3335,1.03418,-3.427,21.168,-7.29
2026-05-20 17:20:38.690,1181178146,198690,2,-0.11963,0.37378,0.91699,-14.969,20.588,2.13
2026-05-20 17:20:38.890,1181178346,198890,1,-0.34277,0.33423,1.05688,-5.702,11.26,-1.473
2026-05-20 17:20:38.890,1181178346,198890,2,-0.28857,0.36426,0.92261,-5.634,18.603,6.863
2026-05-20 17:20:39.090,1181178546,199090,1,-0.38916,0.15576,1.0293,-4.985,-25.031,8.275
2026-05-20 17:20:39.090,1181178546,199090,2,-0.21313,0.32739,0.89258,1.618,-20.733,5.015
2026-05-20 17:20:39.290,1181178746,199290,1,-0.21167,0.2644,0.96313,11.748,-28.718,-2.855
2026-05-20 17:20:39.290,1181178746,199290,2,-0.12939,0.41772,0.87671,-2.053,-18.565,-6.634
2026-05-20 17:20:39.490,1181178946,199490,1,-0.20581,0.30542,1.13818,-8.779,-10.0,-6.573
2026-05-20 17:20:39.490,1181178946,199490,2,-0.18481,0.36035,0.96265,-8.939,-22.71,-1.489
2026-05-20 17:20:39.690,1181179146,199690,1,-0.19678,0.22388,1.28271,-17.511,-44.229,-5.435
2026-05-20 17:20:39.690,1181179146,199690,2,0.29688,0.28491,0.76294,24.916,-97.504,49.824
2026-05-20 17:20:40.104,1181179560,200104,1,0.34741,0.12085,0.73218,-21.649,-122.328,10.412
2026-05-20 17:20:40.104,1181179560,200104,2,0.62573,0.25928,0.50342,-40.733,-123.481,65.885
2026-05-20 17:20:40.438,1181179894,200438,1,0.92676,0.00244,0.32397,-18.809,-89.206,5.756
2026-05-20 17:20:40.438,1181179894,200438,2,0.99609,-0.18628,0.06226,-42.023,-37.45,12.962
2026-05-20 17:20:40.652,1181180108,200652,1,1.13306,-0.07373,0.21118,-15.168,-28.725,3.794
2026-05-20 17:20:40.652,1181180108,200652,2,1.03027,-0.22168,0.07251,-25.779,-7.443,0.985
2026-05-20 17:20:40.852,1181180308,200852,1,1.04663,-0.04468,0.25854,-12.076,-2.412,1.947
2026-05-20 17:20:40.852,1181180308,200852,2,1.00513,-0.20142,0.09082,-17.168,0.924,-0.504
2026-05-20 17:20:41.052,1181180508,201052,1,1.04321,-0.08325,0.29785,-2.366,11.145,3.565
2026-05-20 17:20:41.052,1181180508,201052,2,0.99023,-0.22021,0.09717,4.771,3.26,-4.74
2026-05-20 17:20:41.252,1181180708,201252,1,1.01147,-0.07959,0.34668,3.275,11.695,2.214
2026-05-20 17:20:41.252,1181180708,201252,2,0.9729,-0.19287,0.10913,8.145,6.069,0.13
2026-05-20 17:20:41.452,1181180908,201452,1,1.01538,-0.07568,0.35693,7.611,0.924,-5.992
2026-05-20 17:20:41.452,1181180908,201452,2,0.98389,-0.21729,0.11865,5.939,-3.817,0.374
2026-05-20 17:20:41.652,1181181108,201652,1,1.0271,-0.06592,0.34644,6.168,-2.863,-0.985
2026-05-20 17:20:41.652,1181181108,201652,2,0.9939,-0.19556,0.1228,1.702,-5.038,-0.145
2026-05-20 17:20:41.852,1181181308,201852,1,1.03491,-0.04541,0.33008,0.328,1.443,0.137
2026-05-20 17:20:41.852,1181181308,201852,2,1.00854,-0.18774,0.1084,-2.084,-0.435,-0.504
2026-05-20 17:20:42.052,1181181508,202052,1,1.02075,-0.06104,0.34131,-2.214,3.931,-2.069
2026-05-20 17:20:42.052,1181181508,202052,2,1.00269,-0.18774,0.11475,-4.092,-0.328,-1.427
2026-05-20 17:20:42.252,1181181708,202252,1,1.00269,-0.04834,0.36841,-0.74,1.595,-2.702
2026-05-20 17:20:42.252,1181181708,202252,2,0.9895,-0.18408,0.12842,-4.031,-3.328,-0.183
2026-05-20 17:20:42.452,1181181908,202452,1,1.01685,-0.04663,0.34351,3.687,-4.603,0.122
2026-05-20 17:20:42.452,1181181908,202452,2,0.9917,-0.1958,0.10132,-4.229,-3.863,1.924
2026-05-20 17:20:42.652,1181182108,202652,1,1.04199,-0.0498,0.30322,5.214,-5.053,0.695
2026-05-20 17:20:42.652,1181182108,202652,2,1.00146,-0.20044,0.08594,-2.298,-2.382,0.649
2026-05-20 17:20:42.852,1181182308,202852,1,1.05469,-0.0415,0.29785,5.137,0.71,0.733
2026-05-20 17:20:42.852,1181182308,202852,2,1.00635,-0.20117,0.07617,5.969,-0.229,0.336
2026-05-20 17:20:43.052,1181182508,203052,1,1.04468,-0.04077,0.29565,5.13,3.832,-0.145
2026-05-20 17:20:43.052,1181182508,203052,2,1.01514,-0.19678,0.07983,8.748,2.008,0.718
2026-05-20 17:20:43.252,1181182708,203252,1,1.03247,-0.04736,0.33643,9.153,6.809,-0.435
2026-05-20 17:20:43.252,1181182708,203252,2,1.05225,-0.20776,0.09717,-0.55,-3.473,-7.779
2026-05-20 17:20:43.452,1181182908,203452,1,1.02686,-0.01929,0.3291,0.023,7.412,3.435
2026-05-20 17:20:43.452,1181182908,203452,2,1.01978,-0.17578,0.11353,-5.374,4.412,3.893
2026-05-20 17:20:43.672,1181183128,203672,1,1.00781,-0.0813,0.38672,-4.962,4.313,-0.55
2026-05-20 17:20:43.672,1181183128,203672,2,1.00171,-0.19312,0.10693,-12.992,-8.374,-1.947
2026-05-20 17:20:43.898,1181183354,203898,1,1.01709,-0.06152,0.37598,-9.13,-0.672,-4.092
2026-05-20 17:20:43.898,1181183354,203898,2,0.99878,-0.19727,0.11816,-12.527,-5.122,1.42
2026-05-20 17:20:44.098,1181183554,204098,1,1.02002,-0.0603,0.36255,-8.809,-0.237,-2.26
2026-05-20 17:20:44.098,1181183554,204098,2,0.99097,-0.20264,0.11694,-4.84,-3.504,2.214
2026-05-20 17:20:44.298,1181183754,204298,1,1.03027,-0.0686,0.3501,-6.595,-3.893,0.168
2026-05-20 17:20:44.298,1181183754,204298,2,0.99268,-0.21045,0.11255,-3.16,-2.557,3.42
2026-05-20 17:20:44.498,1181183954,204498,1,1.03955,-0.07593,0.31812,-1.267,-2.695,-1.282
2026-05-20 17:20:44.498,1181183954,204498,2,1.01147,-0.21387,0.0791,2.321,2.237,0.267
2026-05-20 17:20:45.918,1181185374,204917,1,1.02539,-0.05029,0.34937,0.794,4.237,-1.687
2026-05-20 17:20:45.918,1181185374,204917,2,1.00342,-0.20459,0.08862,-1.649,-1.504,-1.473
2026-05-20 17:20:45.117,1181184573,205117,1,1.01563,-0.04761,0.34912,-1.481,2.649,-0.153
2026-05-20 17:20:45.117,1181184573,205117,2,1.00757,-0.21045,0.073,-4.053,-2.656,1.145
2026-05-20 17:20:45.317,1181184773,205317,1,1.02222,-0.04419,0.34009,-1.55,0.679,-0.954
2026-05-20 17:20:45.317,1181184773,205317,2,0.99365,-0.19678,0.07373,-1.718,2.214,0.458
2026-05-20 17:20:45.659,1181185115,205658,1,1.02124,-0.04883,0.35034,-1.053,2.947,-1.038
2026-05-20 17:20:45.659,1181185115,205658,2,0.99341,-0.19727,0.08447,-0.374,2.496,0.87
2026-05-20 17:20:45.858,1181185314,205858,1,1.02246,-0.05103,0.35693,-0.092,1.374,-0.359
2026-05-20 17:20:45.858,1181185314,205858,2,1.00244,-0.20679,0.08936,-0.756,1.198,0.901
2026-05-20 17:20:46.058,1181185514,206058,1,1.02588,-0.05249,0.3479,0.878,0.611,1.092
2026-05-20 17:20:46.058,1181185514,206058,2,1.00391,-0.19897,0.104,-1.221,0.901,-0.206
2026-05-20 17:20:46.258,1181185714,206258,1,1.02979,-0.05566,0.34863,-0.519,1.687,-0.031
2026-05-20 17:20:46.258,1181185714,206258,2,0.99707,-0.20313,0.09277,1.626,2.947,0.397
2026-05-20 17:20:46.458,1181185914,206458,1,1.02563,-0.05273,0.35352,-1.305,2.366,-0.786
2026-05-20 17:20:46.458,1181185914,206458,2,0.99634,-0.20093,0.10938,-1.076,1.794,0.443
2026-05-20 17:20:46.658,1181186114,206658,1,1.02051,-0.05859,0.36719,-1.847,0.366,-0.023
2026-05-20 17:20:46.658,1181186114,206658,2,0.9939,-0.19067,0.12012,-4.779,0.496,0.832
2026-05-20 17:20:47.997,1181187453,206997,1,1.03564,-0.03833,0.35181,-11.802,-2.939,-5.573
2026-05-20 17:20:47.997,1181187453,206997,2,0.99023,-0.24927,0.11108,-10.519,-5.931,1.45
2026-05-20 17:20:47.197,1181186653,207197,1,1.02905,-0.06226,0.31934,-0.855,1.611,7.969
2026-05-20 17:20:47.197,1181186653,207197,2,1.00488,-0.21118,0.12402,10.145,0.939,6.519
2026-05-20 17:20:47.409,1181186865,207409,1,1.0083,-0.03491,0.38965,-8.298,10.435,-2.29
2026-05-20 17:20:47.409,1181186865,207409,2,0.99023,-0.19287,0.11426,-16.214,4.023,3.573
2026-05-20 17:20:47.609,1181187065,207609,1,0.99854,-0.05615,0.42041,-21.496,3.656,-15.321
2026-05-20 17:20:47.609,1181187065,207609,2,0.9812,-0.23242,0.09766,-24.328,4.71,-3.786
2026-05-20 17:20:47.809,1181187265,207809,1,1.01294,-0.05396,0.41064,-15.435,,-3.321
2026-05-20 17:20:47.809,1181187265,207809,2,0.98193,-0.28662,0.15063,-20.198,-5.031,1.229
2026-05-20 17:20:48.009,1181187465,208009,1,1.02783,-0.09009,0.37598,-7.611,-3.412,-1.573
2026-05-20 17:20:48.009,1181187465,208009,2,1.00513,-0.16943,0.02734,38.634,25.702,6.687
2026-05-20 17:20:48.229,1181187685,208228,1,1.04004,-0.06226,0.34692,-5.267,-2.13,-1.672
2026-05-20 17:20:48.229,1181187685,208228,2,0.96997,-0.26782,0.09229,7.763,4.771,1.305
2026-05-20 17:20:48.428,1181187884,208428,1,0.98389,-0.10034,0.38354,4.863,-1.26,3.763
2026-05-20 17:20:48.428,1181187884,208428,2,0.97339,-0.29272,0.13159,-1.313,5.664,-0.595
2026-05-20 17:20:48.628,1181188084,208628,1,1.04028,-0.04639,0.35449,25.313,12.183,3.359
2026-05-20 17:20:48.628,1181188084,208628,2,0.98853,-0.24219,0.13965,26.206,-5.397,-3.947
2026-05-20 17:20:48.828,1181188284,208828,1,1.00635,-0.00684,0.41138,16.489,9.069,4.397
2026-05-20 17:20:48.828,1181188284,208828,2,0.97363,-0.18774,0.13281,6.351,-0.183,-4.336
2026-05-20 17:20:49.028,1181188484,209028,1,0.99023,-0.01001,0.44116,4.824,2.809,0.519
2026-05-20 17:20:49.028,1181188484,209028,2,0.96631,-0.20801,0.10986,-15.023,-0.618,0.504
2026-05-20 17:20:49.228,1181188684,209228,1,1.00024,-0.03589,0.43359,-2.985,-3.023,5.802
2026-05-20 17:20:49.228,1181188684,209228,2,0.98608,-0.21729,0.14648,-7.779,-0.511,2.718
2026-05-20 17:20:49.428,1181188884,209428,1,1.00757,-0.07129,0.40601,-7.954,-3.779,-1.26
2026-05-20 17:20:49.428,1181188884,209428,2,0.99512,-0.23535,0.15454,-10.992,-2.015,0.305
2026-05-20 17:20:49.651,1181189107,209651,1,1.01758,-0.08252,0.38208,-5.374,-0.405,-3.664
2026-05-20 17:20:49.651,1181189107,209651,2,0.98706,-0.25073,0.13062,-10.71,-2.336,0.137
2026-05-20 17:20:49.851,1181189307,209851,1,1.01196,-0.05493,0.36475,-2.511,0.55,-4.183
2026-05-20 17:20:49.851,1181189307,209851,2,0.98706,-0.26636,0.08813,-7.687,-1.595,-0.809
2026-05-20 17:20:50.051,1181189507,210051,1,1.02588,-0.05103,0.36182,-1.427,2.473,-2.061
2026-05-20 17:20:50.051,1181189507,210051,2,0.98999,-0.2605,0.08203,-2.397,1.496,-0.855
2026-05-20 17:20:50.251,1181189707,210251,1,1.02295,-0.04077,0.37915,-3.023,2.885,-1.229
2026-05-20 17:20:50.251,1181189707,210251,2,0.97559,-0.25586,0.10156,-5.42,2.725,-0.336
2026-05-20 17:20:50.451,1181189907,210451,1,1.00513,-0.05933,0.38647,-2.901,0.344,0.893
2026-05-20 17:20:50.451,1181189907,210451,2,0.99438,-0.26538,0.09912,-1.626,-0.076,2.786
2026-05-20 17:20:50.651,1181190107,210651,1,1.01196,-0.06934,0.37939,-1.473,-0.771,1.397
2026-05-20 17:20:50.651,1181190107,210651,2,0.9873,-0.25903,0.10205,-0.702,-1.023,2.092
2026-05-20 17:20:50.851,1181190307,210851,1,1.00806,-0.05811,0.37427,0.649,-1.573,0.901
2026-05-20 17:20:50.851,1181190307,210851,2,0.97974,-0.25317,0.11157,-2.084,5.634,1.969
2026-05-20 17:20:51.051,1181190507,211051,1,1.01733,-0.08398,0.36377,-2.061,-1.908,2.092
2026-05-20 17:20:51.051,1181190507,211051,2,0.98071,-0.271,0.09619,-5.13,1.168,2.557
2026-05-20 17:20:51.251,1181190707,211251,1,1.02124,-0.07837,0.34668,-1.893,-0.649,0.992
2026-05-20 17:20:51.251,1181190707,211251,2,0.98438,-0.28271,0.09399,-1.74,2.489,2.244
2026-05-20 17:20:51.451,1181190907,211451,1,1.02661,-0.09521,0.34277,-1.71,2.679,-0.954
2026-05-20 17:20:51.451,1181190907,211451,2,0.97192,-0.27881,0.10693,-0.595,1.748,-0.58
2026-05-20 17:20:51.716,1181191172,211716,1,1.01416,-0.0791,0.35791,-2.237,2.061,-1.473
2026-05-20 17:20:51.716,1181191172,211716,2,0.97778,-0.26514,0.11011,-7.16,0.26,-0.702
2026-05-20 17:20:52.918,1181192374,211918,1,1.0271,-0.07275,0.34448,-3.771,0.504,-2.763
2026-05-20 17:20:52.918,1181192374,211918,2,0.97217,-0.26709,0.0979,-3.397,-2.504,0.817
2026-05-20 17:20:52.118,1181191574,212118,1,1.02441,-0.06714,0.33936,-3.069,0.115,-2.863
2026-05-20 17:20:52.118,1181191574,212118,2,0.98608,-0.2605,0.07568,-4.603,-2.916,0.344
2026-05-20 17:20:52.318,1181191774,212318,1,1.02612,-0.05835,0.34204,-5.076,1.74,-2.664
2026-05-20 17:20:52.318,1181191774,212318,2,0.98779,-0.26978,0.06958,-5.298,-0.519,0.198
2026-05-20 17:20:52.518,1181191974,212518,1,1.01538,-0.06689,0.34497,-4.656,3.466,-2.313
2026-05-20 17:20:52.518,1181191974,212518,2,0.98706,-0.26685,0.08105,3.122,2.504,-1.008
2026-05-20 17:20:52.718,1181192174,212718,1,1.01733,-0.06982,0.35815,0.382,3.519,-1.374
2026-05-20 17:20:52.718,1181192174,212718,2,0.98267,-0.26392,0.07983,2.198,0.107,-0.504
2026-05-20 17:20:53.918,1181193374,212918,1,1.04102,-0.07935,0.32446,5.779,-0.542,-2.603
2026-05-20 17:20:53.918,1181193374,212918,2,0.99536,-0.26904,0.09351,10.679,3.0,-2.076
2026-05-20 17:20:53.131,1181192587,213131,1,1.01123,-0.04907,0.34302,8.45,5.092,1.382
2026-05-20 17:20:53.131,1181192587,213131,2,0.99487,-0.25415,0.08179,12.832,2.458,-0.321
2026-05-20 17:20:53.331,1181192787,213331,1,1.01904,-0.07153,0.3772,4.763,7.702,-0.809
2026-05-20 17:20:53.331,1181192787,213331,2,0.97998,-0.23755,0.11816,11.084,3.649,-1.702
2026-05-20 17:20:53.531,1181192987,213531,1,0.99976,-0.05103,0.40527,2.985,3.214,-0.504
2026-05-20 17:20:53.531,1181192987,213531,2,0.98584,-0.23242,0.11011,4.427,-0.305,1.58
2026-05-20 17:20:53.731,1181193187,213731,1,1.01465,-0.04736,0.39795,1.183,-0.832,-1.542
2026-05-20 17:20:53.731,1181193187,213731,2,0.98901,-0.2168,0.12427,-0.687,-1.84,0.87
2026-05-20 17:20:54.931,1181194387,213931,1,1.01294,-0.05054,0.38208,-0.878,-0.763,-2.985
2026-05-20 17:20:54.931,1181194387,213931,2,0.99927,-0.23169,0.11865,-5.55,-2.084,-1.473
2026-05-20 17:20:54.131,1181193587,214131,1,1.02075,-0.04028,0.37842,-2.252,2.458,-5.656
2026-05-20 17:20:54.131,1181193587,214131,2,0.99487,-0.22266,0.11401,-4.565,-0.939,-3.527
2026-05-20 17:20:54.331,1181193787,214331,1,1.01563,-0.0083,0.38696,-3.443,3.412,-7.679
2026-05-20 17:20:54.331,1181193787,214331,2,0.99927,-0.20557,0.11084,-4.443,-0.382,-0.473
2026-05-20 17:20:54.531,1181193987,214531,1,1.00684,0.00757,0.39941,-1.802,2.45,-5.511
2026-05-20 17:20:54.531,1181193987,214531,2,0.99487,-0.20361,0.08325,-4.023,-0.237,-0.282
2026-05-20 17:20:54.731,1181194187,214731,1,1.01172,0.02417,0.39819,-1.565,0.58,-4.374
2026-05-20 17:20:54.731,1181194187,214731,2,0.99609,-0.21313,0.09619,-5.855,1.618,-1.221
2026-05-20 17:20:55.931,1181195387,214931,1,1.01636,0.00635,0.38843,-1.115,-0.137,-1.55
2026-05-20 17:20:55.931,1181195387,214931,2,0.99951,-0.21924,0.11011,1.397,-0.069,0.817
2026-05-20 17:20:55.131,1181194587,215131,1,1.01001,0.01733,0.39111,2.412,0.206,-1.061
2026-05-20 17:20:55.131,1181194587,215131,2,0.99976,-0.21094,0.07593,4.756,-0.947,1.588
2026-05-20 17:20:55.331,1181194787,215331,1,1.00757,0.02344,0.3811,3.779,0.092,-3.298
2026-05-20 17:20:55.331,1181194787,215331,2,0.99219,-0.2168,0.09229,8.847,-1.038,-0.191
2026-05-20 17:20:55.531,1181194987,215531,1,1.01709,0.06519,0.36743,2.481,4.382,-7.13
2026-05-20 17:20:55.531,1181194987,215531,2,1.00317,-0.20898,0.08301,7.573,2.695,-1.977
2026-05-20 17:20:55.731,1181195187,215731,1,1.00635,0.06787,0.39575,4.183,8.931,-6.176
2026-05-20 17:20:55.731,1181195187,215731,2,0.99634,-0.17505,0.12427,9.969,4.252,-5.725
2026-05-20 17:20:56.931,1181196387,215931,1,0.97217,0.14087,0.44556,1.122,6.977,-2.252
2026-05-20 17:20:56.931,1181196387,215931,2,0.99341,-0.14697,0.10913,-0.916,4.031,6.405
2026-05-20 17:20:56.131,1181195587,216131,1,0.99829,0.09009,0.42529,0.359,-0.786,4.244
2026-05-20 17:20:56.131,1181195587,216131,2,1.01025,-0.16382,0.11499,-4.489,-0.511,0.939
2026-05-20 17:20:56.331,1181195787,216331,1,0.98145,0.11108,0.43335,2.046,-1.55,-0.351
2026-05-20 17:20:56.331,1181195787,216331,2,1.00684,-0.16699,0.14526,-6.893,0.603,3.511
2026-05-20 17:20:56.531,1181195987,216531,1,0.99561,0.09814,0.41235,1.481,-0.679,-1.427
2026-05-20 17:20:56.531,1181195987,216531,2,1.0022,-0.17212,0.13647,-3.71,-1.45,0.824
2026-05-20 17:20:56.731,1181196187,216731,1,1.00708,0.11108,0.42603,5.221,4.977,0.084
2026-05-20 17:20:56.731,1181196187,216731,2,0.99731,-0.16895,0.11597,2.076,1.779,-2.565
2026-05-20 17:20:57.931,1181197387,216931,1,0.98291,0.11133,0.42505,0.55,3.183,0.802
2026-05-20 17:20:57.931,1181197387,216931,2,1.01025,-0.17993,0.10889,0.42,-0.015,2.008
2026-05-20 17:20:57.196,1181196652,217196,1,1.01221,0.11011,0.41406,1.321,2.557,-0.58
2026-05-20 17:20:57.196,1181196652,217196,2,0.99829,-0.18115,0.10986,1.137,1.374,-1.267
2026-05-20 17:20:57.396,1181196852,217396,1,0.98608,0.10962,0.4187,-0.718,2.496,-3.206
2026-05-20 17:20:57.396,1181196852,217396,2,1.00171,-0.17407,0.12427,2.008,1.328,-0.038
2026-05-20 17:20:57.596,1181197052,217596,1,0.98999,0.10376,0.42334,1.374,1.794,-0.359
2026-05-20 17:20:57.596,1181197052,217596,2,0.99878,-0.18018,0.12354,1.55,0.496,0.29
2026-05-20 17:20:57.796,1181197252,217796,1,0.9939,0.10498,0.42358,4.313,1.725,1.473
2026-05-20 17:20:57.796,1181197252,217796,2,1.00146,-0.1665,0.1123,-0.382,-0.374,1.71
2026-05-20 17:20:58.996,1181198452,217996,1,0.98511,0.10425,0.41821,1.954,-1.359,4.328
2026-05-20 17:20:58.996,1181198452,217996,2,0.99609,-0.15308,0.11597,1.206,0.206,1.069
2026-05-20 17:20:58.196,1181197652,218196,1,0.99951,0.1001,0.4187,-2.985,-0.198,1.885
2026-05-20 17:20:58.196,1181197652,218196,2,1.00415,-0.16846,0.11694,-0.687,4.382,0.977
2026-05-20 17:20:58.396,1181197852,218396,1,0.99268,0.11572,0.40894,-2.962,-0.389,3.137
2026-05-20 17:20:58.396,1181197852,218396,2,0.99854,-0.16309,0.10986,-3.588,1.313,3.985
2026-05-20 17:20:58.596,1181198052,218596,1,1.01318,0.10767,0.40625,-7.931,-2.74,4.221
2026-05-20 17:20:58.596,1181198052,218596,2,1.00732,-0.17236,0.10083,-11.321,1.595,6.412
2026-05-20 17:20:58.796,1181198252,218796,1,1.00708,0.10596,0.3855,-6.176,-7.099,4.84
2026-05-20 17:20:58.796,1181198252,218796,2,1.01221,-0.19922,0.0835,-16.611,-2.313,0.443
2026-05-20 17:20:59.996,1181199452,218996,1,0.99341,0.01758,0.35962,-13.565,-6.687,7.542
2026-05-20 17:20:59.996,1181199452,218996,2,1.00391,-0.23413,0.09839,-9.748,-1.0,9.061
2026-05-20 17:20:59.196,1181198652,219196,1,1.00195,0.00879,0.35498,-15.412,-3.885,3.725
2026-05-20 17:20:59.196,1181198652,219196,2,0.99048,-0.23584,0.10571,-20.168,-4.229,-2.427
2026-05-20 17:20:59.396,1181198852,219396,1,1.02539,-0.06055,0.3374,-8.542,0.237,-3.916
2026-05-20 17:20:59.396,1181198852,219396,2,0.97852,-0.2998,0.06567,-12.672,2.817,-4.71
2026-05-20 17:20:59.596,1181199052,219596,1,1.06836,-0.08984,0.26099,5.061,-0.809,-4.0
2026-05-20 17:20:59.596,1181199052,219596,2,1.0022,-0.30835,0.08472,13.962,-6.977,-5.71
2026-05-20 17:20:59.796,1181199252,219796,1,1.07153,-0.10938,0.25977,22.656,11.038,7.336
2026-05-20 17:20:59.796,1181199252,219796,2,1.05029,-0.24658,0.06665,30.573,-0.137,-0.153
2026-05-20 17:21:00.996,1181200452,219996,1,1.04419,0.00244,0.33301,33.611,-1.099,-0.725
2026-05-20 17:21:00.996,1181200452,219996,2,0.99365,-0.20923,0.11108,-4.786,-6.244,-2.672
2026-05-20 17:21:00.196,1181199652,220196,1,1.01538,0.06641,0.31445,57.122,3.069,2.702
2026-05-20 17:21:00.196,1181199652,220196,2,1.02051,-0.11963,0.09448,10.504,-6.038,3.939
2026-05-20 17:21:00.396,1181199852,220396,1,1.03687,0.11987,0.28662,33.565,5.504,9.145
2026-05-20 17:21:00.396,1181199852,220396,2,1.00098,-0.10034,0.0542,37.794,7.496,8.137
2026-05-20 17:21:00.596,1181200052,220596,1,1.02368,0.10425,0.31885,5.366,2.931,2.55
2026-05-20 17:21:00.596,1181200052,220596,2,1.01172,-0.10449,0.11646,9.366,4.779,1.046
2026-05-20 17:21:00.796,1181200252,220796,1,1.03687,-0.01221,0.38843,-1.061,6.519,-7.687
2026-05-20 17:21:00.796,1181200252,220796,2,1.02588,-0.20752,0.20215,-19.282,0.473,-8.29
