datetime,epoch_ms,ts_millis,mpu_id,ax,ay,az,gx,gy,gz
2026-05-23 16:05:34.294,1435873750,7294,1,1.00122,0.1394,0.3335,12.443,-9.893,1.511
2026-05-23 16:05:34.294,1435873750,7294,2,0.88281,0.10669,0.50415,10.809,-3.206,-3.023
2026-05-23 16:05:34.494,1435873950,7494,1,0.46045,0.11792,0.00317,20.008,6.084,7.763
2026-05-23 16:05:34.494,1435873950,7494,2,0.80225,0.18506,0.68066,5.427,1.817,-0.618
2026-05-23 16:05:34.694,1435874150,7694,1,0.41357,-0.03882,0.10815,45.695,86.504,11.191
2026-05-23 16:05:34.694,1435874150,7694,2,0.62988,0.08203,0.5293,-26.084,46.55,-7.718
2026-05-23 16:05:34.894,1435874350,7894,1,0.72437,0.01367,0.59253,-10.794,15.87,-2.084
2026-05-23 16:05:34.894,1435874350,7894,2,0.91675,-0.0105,0.76343,-10.824,-17.015,0.137
2026-05-23 16:05:34.094,1435873550,8094,1,1.37012,0.0769,0.78125,33.351,-87.626,-3.733
2026-05-23 16:05:34.094,1435873550,8094,2,1.99994,0.56104,1.354,12.954,-45.282,2.634
2026-05-23 16:05:35.294,1435874750,8294,1,0.5813,0.01611,0.20947,14.779,-15.267,9.542
2026-05-23 16:05:35.294,1435874750,8294,2,0.28076,0.06274,0.53369,29.855,37.718,2.878
2026-05-23 16:05:35.494,1435874950,8494,1,1.3584,0.07349,0.41235,-5.924,-18.817,5.198
2026-05-23 16:05:35.494,1435874950,8494,2,1.5564,0.1311,0.7124,10.893,42.267,14.046
2026-05-23 16:05:35.694,1435875150,8694,1,0.85107,0.01709,0.10352,10.847,21.42,-0.74
2026-05-23 16:05:35.694,1435875150,8694,2,0.82007,0.19873,0.58179,5.359,-0.771,-3.191
2026-05-23 16:05:35.894,1435875350,8894,1,1.2439,0.04907,0.55811,-6.26,31.542,-9.221
2026-05-23 16:05:35.894,1435875350,8894,2,0.94238,0.18677,0.80518,6.519,64.237,-35.794
2026-05-23 16:05:35.094,1435874550,9094,1,0.28442,0.10596,0.02954,7.863,36.183,-13.275
2026-05-23 16:05:35.094,1435874550,9094,2,0.19849,0.08057,0.70215,-0.427,48.542,-5.863
2026-05-23 16:05:36.294,1435875750,9294,1,0.33496,0.16138,0.35718,-3.435,34.786,12.153
2026-05-23 16:05:36.294,1435875750,9294,2,0.76807,0.05029,1.01367,12.771,1.702,34.74
2026-05-23 16:05:36.494,1435875950,9494,1,1.4856,0.44263,1.40161,-2.252,23.046,-4.0
2026-05-23 16:05:36.494,1435875950,9494,2,1.11523,0.35376,0.90332,-51.168,-2.084,-28.863
2026-05-23 16:05:36.694,1435876150,9694,1,0.29443,0.26392,-0.07813,-12.122,14.366,-25.595
2026-05-23 16:05:36.694,1435876150,9694,2,0.28638,-0.23779,0.70459,-117.015,-72.435,-25.046
2026-05-23 16:05:36.894,1435876350,9894,1,1.42114,0.03979,1.28931,1.0,-49.038,27.237
2026-05-23 16:05:36.894,1435876350,9894,2,1.99994,-0.36768,1.99994,102.221,125.473,65.939
2026-05-23 16:05:36.094,1435875550,10094,1,0.33887,-0.03589,0.20874,-1.504,-7.725,1.122
2026-05-23 16:05:36.094,1435875550,10094,2,0.30933,0.09204,0.65527,51.55,12.908,23.443
2026-05-23 16:05:37.294,1435876750,10294,1,1.18457,0.25366,0.91943,-16.534,10.519,-3.55
2026-05-23 16:05:37.294,1435876750,10294,2,1.1228,0.146,1.27612,-15.252,11.802,-64.282
2026-05-23 16:05:37.494,1435876950,10494,1,0.47803,0.0708,0.41895,-14.137,-11.634,4.122
2026-05-23 16:05:37.494,1435876950,10494,2,0.82861,0.05225,0.95703,-45.183,-70.931,-5.389
2026-05-23 16:05:37.694,1435877150,10694,1,0.73145,-0.10718,0.66333,-6.519,-13.313,-1.542
2026-05-23 16:05:37.694,1435877150,10694,2,0.59229,-0.23364,0.78442,35.947,14.496,-0.496
2026-05-23 16:05:37.894,1435877350,10894,1,0.79614,-0.01904,0.62817,5.878,-2.405,-2.153
2026-05-23 16:05:37.894,1435877350,10894,2,1.06641,0.06836,0.91919,-1.519,-64.954,-23.023
2026-05-23 16:05:37.094,1435876550,11094,1,0.64819,0.06714,0.53149,2.733,4.802,-1.038
2026-05-23 16:05:37.094,1435876550,11094,2,0.81641,0.08887,0.66455,1.489,24.779,16.008
2026-05-23 16:05:38.294,1435877750,11294,1,0.74756,0.08643,0.58228,-1.061,4.107,-0.718
2026-05-23 16:05:38.294,1435877750,11294,2,0.87695,0.10156,0.66089,0.649,3.779,-7.817
2026-05-23 16:05:38.494,1435877950,11494,1,0.77441,0.0957,0.69702,-10.42,4.015,1.229
2026-05-23 16:05:38.494,1435877950,11494,2,1.56177,0.09888,1.04199,-15.061,-41.511,-9.565
2026-05-23 16:05:38.694,1435878150,11694,1,0.57056,-0.02661,0.62256,-15.198,3.55,-1.0
2026-05-23 16:05:38.694,1435878150,11694,2,0.70532,0.07129,0.90967,8.954,46.023,9.84
2026-05-23 16:05:38.894,1435878350,11894,1,0.21509,0.01392,0.27466,1.656,38.641,9.557
2026-05-23 16:05:38.894,1435878350,11894,2,0.75293,0.1416,0.85376,-11.206,-27.832,11.664
2026-05-23 16:05:38.094,1435877550,12094,1,0.88916,0.12939,0.98901,18.557,-34.473,-5.626
2026-05-23 16:05:38.094,1435877550,12094,2,1.00488,0.13037,1.17407,-68.771,-19.16,-9.267
2026-05-23 16:05:39.294,1435878750,12294,1,-0.05762,0.00732,-0.06958,-19.115,77.366,7.718
2026-05-23 16:05:39.294,1435878750,12294,2,0.09863,-0.02002,0.52148,-62.84,16.84,35.939
2026-05-23 16:05:39.494,1435878950,12494,1,0.65479,0.0022,0.87598,19.168,-22.511,-17.214
2026-05-23 16:05:39.494,1435878950,12494,2,0.93872,0.27441,1.08154,113.336,-15.298,-16.557
2026-05-23 16:05:39.694,1435879150,12694,1,1.14087,0.1626,0.93408,-1.038,22.053,1.55
2026-05-23 16:05:39.694,1435879150,12694,2,0.8418,0.25488,1.09497,71.718,39.038,7.313
2026-05-23 16:05:39.894,1435879350,12894,1,0.32397,0.01978,0.40015,-5.115,-19.824,1.519
2026-05-23 16:05:39.894,1435879350,12894,2,0.64502,0.07227,0.5835,-5.053,-38.878,13.809
2026-05-23 16:05:39.094,1435878550,13094,1,1.0415,0.05981,0.75684,-24.321,-29.313,-4.16
2026-05-23 16:05:39.094,1435878550,13094,2,0.87549,-0.12573,0.46729,-12.397,-16.626,12.725
2026-05-23 16:05:40.294,1435879750,13294,1,0.70923,-0.00024,0.39697,-29.695,-6.504,-0.771
2026-05-23 16:05:40.294,1435879750,13294,2,1.01904,-0.00952,0.77808,-41.031,-5.908,12.176
2026-05-23 16:05:40.494,1435879950,13494,1,0.8877,-0.06348,0.48193,8.611,-15.611,7.557
2026-05-23 16:05:40.494,1435879950,13494,2,0.8562,-0.00073,0.61255,-4.16,-10.84,-6.282
2026-05-23 16:05:40.694,1435880150,13694,1,0.93726,0.04541,0.4231,6.74,-11.588,-13.748
2026-05-23 16:05:40.694,1435880150,13694,2,1.01685,0.02979,0.69922,-7.191,-1.42,2.718
2026-05-23 16:05:40.894,1435880350,13894,1,0.84009,0.03662,0.39673,8.664,-9.534,4.908
2026-05-23 16:05:40.894,1435880350,13894,2,0.97437,0.03369,0.62524,5.748,-4.802,-1.527
2026-05-23 16:05:40.094,1435879550,14094,1,0.96802,0.0769,0.33765,6.298,-7.321,-3.947
2026-05-23 16:05:40.094,1435879550,14094,2,0.99243,0.05811,0.64844,-3.954,-1.511,7.473
2026-05-23 16:05:41.294,1435880750,14294,1,0.93921,0.03979,0.37671,-2.649,2.298,-0.527
2026-05-23 16:05:41.294,1435880750,14294,2,0.96143,0.04321,0.60791,7.588,7.008,-1.13
2026-05-23 16:05:41.494,1435880950,14494,1,0.91577,0.02271,0.39307,-2.252,4.252,-2.924
2026-05-23 16:05:41.494,1435880950,14494,2,0.95264,0.06396,0.70239,3.42,2.542,-0.588
2026-05-23 16:05:41.694,1435881150,14694,1,0.89209,0.05542,0.39917,-2.061,2.45,1.206
2026-05-23 16:05:41.694,1435881150,14694,2,0.95581,0.07373,0.65454,1.275,0.618,-1.649
2026-05-23 16:05:46.784,1435886240,19784,1,0.70508,-0.09058,0.37256,-27.496,-63.649,-7.023
2026-05-23 16:05:46.784,1435886240,19784,2,0.93481,0.02319,0.7373,-21.901,-67.649,15.069
2026-05-23 16:05:46.984,1435886440,19984,1,0.82275,-0.14233,0.23584,-22.122,-42.511,-27.832
2026-05-23 16:05:46.984,1435886440,19984,2,0.87744,-0.27271,0.49731,-50.344,-87.046,-15.168
2026-05-23 16:05:46.184,1435885640,20184,1,0.90771,0.08936,0.29712,39.153,-57.924,10.115
2026-05-23 16:05:46.184,1435885640,20184,2,1.01953,0.2854,0.63745,91.695,15.084,-12.908
2026-05-23 16:05:47.384,1435886840,20384,1,0.92383,0.1438,0.00439,3.618,-37.672,17.817
2026-05-23 16:05:47.384,1435886840,20384,2,0.82861,0.21997,0.44214,0.053,-15.45,-41.718
2026-05-23 16:05:47.584,1435887040,20584,1,1.13281,0.20288,-0.02783,19.26,-7.0,13.397
2026-05-23 16:05:47.584,1435887040,20584,2,0.90649,0.27148,0.39136,2.489,2.405,16.542
2026-05-23 16:05:47.784,1435887240,20784,1,0.61865,0.03149,0.13916,43.443,-8.305,-7.176
2026-05-23 16:05:47.784,1435887240,20784,2,1.00269,-0.13916,0.68457,34.74,-47.87,-8.611
2026-05-23 16:05:47.984,1435887440,20984,1,1.02905,0.17188,0.13745,59.573,9.542,-7.939
2026-05-23 16:05:47.984,1435887440,20984,2,0.82983,0.05103,0.38745,52.244,-12.58,13.16
2026-05-23 16:05:47.184,1435886640,21184,1,1.01196,0.18335,-0.00293,27.748,9.481,4.244
2026-05-23 16:05:47.184,1435886640,21184,2,0.90967,0.07642,0.19287,15.321,9.42,-0.496
2026-05-23 16:05:48.384,1435887840,21384,1,1.22192,0.29712,0.1604,-11.0,-13.893,2.374
2026-05-23 16:05:48.384,1435887840,21384,2,1.354,0.45557,0.15283,47.786,37.389,-13.573
2026-05-23 16:05:48.584,1435888040,21584,1,0.92432,0.24243,0.23706,-25.679,24.603,8.366
2026-05-23 16:05:48.584,1435888040,21584,2,1.00269,0.22437,0.4873,-36.351,-42.389,-49.992
2026-05-23 16:05:48.784,1435888240,21784,1,0.86499,0.27661,0.02222,-12.748,-11.641,-5.336
2026-05-23 16:05:48.784,1435888240,21784,2,0.65454,0.32788,0.36157,-13.634,23.13,6.855
2026-05-23 16:05:48.984,1435888440,21984,1,1.21753,-0.15723,0.45947,-87.519,38.244,-16.244
2026-05-23 16:05:48.984,1435888440,21984,2,0.80225,0.63843,0.97583,36.237,162.824,-77.511
2026-05-23 16:05:48.184,1435887640,22184,1,0.81812,0.00562,0.36963,-85.389,51.305,-71.221
2026-05-23 16:05:48.184,1435887640,22184,2,0.91699,-0.02222,0.47852,-100.954,21.519,-21.939
2026-05-23 16:05:49.384,1435888840,22384,1,0.72925,0.28564,0.54248,-10.427,57.191,-19.42
2026-05-23 16:05:49.384,1435888840,22384,2,0.85547,0.36206,1.12744,123.458,159.763,-7.328
2026-05-23 16:05:49.584,1435889040,22584,1,0.4873,0.00903,0.85547,-27.557,98.931,-9.733
2026-05-23 16:05:49.584,1435889040,22584,2,0.53687,0.40381,0.73706,-72.649,17.053,-58.511
2026-05-23 16:05:49.784,1435889240,22784,1,-0.07324,-0.09741,0.88306,-48.351,91.153,-43.321
2026-05-23 16:05:49.784,1435889240,22784,2,0.3501,0.14038,1.22949,-52.977,80.924,-18.397
2026-05-23 16:05:49.984,1435889440,22984,1,-0.31958,-0.1687,0.86841,-8.0,16.992,-9.718
2026-05-23 16:05:49.984,1435889440,22984,2,0.07349,-0.39893,1.38501,22.038,-9.939,-4.908
2026-05-23 16:05:49.184,1435888640,23184,1,-0.17456,0.14258,0.73975,11.282,-65.374,0.534
2026-05-23 16:05:49.184,1435888640,23184,2,0.72144,0.1687,0.9519,0.443,-78.008,24.298
2026-05-23 16:05:50.384,1435889840,23384,1,0.26147,-0.05127,0.75488,-13.947,-98.511,-2.611
2026-05-23 16:05:50.384,1435889840,23384,2,0.42432,0.13696,0.81909,-5.969,-122.763,10.183
2026-05-23 16:05:50.584,1435890040,23584,1,0.33472,0.05151,0.37695,-11.931,-141.901,-3.519
2026-05-23 16:05:50.584,1435890040,23584,2,1.11108,0.14404,1.20068,63.985,-78.863,21.55
2026-05-23 16:05:50.784,1435890240,23784,1,1.12573,0.052,0.58813,15.206,-4.519,-6.748
2026-05-23 16:05:50.784,1435890240,23784,2,0.72559,0.0835,0.56885,-12.168,-5.779,-0.611
2026-05-23 16:05:50.984,1435890440,23984,1,0.93237,0.1333,0.45947,-14.977,-48.733,-7.466
2026-05-23 16:05:50.984,1435890440,23984,2,1.6792,0.30591,0.77197,27.527,-64.153,-27.13
2026-05-23 16:05:50.184,1435889640,24184,1,0.60547,0.05005,0.10986,-8.145,18.305,-12.763
2026-05-23 16:05:50.184,1435889640,24184,2,0.68774,0.10327,0.5,-46.145,16.931,18.947
2026-05-23 16:05:51.384,1435890840,24384,1,0.86304,0.19189,0.43774,-6.26,-2.947,6.122
2026-05-23 16:05:51.384,1435890840,24384,2,1.00928,0.00098,0.68433,-34.122,13.84,31.763
2026-05-23 16:05:51.584,1435891040,24584,1,0.81079,0.04004,0.45508,6.282,-7.542,7.023
2026-05-23 16:05:51.584,1435891040,24584,2,0.95654,0.19019,0.66748,12.443,-7.282,-17.183
2026-05-23 16:05:51.784,1435891240,24784,1,0.81958,-0.01831,0.49805,-4.969,6.244,4.229
2026-05-23 16:05:51.784,1435891240,24784,2,0.89063,0.16431,0.51904,4.679,19.954,-10.412
2026-05-23 16:05:51.984,1435891440,24984,1,0.86255,0.04541,0.479,-1.947,-8.84,-6.878
2026-05-23 16:05:51.984,1435891440,24984,2,0.97217,0.14624,0.70776,0.237,-12.366,-0.183
2026-05-23 16:05:51.184,1435890640,25184,1,0.89307,0.02759,0.41943,9.634,1.382,-3.046
2026-05-23 16:05:51.184,1435890640,25184,2,1.13794,0.23755,0.74243,5.641,1.466,4.267
2026-05-23 16:05:52.384,1435891840,25384,1,1.06226,0.1084,0.39819,1.382,79.008,-0.908
2026-05-23 16:05:52.384,1435891840,25384,2,0.76831,0.16016,0.78174,-1.282,126.939,-12.824
2026-05-23 16:05:52.584,1435892040,25584,1,0.31738,-0.05737,0.83057,-13.901,106.74,-26.504
2026-05-23 16:05:52.584,1435892040,25584,2,0.48193,-0.03711,1.19702,12.71,80.611,-9.382
2026-05-23 16:05:52.784,1435892240,25784,1,0.18384,0.09814,1.07617,-3.992,37.679,-1.763
2026-05-23 16:05:52.784,1435892240,25784,2,0.23145,0.13135,1.1272,-18.687,-19.0,8.076
2026-05-23 16:05:52.984,1435892440,25984,1,0.1665,0.06812,0.81274,9.252,-83.916,11.198
2026-05-23 16:05:52.984,1435892440,25984,2,0.51123,0.24268,0.98071,29.336,-82.573,20.802
2026-05-23 16:05:52.184,1435891640,26184,1,0.57056,0.00708,0.49609,8.985,-106.008,-4.603
2026-05-23 16:05:52.184,1435891640,26184,2,0.69287,0.13525,0.80786,14.099,-62.313,20.702
2026-05-23 16:05:53.384,1435892840,26384,1,0.79468,0.15479,0.39795,0.397,-73.969,1.74
2026-05-23 16:05:53.384,1435892840,26384,2,0.75195,0.12109,0.82227,-38.435,-65.427,23.038
2026-05-23 16:05:53.584,1435893040,26584,1,0.96362,0.14111,0.16846,-37.534,-38.573,-21.985
2026-05-23 16:05:53.584,1435893040,26584,2,0.94116,0.04126,0.54785,-52.885,-37.344,3.29
2026-05-23 16:05:53.784,1435893240,26784,1,1.06885,0.15649,0.1582,-35.45,-12.198,-20.58
2026-05-23 16:05:53.784,1435893240,26784,2,1.02881,0.0083,0.5127,-13.0,5.321,4.42
2026-05-23 16:05:53.984,1435893440,26984,1,0.95703,0.14966,0.2688,-32.656,19.382,-0.977
2026-05-23 16:05:53.984,1435893440,26984,2,0.98804,0.03052,0.55396,2.481,40.069,-11.939
2026-05-23 16:05:53.184,1435892640,27184,1,0.87695,0.13281,0.37329,12.618,53.55,18.771
2026-05-23 16:05:53.184,1435892640,27184,2,0.9248,0.03345,0.68726,23.756,41.985,-13.267
2026-05-23 16:05:54.384,1435893840,27384,1,0.73413,0.11816,0.38794,32.87,75.748,29.099
2026-05-23 16:05:54.384,1435893840,27384,2,0.94092,0.24902,0.66602,84.992,101.809,23.71
2026-05-23 16:05:54.584,1435894040,27584,1,0.63574,0.20508,0.52734,-13.702,120.481,-8.565
2026-05-23 16:05:54.584,1435894040,27584,2,0.90625,0.02612,1.40137,-17.794,92.115,10.763
2026-05-23 16:05:54.784,1435894240,27784,1,0.05591,-0.02686,0.85449,-33.916,95.595,-6.641
2026-05-23 16:05:54.784,1435894240,27784,2,0.4668,-0.04102,1.2644,-16.557,62.145,5.496
2026-05-23 16:05:54.984,1435894440,27984,1,-0.28467,0.01807,0.88867,-5.908,73.191,3.198
2026-05-23 16:05:54.984,1435894440,27984,2,0.32153,0.14575,1.36743,-22.672,64.069,-0.16
2026-05-23 16:05:54.184,1435893640,28184,1,-0.48926,-0.0686,0.79614,-2.397,30.366,-3.252
2026-05-23 16:05:54.184,1435893640,28184,2,0.17944,-0.06201,1.43579,-9.847,28.725,2.916
2026-05-23 16:05:55.384,1435894840,28384,1,-0.74683,0.00562,0.74585,-11.809,11.786,-4.901
2026-05-23 16:05:55.384,1435894840,28384,2,0.1499,-0.05591,1.323,-6.275,3.885,5.359
2026-05-23 16:05:55.584,1435895040,28584,1,-0.54028,-0.10181,0.70825,2.351,-6.611,-3.779
2026-05-23 16:05:55.584,1435895040,28584,2,0.00098,-0.0625,1.44067,5.145,-8.221,2.237
2026-05-23 16:05:55.784,1435895240,28784,1,-0.46899,-0.06274,0.88354,-16.237,-51.824,7.061
2026-05-23 16:05:55.784,1435895240,28784,2,0.15649,0.0625,1.41479,-1.214,-58.939,6.901
2026-05-23 16:05:55.984,1435895440,28984,1,-0.23145,-0.24707,0.80127,-16.221,-84.74,-2.603
2026-05-23 16:05:55.984,1435895440,28984,2,0.32275,-0.07007,1.28467,7.038,-76.939,-6.947
2026-05-23 16:05:55.184,1435894640,29184,1,0.03613,-0.17236,0.81592,15.664,-118.206,-3.061
2026-05-23 16:05:55.184,1435894640,29184,2,0.55835,-0.00684,0.91895,35.214,-114.878,-5.137
2026-05-23 16:05:56.384,1435895840,29384,1,0.75684,0.0083,0.56714,-67.466,-138.176,-36.473
2026-05-23 16:05:56.384,1435895840,29384,2,1.10693,0.19946,0.79834,-37.893,-104.389,-40.382
2026-05-23 16:05:56.584,1435896040,29584,1,0.90332,-0.02344,0.28955,-49.092,-66.427,-42.153
2026-05-23 16:05:56.584,1435896040,29584,2,0.94946,0.16553,0.53369,-50.809,-44.84,-16.366
2026-05-23 16:05:56.784,1435896240,29784,1,1.01245,0.03467,0.11206,-25.756,-55.672,-16.046
2026-05-23 16:05:56.784,1435896240,29784,2,0.89233,0.21851,0.38672,7.74,-11.237,11.718
2026-05-23 16:05:56.984,1435896440,29984,1,0.99927,0.13843,0.08057,-27.42,-17.061,-32.076
2026-05-23 16:05:56.984,1435896440,29984,2,1.13159,-0.00513,0.31543,-63.298,-43.038,19.023
2026-05-23 16:05:56.184,1435895640,30184,1,1.01709,0.21631,0.05005,-10.695,-24.389,-19.573
2026-05-23 16:05:56.184,1435895640,30184,2,0.89038,0.01782,0.39331,-53.55,18.824,16.893
2026-05-23 16:05:57.384,1435896840,30384,1,0.97925,0.13306,0.07788,-91.779,4.771,-20.122
2026-05-23 16:05:57.384,1435896840,30384,2,0.94019,-0.08105,0.30591,-86.908,-22.924,11.504
2026-05-23 16:05:57.584,1435897040,30584,1,1.10791,0.03784,-0.04492,-38.344,-20.092,3.344
2026-05-23 16:05:57.584,1435897040,30584,2,0.98779,-0.0481,0.21191,-34.344,-18.183,13.397
2026-05-23 16:05:57.784,1435897240,30784,1,1.10498,-0.02661,-0.15112,-0.901,-19.595,10.336
2026-05-23 16:05:57.784,1435897240,30784,2,0.96802,-0.02393,0.4187,23.794,-7.527,5.641
2026-05-23 16:05:57.984,1435897440,30984,1,1.13159,-0.03857,-0.10913,12.763,5.634,13.42
2026-05-23 16:05:57.984,1435897440,30984,2,1.00952,-0.06763,0.26587,10.191,7.55,6.779
2026-05-23 16:05:57.184,1435896640,31184,1,1.10669,-0.13721,-0.12646,29.641,-3.107,-7.13
2026-05-23 16:05:57.184,1435896640,31184,2,0.98462,-0.00439,0.35547,53.45,14.137,-19.748
2026-05-23 16:05:58.384,1435897840,31384,1,1.05396,0.04443,-0.11401,99.275,17.901,-1.115
2026-05-23 16:05:58.384,1435897840,31384,2,0.96094,0.11328,0.36768,125.122,26.634,-19.634
2026-05-23 16:05:58.584,1435898040,31584,1,1.0127,0.23291,-0.00244,102.145,14.565,8.908
2026-05-23 16:05:58.584,1435898040,31584,2,0.92212,0.23438,0.46533,79.389,35.954,-8.229
2026-05-23 16:05:58.784,1435898240,31784,1,1.04907,0.20117,-0.00928,5.496,9.687,-2.969
2026-05-23 16:05:58.784,1435898240,31784,2,0.95337,0.19238,0.54907,-3.84,7.458,0.718
2026-05-23 16:05:58.984,1435898440,31984,1,1.01831,0.20581,0.04492,3.145,3.198,3.382
2026-05-23 16:05:58.984,1435898440,31984,2,0.948,0.20361,0.5769,-26.145,-8.015,1.382
2026-05-23 16:05:58.184,1435897640,32184,1,1.0376,0.07642,0.05835,-4.733,17.58,3.656
2026-05-23 16:05:58.184,1435897640,32184,2,0.97119,0.18262,0.49048,16.595,7.069,-10.466
2026-05-23 16:05:59.384,1435898840,32384,1,1.01563,0.16748,0.05249,14.824,7.13,3.427
2026-05-23 16:05:59.384,1435898840,32384,2,0.91577,0.32056,0.48096,8.817,12.756,5.603
2026-05-23 16:05:59.584,1435899040,32584,1,1.18604,0.16748,0.11182,0.321,-16.344,-0.565
2026-05-23 16:05:59.584,1435899040,32584,2,0.77148,0.2019,0.646,-8.58,-1.664,13.55
2026-05-23 16:05:59.784,1435899240,32784,1,1.00464,0.08276,0.16406,28.336,23.611,9.466
2026-05-23 16:05:59.784,1435899240,32784,2,0.94629,0.21753,0.61719,11.473,10.786,0.198
2026-05-23 16:05:59.984,1435899440,32984,1,0.98364,0.06152,0.17749,-12.649,10.031,0.664
2026-05-23 16:05:59.984,1435899440,32984,2,0.93286,0.1582,0.62354,-20.748,-7.252,-0.206
2026-05-23 16:05:59.184,1435898640,33184,1,1.03589,0.0188,0.23535,-3.534,4.374,-9.305
2026-05-23 16:05:59.184,1435898640,33184,2,1.00586,0.03979,0.54199,0.557,-3.099,21.198
2026-05-23 16:06:00.384,1435899840,33384,1,0.95532,-0.05664,0.20093,16.901,-2.412,7.382
2026-05-23 16:06:00.384,1435899840,33384,2,1.15918,0.26123,0.73975,42.252,-1.176,-5.397
2026-05-23 16:06:00.584,1435900040,33584,1,0.97412,0.37524,0.18481,20.115,15.206,1.611
2026-05-23 16:06:00.584,1435900040,33584,2,1.02856,0.17383,0.3999,-29.847,-28.13,14.435
2026-05-23 16:06:00.784,1435900240,33784,1,1.10767,-0.08179,0.34644,-41.565,73.809,1.855
2026-05-23 16:06:00.784,1435900240,33784,2,0.96313,0.104,0.77295,12.389,57.718,13.061
2026-05-23 16:06:00.984,1435900440,33984,1,0.54517,0.04126,0.60889,2.359,51.55,-14.26
2026-05-23 16:06:00.984,1435900440,33984,2,0.85156,-0.06665,0.96338,41.893,45.481,-3.405
2026-05-23 16:06:00.184,1435899640,34184,1,0.28564,0.27979,0.41919,14.038,42.16,-1.176
2026-05-23 16:06:00.184,1435899640,34184,2,0.35059,0.04224,0.80762,8.221,21.084,-7.16
2026-05-23 16:06:01.384,1435900840,34384,1,0.50854,0.24463,0.6853,-11.45,-12.855,3.977
2026-05-23 16:06:01.384,1435900840,34384,2,0.64087,0.20215,0.92969,-17.153,-41.405,1.092
2026-05-23 16:06:01.584,1435901040,34584,1,0.71899,0.10034,0.63818,-17.191,-72.038,8.031
2026-05-23 16:06:01.584,1435901040,34584,2,1.0918,0.06592,1.08228,-11.641,-50.198,18.084
2026-05-23 16:06:01.784,1435901240,34784,1,1.25415,0.15479,0.88086,7.771,8.13,9.718
2026-05-23 16:06:01.784,1435901240,34784,2,0.62134,0.06836,0.52905,-20.214,-18.58,8.13
2026-05-23 16:06:01.984,1435901440,34984,1,0.57544,-0.00879,0.30713,-6.695,7.588,-3.153
2026-05-23 16:06:01.984,1435901440,34984,2,1.08667,0.11548,0.90869,29.008,-48.084,-9.053
2026-05-23 16:06:01.184,1435900640,35184,1,0.99316,0.09912,0.3291,-3.931,-3.405,2.305
2026-05-23 16:06:01.184,1435900640,35184,2,0.65967,0.07471,0.62988,-12.153,16.84,8.427
2026-05-23 16:06:02.384,1435901840,35384,1,0.92749,0.12598,0.49512,1.267,-20.397,-2.061
2026-05-23 16:06:02.384,1435901840,35384,2,1.14038,0.08081,0.66113,5.191,-14.344,-0.718
2026-05-23 16:06:02.584,1435902040,35584,1,1.05591,0.06836,0.41943,-7.687,58.473,-12.427
2026-05-23 16:06:02.584,1435902040,35584,2,1.0022,0.13916,0.80859,-15.084,70.221,-11.023
2026-05-23 16:06:02.784,1435902240,35784,1,0.76196,0.13232,0.67065,-0.885,26.008,9.634
2026-05-23 16:06:02.784,1435902240,35784,2,0.79248,0.10522,1.13892,46.168,19.504,10.466
2026-05-23 16:06:02.984,1435902440,35984,1,0.73291,0.01904,0.74951,5.313,-21.733,11.069
2026-05-23 16:06:02.984,1435902440,35984,2,0.75635,0.1333,0.71606,38.55,-33.183,1.611
2026-05-23 16:06:02.184,1435901640,36184,1,0.3269,0.09155,0.25659,8.618,-81.313,10.84
2026-05-23 16:06:02.184,1435901640,36184,2,0.27002,0.16309,0.41455,-33.611,-116.824,-10.718
2026-05-23 16:06:03.384,1435902840,36384,1,1.24146,0.20703,-0.01196,3.382,-37.878,-12.107
2026-05-23 16:06:03.384,1435902840,36384,2,0.95874,0.03345,0.39844,-4.0,-8.13,17.443
2026-05-23 16:06:03.584,1435903040,36584,1,0.92041,0.14087,0.21826,-4.992,12.427,-4.847
2026-05-23 16:06:03.584,1435903040,36584,2,1.00806,0.16821,0.3335,-3.244,1.763,-4.779
2026-05-23 16:06:03.784,1435903240,36784,1,0.9729,0.11768,0.22388,-12.252,1.931,-8.053
2026-05-23 16:06:03.784,1435903240,36784,2,0.97021,0.12085,0.4895,-9.969,6.16,2.359
2026-05-23 16:06:03.985,1435903441,36985,1,0.95264,0.12842,0.24731,-11.405,6.733,-2.229
2026-05-23 16:06:03.985,1435903441,36985,2,0.95435,0.12231,0.4729,-6.557,1.275,2.542
2026-05-23 16:06:03.185,1435902641,37185,1,0.98462,0.12183,0.23315,-3.817,-3.863,0.924
2026-05-23 16:06:03.185,1435902641,37185,2,0.9751,0.1189,0.49219,-2.863,-1.206,4.084
2026-05-23 16:06:04.385,1435903841,37385,1,0.9939,0.12695,0.22803,-0.901,3.603,2.924
2026-05-23 16:06:04.385,1435903841,37385,2,0.95386,0.11597,0.48242,1.16,3.069,2.878
2026-05-23 16:06:04.585,1435904041,37585,1,0.96899,0.1062,0.23682,0.763,1.038,0.763
2026-05-23 16:06:04.585,1435904041,37585,2,0.98145,0.10742,0.48608,3.153,0.084,0.664
2026-05-23 16:06:04.785,1435904241,37785,1,0.97437,0.11646,0.22583,0.573,-4.504,1.779
2026-05-23 16:06:04.785,1435904241,37785,2,0.94849,0.10986,0.47266,2.382,-1.122,0.969
2026-05-23 16:06:04.985,1435904441,37985,1,0.98242,0.11694,0.21338,2.115,-0.878,1.275
2026-05-23 16:06:04.985,1435904441,37985,2,0.96167,0.1189,0.4585,1.183,-1.55,1.656
2026-05-23 16:06:04.185,1435903641,38185,1,0.99341,0.12305,0.19727,0.603,0.924,-1.176
2026-05-23 16:06:04.185,1435903641,38185,2,0.96802,0.10791,0.45093,0.443,1.176,1.817
2026-05-23 16:06:05.385,1435904841,38385,1,0.98535,0.12061,0.19775,0.878,4.779,0.626
2026-05-23 16:06:05.385,1435904841,38385,2,0.9812,0.10767,0.45361,2.718,2.557,2.298
2026-05-23 16:06:05.585,1435905041,38585,1,0.99805,0.09717,0.13672,-4.824,25.038,0.519
2026-05-23 16:06:05.585,1435905041,38585,2,0.85205,0.13892,0.5564,10.641,51.366,6.847
2026-05-23 16:06:05.785,1435905241,38785,1,0.74927,0.07251,0.18628,-5.977,33.985,1.321
2026-05-23 16:06:05.785,1435905241,38785,2,0.79321,0.00342,0.58862,-9.924,14.336,-8.443
2026-05-23 16:06:05.985,1435905441,38985,1,0.83643,0.12354,0.37354,13.359,29.779,1.336
2026-05-23 16:06:05.985,1435905441,38985,2,0.85742,0.20361,0.77222,35.962,41.275,-6.374
2026-05-23 16:06:05.185,1435904641,39185,1,0.85181,0.1665,0.3999,3.542,10.298,4.321
2026-05-23 16:06:05.185,1435904641,39185,2,0.92456,0.18506,0.7019,0.824,-1.779,5.023
2026-05-23 16:06:06.385,1435905841,39385,1,1.03589,0.18408,0.51025,8.504,-18.58,6.008
2026-05-23 16:06:06.385,1435905841,39385,2,1.18652,0.20776,0.83374,20.42,-17.45,1.16
2026-05-23 16:06:06.585,1435906041,39585,1,1.06128,0.28687,0.52295,-0.435,-14.366,-3.809
2026-05-23 16:06:06.585,1435906041,39585,2,1.04248,0.06958,0.72144,21.282,6.069,10.687
2026-05-23 16:06:06.785,1435906241,39785,1,0.92725,0.06641,0.36401,-1.099,-22.046,6.168
2026-05-23 16:06:06.785,1435906241,39785,2,1.02905,0.15625,0.73022,15.725,16.771,3.809
2026-05-23 16:06:06.985,1435906441,39985,1,0.92114,0.08716,0.36816,-7.893,-0.336,1.046
2026-05-23 16:06:06.985,1435906441,39985,2,0.89355,0.0791,0.64453,8.45,-0.45,7.13
2026-05-23 16:06:06.185,1435905641,40185,1,1.01978,0.10059,0.28589,2.076,-0.015,3.824
2026-05-23 16:06:06.185,1435905641,40185,2,0.9585,0.13257,0.6792,-2.763,1.603,-1.489
2026-05-23 16:06:07.385,1435906841,40385,1,0.96436,0.09399,0.23853,-7.214,2.511,-1.122
2026-05-23 16:06:07.385,1435906841,40385,2,0.96582,0.11792,0.69751,-2.947,11.336,2.198
2026-05-23 16:06:07.585,1435907041,40585,1,0.94507,0.08618,0.32861,2.786,2.992,2.969
2026-05-23 16:06:07.585,1435907041,40585,2,0.85352,0.11768,0.74634,14.672,4.702,-0.702
2026-05-23 16:06:07.785,1435907241,40785,1,0.96191,0.12354,0.36694,-9.519,15.595,-8.313
2026-05-23 16:06:07.785,1435907241,40785,2,0.93188,0.12646,0.70117,-6.282,-13.076,8.87
2026-05-23 16:06:07.985,1435907441,40985,1,0.96777,0.07861,0.38477,-26.893,14.191,-18.282
2026-05-23 16:06:07.985,1435907441,40985,2,0.96777,0.00391,0.66748,-33.359,-9.489,3.16
2026-05-23 16:06:07.185,1435906641,41185,1,0.88062,0.13159,0.40527,-2.137,1.061,0.511
2026-05-23 16:06:07.185,1435906641,41185,2,0.92358,0.03809,0.69702,-8.237,-2.069,-0.359
2026-05-23 16:06:08.385,1435907841,41385,1,0.93066,0.11206,0.3938,2.565,2.481,0.45
2026-05-23 16:06:08.385,1435907841,41385,2,0.94214,0.07397,0.67358,-0.595,-0.809,-0.359
2026-05-23 16:06:08.585,1435908041,41585,1,0.88794,0.11353,0.39966,-3.115,0.534,-3.771
2026-05-23 16:06:08.585,1435908041,41585,2,0.9563,0.06079,0.66187,-0.802,0.656,0.389
2026-05-23 16:06:08.785,1435908241,41785,1,0.8811,0.12109,0.40723,-1.443,0.046,0.069
2026-05-23 16:06:08.785,1435908241,41785,2,0.92651,0.06763,0.67676,0.702,-0.015,0.13
2026-05-23 16:06:08.985,1435908441,41985,1,0.87866,0.12427,0.40991,1.481,2.664,-1.038
2026-05-23 16:06:08.985,1435908441,41985,2,0.93945,0.07813,0.66504,0.099,2.015,-0.214
2026-05-23 16:06:08.185,1435907641,42185,1,0.87427,0.12866,0.41528,-2.893,0.13,-1.496
2026-05-23 16:06:08.185,1435907641,42185,2,0.92676,0.08081,0.67651,1.481,2.076,-0.137
2026-05-23 16:06:09.385,1435908841,42385,1,0.87988,0.13916,0.40747,-3.305,2.305,-2.511
2026-05-23 16:06:09.385,1435908841,42385,2,0.95483,0.09229,0.68286,-0.779,4.718,-0.008
2026-05-23 16:06:09.585,1435909041,42585,1,1.13428,0.16968,0.42065,-0.397,28.237,-0.099
2026-05-23 16:06:09.585,1435909041,42585,2,1.8103,0.07495,1.10083,1.649,44.542,-0.344
2026-05-23 16:06:09.785,1435909241,42785,1,0.54688,0.23511,0.19604,11.015,64.031,22.626
2026-05-23 16:06:09.785,1435909241,42785,2,0.12305,0.15308,0.82568,4.427,90.275,17.244
2026-05-23 16:06:09.985,1435909441,42985,1,0.1875,0.01538,0.54443,-23.885,-35.122,20.611
2026-05-23 16:06:09.985,1435909441,42985,2,1.2312,-0.19238,0.68823,-77.046,-250.137,-3.481
2026-05-23 16:06:09.185,1435908641,43185,1,1.62231,0.11646,0.76294,35.969,11.489,-9.779
2026-05-23 16:06:09.185,1435908641,43185,2,1.15479,0.04126,0.80908,-40.374,30.214,-1.412
2026-05-23 16:06:10.385,1435909841,43385,1,0.5166,0.10718,0.19653,-23.519,-26.74,-9.13
2026-05-23 16:06:10.385,1435909841,43385,2,0.55591,0.06689,0.59546,-25.832,-49.084,3.611
2026-05-23 16:06:10.585,1435910041,43585,1,1.14771,0.11084,0.46118,-0.855,-4.908,5.71
2026-05-23 16:06:10.585,1435910041,43585,2,0.85156,0.13599,0.55298,-11.084,15.214,-8.374
2026-05-23 16:06:10.785,1435910241,43785,1,0.88306,0.104,0.3999,-0.046,-9.794,-2.336
2026-05-23 16:06:10.785,1435910241,43785,2,0.95239,0.16968,0.62646,-24.954,-52.191,-14.458
2026-05-23 16:06:10.985,1435910441,43985,1,0.84155,0.08423,0.33081,-2.565,-0.634,-1.748
2026-05-23 16:06:10.985,1435910441,43985,2,0.81958,0.13501,0.69995,-0.542,10.45,1.031
2026-05-23 16:06:10.185,1435909641,44185,1,0.98218,0.14233,0.38892,-0.145,-0.573,1.115
2026-05-23 16:06:10.185,1435909641,44185,2,0.96655,0.18774,0.62964,-7.214,-5.214,1.076
2026-05-23 16:06:11.385,1435910841,44385,1,0.87305,0.12891,0.36694,1.031,-2.725,-1.168
2026-05-23 16:06:11.385,1435910841,44385,2,0.948,0.13306,0.65015,-13.588,-16.008,3.702
2026-05-23 16:06:11.585,1435911041,44585,1,0.94995,0.12109,0.29883,-3.649,1.763,0.702
2026-05-23 16:06:11.585,1435911041,44585,2,0.93066,0.16406,0.60938,-3.015,-2.351,-0.58
2026-05-23 16:06:11.785,1435911241,44785,1,0.96094,0.12085,0.36157,-0.374,-0.008,0.931
2026-05-23 16:06:11.785,1435911241,44785,2,1.07788,0.17017,0.70215,1.908,1.0,1.237
2026-05-23 16:06:11.985,1435911441,44985,1,1.27979,0.1687,0.39893,13.313,26.748,-2.214
2026-05-23 16:06:11.985,1435911441,44985,2,1.25635,0.27979,0.74219,3.473,61.328,3.855
2026-05-23 16:06:11.185,1435910641,45185,1,0.82544,0.11816,0.5498,-6.634,25.359,-5.496
2026-05-23 16:06:11.185,1435910641,45185,2,0.83521,0.10864,0.89917,13.046,22.29,15.672
2026-05-23 16:06:12.385,1435911841,45385,1,0.76563,0.07764,0.63843,2.084,-5.939,2.786
2026-05-23 16:06:12.385,1435911841,45385,2,0.83569,0.11084,0.81714,15.221,-17.359,6.649
2026-05-23 16:06:12.585,1435912041,45585,1,0.77905,0.15063,0.42896,12.756,-45.214,10.298
2026-05-23 16:06:12.585,1435912041,45585,2,0.73047,0.07788,0.55396,-6.099,-46.878,3.351
2026-05-23 16:06:12.785,1435912241,45785,1,0.69019,0.03223,0.13013,6.046,-59.336,0.321
2026-05-23 16:06:12.785,1435912241,45785,2,0.6709,0.2146,0.35864,-10.641,-68.214,-7.924
2026-05-23 16:06:12.985,1435912441,45985,1,0.90649,0.09058,0.22314,28.321,-1.557,10.687
2026-05-23 16:06:12.985,1435912441,45985,2,1.02832,0.0625,0.48047,-3.351,-20.87,-3.771
2026-05-23 16:06:12.185,1435911641,46185,1,1.02637,0.177,0.1084,-19.412,-13.634,-8.321
2026-05-23 16:06:12.185,1435911641,46185,2,0.97998,0.03076,0.39478,-10.58,0.237,0.771
2026-05-23 16:06:13.385,1435912841,46385,1,1.0293,0.13989,0.15918,-43.008,-21.489,-14.069
2026-05-23 16:06:13.385,1435912841,46385,2,0.98096,0.18945,0.47656,1.962,7.656,5.153
2026-05-23 16:06:13.585,1435913041,46585,1,1.19141,0.21289,-0.10791,11.183,59.351,0.321
2026-05-23 16:06:13.585,1435913041,46585,2,1.02026,0.17944,0.2832,-31.595,-12.13,-2.45
2026-05-23 16:06:13.785,1435913241,46785,1,0.8894,0.18433,0.31177,12.802,40.786,4.534
2026-05-23 16:06:13.785,1435913241,46785,2,0.96851,0.1311,0.45361,-4.863,-2.267,4.198
2026-05-23 16:06:13.985,1435913441,46985,1,0.98315,0.16943,0.15723,-15.191,-15.771,6.45
2026-05-23 16:06:13.985,1435913441,46985,2,0.94629,0.13525,0.51831,0.855,1.13,3.153
2026-05-23 16:06:13.185,1435912641,47185,1,0.99023,0.11621,0.19727,-0.366,7.809,4.153
2026-05-23 16:06:13.185,1435912641,47185,2,0.93359,0.1543,0.49072,-4.626,2.672,3.626
2026-05-23 16:06:14.385,1435913841,47385,1,1.00537,0.1062,0.18848,5.038,8.0,-1.771
2026-05-23 16:06:14.385,1435913841,47385,2,1.02051,0.15039,0.64307,8.031,26.504,-6.878
2026-05-23 16:06:14.585,1435914041,47585,1,0.60986,0.08765,0.12207,-17.359,30.511,-5.435
2026-05-23 16:06:14.585,1435914041,47585,2,0.61768,0.04907,0.69604,-6.763,42.489,-16.435
2026-05-23 16:06:14.785,1435914241,47785,1,0.64966,0.12402,0.33228,12.443,40.374,1.565
2026-05-23 16:06:14.785,1435914241,47785,2,0.80444,0.13501,0.68384,-12.702,19.473,-5.053
2026-05-23 16:06:14.985,1435914441,47985,1,0.84839,0.07397,0.36768,-5.29,-4.267,2.588
2026-05-23 16:06:14.985,1435914441,47985,2,0.83325,0.20142,0.677,-3.504,-5.115,1.008
2026-05-23 16:06:14.185,1435913641,48185,1,0.99561,0.17505,0.479,5.328,-17.664,4.832
2026-05-23 16:06:14.185,1435913641,48185,2,1.09058,0.26538,0.7085,14.053,-38.359,1.565
2026-05-23 16:06:15.385,1435914841,48385,1,1.15894,0.07324,0.42188,-25.008,-8.71,-31.618
2026-05-23 16:06:15.385,1435914841,48385,2,1.03516,0.07422,0.70801,-1.55,8.924,-5.496
2026-05-23 16:06:15.585,1435915041,48585,1,1.03638,0.19653,0.37305,-1.046,-17.328,0.87
2026-05-23 16:06:15.585,1435915041,48585,2,1.17285,0.25171,0.60205,23.206,-2.298,4.244
2026-05-23 16:06:15.785,1435915241,48785,1,1.00439,0.15991,0.39893,7.26,0.359,-4.42
2026-05-23 16:06:15.785,1435915241,48785,2,0.93335,0.23901,0.81567,33.748,23.756,-10.397
2026-05-23 16:06:15.985,1435915441,48985,1,0.86353,0.10034,0.35522,10.519,-0.878,-0.237
2026-05-23 16:06:15.985,1435915441,48985,2,0.9187,0.25,0.60254,-0.176,-13.038,-1.214
2026-05-23 16:06:15.185,1435914641,49185,1,0.95288,0.17554,0.2666,-4.45,-4.42,-0.954
2026-05-23 16:06:15.185,1435914641,49185,2,0.93237,0.22925,0.58301,1.809,-3.519,2.282
2026-05-23 16:06:16.385,1435915841,49385,1,0.92993,0.17969,0.33984,5.58,-2.634,-0.573
2026-05-23 16:06:16.385,1435915841,49385,2,0.94043,0.22461,0.58203,2.076,-9.282,1.718
2026-05-23 16:06:16.585,1435916041,49585,1,0.95337,0.13232,0.29248,4.534,3.511,1.847
2026-05-23 16:06:16.585,1435916041,49585,2,0.95068,0.22192,0.55078,-0.038,1.008,4.122
2026-05-23 16:06:16.785,1435916241,49785,1,0.96631,0.15259,0.26538,0.664,0.748,2.824
2026-05-23 16:06:16.785,1435916241,49785,2,0.95386,0.2085,0.54126,-0.473,-0.756,1.145
2026-05-23 16:06:16.985,1435916441,49985,1,0.96899,0.1582,0.22339,-8.183,1.031,-0.374
2026-05-23 16:06:16.985,1435916441,49985,2,0.97241,0.20288,0.53809,-5.557,4.527,2.794
2026-05-23 16:06:16.185,1435915641,50185,1,0.94702,0.12134,0.30957,-0.794,13.763,7.534
2026-05-23 16:06:16.185,1435915641,50185,2,0.87622,0.2334,0.60767,-4.115,8.321,2.718
2026-05-23 16:06:17.385,1435916841,50385,1,0.90674,0.19653,0.2832,0.618,-1.969,1.206
2026-05-23 16:06:17.385,1435916841,50385,2,0.91626,0.18262,0.52368,3.489,-0.084,1.008
2026-05-23 16:06:17.585,1435917041,50585,1,0.97998,0.18359,0.27637,-1.695,-4.756,-2.611
2026-05-23 16:06:17.585,1435917041,50585,2,0.94873,0.20117,0.57007,7.809,2.267,2.038
2026-05-23 16:06:17.785,1435917241,50785,1,0.97583,0.19873,0.23364,-3.847,2.214,-4.511
2026-05-23 16:06:17.785,1435917241,50785,2,0.96313,0.21582,0.56372,-0.87,14.145,-1.626
2026-05-23 16:06:17.985,1435917441,50985,1,0.92847,0.18188,0.29785,-9.0,4.221,-8.733
2026-05-23 16:06:17.985,1435917441,50985,2,0.92896,0.20532,0.6748,-13.412,10.16,-0.977
2026-05-23 16:06:17.185,1435916641,51185,1,1.48584,0.27466,0.64233,-15.908,-8.053,-2.412
2026-05-23 16:06:17.185,1435916641,51185,2,1.66064,0.26343,1.00977,18.824,52.748,-2.229
2026-05-23 16:06:18.385,1435917841,51385,1,0.8125,0.10913,0.39819,14.74,2.84,45.641
2026-05-23 16:06:18.385,1435917841,51385,2,0.70264,0.21143,0.79907,19.237,41.374,14.298
2026-05-23 16:06:18.585,1435918041,51585,1,0.92847,-0.03442,0.55981,18.695,10.305,26.221
2026-05-23 16:06:18.585,1435918041,51585,2,0.9292,-0.03735,0.82031,36.603,-7.244,27.275
2026-05-23 16:06:18.785,1435918241,51785,1,0.48779,0.23535,0.08032,19.023,-91.939,18.115
2026-05-23 16:06:18.785,1435918241,51785,2,1.37256,0.64063,0.69434,-136.794,26.183,9.267
2026-05-23 16:06:18.985,1435918441,51985,1,0.84106,-0.22485,0.10767,-78.427,36.496,8.656
2026-05-23 16:06:18.985,1435918441,51985,2,1.0271,0.26709,0.24854,-70.405,-51.099,-44.58
2026-05-23 16:06:18.185,1435917641,52185,1,0.91235,0.10742,0.02002,20.359,-54.664,-14.153
2026-05-23 16:06:18.185,1435917641,52185,2,0.99951,-0.20483,0.40527,-4.023,11.786,14.267
2026-05-23 16:06:19.385,1435918841,52385,1,0.93628,0.12402,0.21509,67.389,34.473,3.191
2026-05-23 16:06:19.385,1435918841,52385,2,0.83569,-0.21997,0.30762,12.901,-19.351,14.084
2026-05-23 16:06:19.585,1435919041,52585,1,1.00146,0.16748,0.2146,-17.282,-26.588,4.809
2026-05-23 16:06:19.585,1435919041,52585,2,0.93115,0.08081,0.48828,0.542,2.87,-12.122
2026-05-23 16:06:19.785,1435919241,52785,1,1.01807,0.10205,0.13818,0.595,1.397,0.573
2026-05-23 16:06:19.785,1435919241,52785,2,0.9707,0.08545,0.45898,-9.061,-2.443,-5.519
2026-05-23 16:06:19.985,1435919441,52985,1,0.99927,0.14502,0.14819,3.305,-3.748,-1.13
2026-05-23 16:06:19.985,1435919441,52985,2,0.97559,0.10156,0.44092,-1.405,0.168,2.191
2026-05-23 16:06:19.185,1435918641,53185,1,1.01001,0.125,0.14771,-2.183,0.427,0.672
2026-05-23 16:06:19.185,1435918641,53185,2,0.9624,0.10034,0.45166,-1.809,-1.244,0.305
2026-05-23 16:06:20.385,1435919841,53385,1,1.01392,0.12891,0.13916,0.168,-0.863,0.832
2026-05-23 16:06:20.385,1435919841,53385,2,0.95947,0.09375,0.45728,-1.275,0.427,0.985
2026-05-23 16:06:20.585,1435920041,53585,1,1.03369,0.12964,0.1416,-4.389,-1.473,-0.962
2026-05-23 16:06:20.585,1435920041,53585,2,0.98486,0.09619,0.44702,-5.29,-2.573,2.519
2026-05-23 16:06:20.785,1435920241,53785,1,1.01416,0.12012,0.13184,-6.397,1.015,-1.214
2026-05-23 16:06:20.785,1435920241,53785,2,0.97534,0.08203,0.43091,0.397,1.427,1.298
2026-05-23 16:06:20.985,1435920441,53985,1,1.0376,0.13794,0.12573,2.092,3.702,-2.733
2026-05-23 16:06:20.985,1435920441,53985,2,0.95557,0.07349,0.43457,-0.496,0.695,4.229
2026-05-23 16:06:20.185,1435919641,54185,1,1.01392,0.11108,0.11133,-2.855,-2.931,2.412
2026-05-23 16:06:20.185,1435919641,54185,2,0.92065,0.08057,0.427,1.992,-1.634,-2.351
2026-05-23 16:06:21.385,1435920841,54385,1,1.08887,0.16064,0.06421,33.023,18.344,-2.87
2026-05-23 16:06:21.385,1435920841,54385,2,1.00806,0.05981,0.46973,19.87,-9.031,-8.275
2026-05-23 16:06:21.585,1435921041,54585,1,1.16406,0.25781,0.00757,-17.794,11.557,0.504
2026-05-23 16:06:21.585,1435921041,54585,2,0.96924,0.17749,0.36597,-18.847,9.321,-3.389
2026-05-23 16:06:21.785,1435921241,54785,1,0.92432,0.26514,0.14771,-6.42,16.382,9.061
2026-05-23 16:06:21.785,1435921241,54785,2,1.04956,0.15015,0.55566,-15.397,-2.206,13.252
2026-05-23 16:06:21.985,1435921441,54985,1,0.90576,0.17456,0.39771,-35.924,-22.29,9.725
2026-05-23 16:06:21.985,1435921441,54985,2,0.87085,0.11523,0.52734,-70.435,-5.962,-8.458
2026-05-23 16:06:21.185,1435920641,55185,1,1.00293,0.02954,0.14258,-180.687,-36.359,-66.122
2026-05-23 16:06:21.185,1435920641,55185,2,0.96704,-0.05615,0.3562,-185.565,-24.183,16.336
2026-05-23 16:06:22.385,1435921841,55385,1,1.15405,-0.00781,0.03247,-143.443,-54.687,-50.176
2026-05-23 16:06:22.385,1435921841,55385,2,0.93433,-0.10254,0.32397,-95.053,-22.115,3.809
2026-05-23 16:06:22.585,1435922041,55585,1,0.9978,0.07446,0.00635,-6.855,-20.168,-10.099
2026-05-23 16:06:22.585,1435922041,55585,2,0.94336,-0.07935,0.28271,-39.725,-12.977,19.534
2026-05-23 16:06:22.785,1435922241,55785,1,1.05933,0.04858,0.0813,-12.969,-13.664,8.221
2026-05-23 16:06:22.785,1435922241,55785,2,1.02197,-0.05444,0.29907,4.252,-8.58,11.267
2026-05-23 16:06:22.985,1435922441,55985,1,1.06592,0.03101,0.04883,20.206,-6.443,7.802
2026-05-23 16:06:22.985,1435922441,55985,2,0.98901,-0.05542,0.2937,13.771,0.962,-6.26
2026-05-23 16:06:22.185,1435921641,56185,1,1.0835,-0.02856,-0.05981,72.122,26.076,25.351
2026-05-23 16:06:22.185,1435921641,56185,2,0.99121,-0.05762,0.31519,88.267,24.458,-48.229
2026-05-23 16:06:23.385,1435922841,56385,1,0.99219,0.20386,-0.01123,169.603,53.092,37.962
2026-05-23 16:06:23.385,1435922841,56385,2,0.84546,0.06641,0.4314,153.397,45.168,11.878
2026-05-23 16:06:23.585,1435923041,56585,1,0.98242,0.08496,0.18579,76.275,42.374,10.672
2026-05-23 16:06:23.585,1435923041,56585,2,0.91602,-0.02441,0.48193,46.252,41.71,-5.252
2026-05-23 16:06:23.785,1435923241,56785,1,0.77319,0.27832,0.4917,24.038,6.595,20.885
2026-05-23 16:06:23.785,1435923241,56785,2,0.69751,0.40479,0.57178,-6.046,9.435,27.519
2026-05-23 16:06:23.985,1435923441,56985,1,0.79126,0.13818,0.11475,-170.107,-63.977,-30.863
2026-05-23 16:06:23.985,1435923441,56985,2,1.14551,-0.24805,0.55884,-203.267,-67.481,35.282
2026-05-23 16:06:23.185,1435922641,57185,1,1.06714,-0.06689,0.11597,-48.718,-33.908,-45.763
2026-05-23 16:06:23.185,1435922641,57185,2,0.85645,-0.22729,0.39868,-4.74,3.069,10.481
2026-05-23 16:06:24.385,1435923841,57385,1,1.04053,0.08032,0.10522,-13.328,-6.718,-2.573
2026-05-23 16:06:24.385,1435923841,57385,2,0.9978,-0.07544,0.33057,-13.863,-3.145,-3.076
2026-05-23 16:06:24.585,1435924041,57585,1,1.05786,0.07446,0.08276,0.595,1.008,-0.015
2026-05-23 16:06:24.585,1435924041,57585,2,0.99902,-0.06177,0.31665,-6.756,-2.863,-1.435
2026-05-23 16:06:24.785,1435924241,57785,1,1.05444,0.06396,0.08057,5.863,0.916,4.458
2026-05-23 16:06:24.785,1435924241,57785,2,0.96973,-0.02368,0.31226,15.046,0.427,-1.901
2026-05-23 16:06:24.985,1435924441,57985,1,1.05078,0.1189,0.07837,10.557,2.397,3.84
2026-05-23 16:06:24.985,1435924441,57985,2,0.96362,-0.00049,0.35815,5.458,2.321,0.832
2026-05-23 16:06:24.185,1435923641,58185,1,1.04248,0.11108,0.09033,-14.855,0.221,-8.534
2026-05-23 16:06:24.185,1435923641,58185,2,0.97144,-0.04956,0.31445,-16.496,0.458,7.771
2026-05-23 16:06:25.385,1435924841,58385,1,1.04858,0.07129,0.07324,-4.947,-0.901,-1.542
2026-05-23 16:06:25.385,1435924841,58385,2,0.97095,-0.0896,0.32983,5.84,-1.038,7.588
2026-05-23 16:06:25.585,1435925041,58585,1,1.03271,0.05444,0.07129,16.687,7.802,10.282
2026-05-23 16:06:25.585,1435925041,58585,2,0.98853,-0.07544,0.32861,30.084,4.496,3.695
2026-05-23 16:06:25.785,1435925241,58785,1,1.02979,0.05591,0.13843,26.832,16.618,8.687
2026-05-23 16:06:25.785,1435925241,58785,2,0.95923,-0.07861,0.41846,37.053,11.015,-8.626
2026-05-23 16:06:25.985,1435925441,58985,1,0.9751,0.14209,0.23901,60.763,27.664,11.756
2026-05-23 16:06:25.985,1435925441,58985,2,0.96973,0.05347,0.44653,57.634,17.779,-23.176
2026-05-23 16:06:25.185,1435924641,59185,1,0.94067,0.22607,0.24878,44.954,15.267,4.321
2026-05-23 16:06:25.185,1435924641,59185,2,0.96655,0.09009,0.4375,27.198,15.42,1.527
2026-05-23 16:06:26.385,1435925841,59385,1,0.90649,0.14697,0.24512,15.122,38.687,12.939
2026-05-23 16:06:26.385,1435925841,59385,2,1.00708,0.08691,0.5769,3.885,30.221,4.366
2026-05-23 16:06:26.585,1435926041,59585,1,0.93945,-0.17944,0.34058,-4.412,37.305,11.389
2026-05-23 16:06:26.585,1435926041,59585,2,0.92163,-0.32983,0.77002,-0.168,22.099,-27.214
2026-05-23 16:06:26.785,1435926241,59785,1,0.72339,0.25464,0.39404,-3.176,-44.473,4.771
2026-05-23 16:06:26.785,1435926241,59785,2,0.98071,0.04834,0.83179,-21.115,5.977,-39.687
2026-05-23 16:06:26.985,1435926441,59985,1,0.68677,0.16528,0.40234,18.237,-12.107,11.809
2026-05-23 16:06:26.985,1435926441,59985,2,0.85498,0.20288,0.72461,1.634,-10.191,0.473
2026-05-23 16:06:26.185,1435925641,60185,1,0.88013,0.09204,0.35352,-1.924,-37.687,10.153
2026-05-23 16:06:26.185,1435925641,60185,2,0.84399,0.16895,0.76709,7.992,-29.198,19.397
2026-05-23 16:06:27.385,1435926841,60385,1,1.34546,0.05249,0.46338,-23.748,2.0,8.374
2026-05-23 16:06:27.385,1435926841,60385,2,1.59546,0.49561,1.21069,30.511,31.893,-13.366
2026-05-23 16:06:27.585,1435927041,60585,1,0.73315,0.16187,0.22095,-4.198,12.969,5.901
2026-05-23 16:06:27.585,1435927041,60585,2,0.52832,0.08813,0.68359,-25.435,-2.046,23.191
2026-05-23 16:06:27.785,1435927241,60785,1,1.09375,0.14624,0.35425,28.473,-8.405,8.542
2026-05-23 16:06:27.785,1435927241,60785,2,1.05542,0.22266,0.92163,-19.641,-12.901,7.519
2026-05-23 16:06:27.985,1435927441,60985,1,0.95166,0.06519,0.31836,-8.847,5.115,-13.153
2026-05-23 16:06:27.985,1435927441,60985,2,0.78564,0.14771,0.84839,-1.443,-11.023,7.603
2026-05-23 16:06:27.185,1435926641,61185,1,0.95459,0.10474,0.2959,0.237,-13.359,-1.298
2026-05-23 16:06:27.185,1435926641,61185,2,0.88745,0.20386,0.74658,-27.908,-26.214,-2.382
2026-05-23 16:06:28.385,1435927841,61385,1,0.99512,0.12524,0.21753,9.695,-4.87,0.42
2026-05-23 16:06:28.385,1435927841,61385,2,0.95923,0.25146,0.74731,0.779,-3.122,5.847
2026-05-23 16:06:28.585,1435928041,61585,1,1.42432,0.14697,0.42773,7.275,13.389,1.939
2026-05-23 16:06:28.585,1435928041,61585,2,1.35547,0.34937,0.96558,44.458,27.847,-0.176
2026-05-23 16:06:28.785,1435928241,61785,1,0.89331,0.09692,0.31055,-11.885,26.359,7.382
2026-05-23 16:06:28.785,1435928241,61785,2,0.89722,0.12939,0.77466,-0.992,5.015,9.908
2026-05-23 16:06:28.985,1435928441,61985,1,0.96313,0.17798,0.50952,-10.534,-16.496,4.191
2026-05-23 16:06:28.985,1435928441,61985,2,0.86084,0.19189,0.83423,-27.183,-22.603,0.527
2026-05-23 16:06:28.185,1435927641,62185,1,0.90063,0.01514,0.22656,8.763,-25.924,2.603
2026-05-23 16:06:28.185,1435927641,62185,2,0.74854,0.06641,0.71045,-13.26,-26.069,-1.336
2026-05-23 16:06:29.385,1435928841,62385,1,0.28198,0.02002,0.07959,2.519,-39.992,-3.473
2026-05-23 16:06:29.385,1435928841,62385,2,1.01953,0.05078,0.88184,-3.176,-95.962,8.802
2026-05-23 16:06:29.585,1435929041,62585,1,1.22559,0.1897,-0.14575,-12.656,15.183,-5.221
2026-05-23 16:06:29.585,1435929041,62585,2,0.9541,0.35327,0.52246,-9.244,3.443,-4.374
2026-05-23 16:06:29.785,1435929241,62785,1,1.05322,0.09668,0.07666,-5.893,11.863,1.588
2026-05-23 16:06:29.785,1435929241,62785,2,0.93872,0.16284,0.49609,-4.046,19.137,0.458
2026-05-23 16:06:29.985,1435929441,62985,1,1.04077,0.09033,0.06641,-6.908,9.885,-1.817
2026-05-23 16:06:29.985,1435929441,62985,2,0.97119,0.14429,0.50342,-11.779,7.038,1.084
2026-05-23 16:06:29.185,1435928641,63185,1,1.06445,0.104,0.10229,-0.618,6.412,-0.275
2026-05-23 16:06:29.185,1435928641,63185,2,0.94775,0.12695,0.55371,-5.458,6.008,5.557
2026-05-23 16:06:30.385,1435929841,63385,1,0.94116,0.02075,0.09839,-1.931,23.031,-1.641
2026-05-23 16:06:30.385,1435929841,63385,2,0.60474,0.11279,0.53564,9.023,41.473,6.557
2026-05-23 16:06:30.585,1435930041,63585,1,0.77222,0.06494,0.1272,-16.244,10.412,0.206
2026-05-23 16:06:30.585,1435930041,63585,2,0.91235,0.15796,0.67749,28.588,15.031,0.122
2026-05-23 16:06:30.785,1435930241,63785,1,0.92212,0.09741,0.42188,-11.176,31.252,-5.924
2026-05-23 16:06:30.785,1435930241,63785,2,0.83643,0.16333,0.65381,-13.137,24.802,5.023
2026-05-23 16:06:30.985,1435930441,63985,1,1.04712,0.09961,0.41064,17.557,2.023,5.29
2026-05-23 16:06:30.985,1435930441,63985,2,1.13037,0.19604,0.92114,-1.702,-3.817,0.779
2026-05-23 16:06:30.185,1435929641,64185,1,1.28662,0.14014,0.26123,-11.985,16.008,6.771
2026-05-23 16:06:30.185,1435929641,64185,2,1.10815,0.26074,0.85864,9.191,9.435,10.702
2026-05-23 16:06:31.385,1435930841,64385,1,1.06592,0.08228,0.34058,-2.687,5.115,10.221
2026-05-23 16:06:31.385,1435930841,64385,2,0.87622,0.20581,0.7417,28.076,5.855,18.084
2026-05-23 16:06:31.585,1435931041,64585,1,0.94556,0.10767,0.33325,-6.229,12.137,-8.504
2026-05-23 16:06:31.585,1435931041,64585,2,1.03345,0.13062,0.83447,-17.588,5.885,5.771
2026-05-23 16:06:31.785,1435931241,64785,1,0.87695,0.12964,0.43872,1.756,11.962,8.947
2026-05-23 16:06:31.785,1435931241,64785,2,0.8772,0.20801,0.76685,14.122,17.779,-1.885
2026-05-23 16:06:31.985,1435931441,64985,1,0.85986,0.1333,0.42896,-13.305,2.74,-6.847
2026-05-23 16:06:31.985,1435931441,64985,2,0.84009,0.19702,0.82788,-0.908,10.557,-3.26
2026-05-23 16:06:31.185,1435930641,65185,1,0.84326,0.1394,0.42041,-0.313,7.191,-1.893
2026-05-23 16:06:31.185,1435930641,65185,2,0.84399,0.2002,0.83057,3.496,0.099,-1.153
2026-05-23 16:06:32.385,1435931841,65385,1,0.92847,0.198,0.41602,-24.031,-2.87,-0.863
2026-05-23 16:06:32.385,1435931841,65385,2,0.89258,0.15308,0.79443,-19.58,2.344,11.672
2026-05-23 16:06:32.585,1435932041,65585,1,0.81738,-0.01831,0.43481,-24.519,-0.664,-5.855
2026-05-23 16:06:32.585,1435932041,65585,2,0.85962,0.12939,0.84863,-32.725,-6.206,2.893
2026-05-23 16:06:32.785,1435932241,65785,1,1.36646,0.07349,0.67188,-9.58,7.344,-21.542
2026-05-23 16:06:32.785,1435932241,65785,2,1.26025,0.14087,1.16406,-13.824,20.794,-0.481
2026-05-23 16:06:32.985,1435932441,65985,1,0.75562,0.07495,0.5166,4.748,6.198,-12.099
2026-05-23 16:06:32.985,1435932441,65985,2,0.76294,0.07251,0.84009,-9.008,10.336,-4.038
2026-05-23 16:06:32.185,1435931641,66185,1,0.84253,0.13062,0.52954,-7.931,-24.802,-6.863
2026-05-23 16:06:32.185,1435931641,66185,2,0.87085,0.07349,0.82983,-16.374,-24.672,9.374
2026-05-23 16:06:33.385,1435932841,66385,1,0.6333,0.10278,0.29834,-6.626,-35.0,-5.443
2026-05-23 16:06:33.385,1435932841,66385,2,0.70264,0.10376,0.67822,-0.214,-50.824,-17.13
2026-05-23 16:06:33.585,1435933041,66585,1,0.81421,0.16675,0.1416,-10.908,-62.824,-20.13
2026-05-23 16:06:33.585,1435933041,66585,2,0.84814,-0.03467,0.56616,-38.87,-75.733,-6.863
2026-05-23 16:06:33.785,1435933241,66785,1,1.19312,0.21997,-0.12988,6.901,-60.489,3.145
2026-05-23 16:06:33.785,1435933241,66785,2,0.89429,0.17285,0.52002,58.557,-10.847,-7.595
2026-05-23 16:06:33.985,1435933441,66985,1,1.14893,0.15503,0.09473,48.237,10.0,19.176
2026-05-23 16:06:33.985,1435933441,66985,2,0.92017,0.22974,0.48853,28.046,15.916,-3.382
2026-05-23 16:06:33.185,1435932641,67185,1,1.07837,0.26831,-0.04907,4.267,1.618,-4.168
2026-05-23 16:06:33.185,1435932641,67185,2,0.96704,0.17529,0.41064,6.573,-7.252,8.817
2026-05-23 16:06:34.385,1435933841,67385,1,1.03467,0.31519,-0.07153,-17.672,-30.634,9.366
2026-05-23 16:06:34.385,1435933841,67385,2,0.93945,0.24585,0.42798,-50.191,-26.763,35.275
2026-05-23 16:06:34.585,1435934041,67585,1,1.05811,0.27759,-0.18042,-175.275,6.718,-35.435
2026-05-23 16:06:34.585,1435934041,67585,2,1.14404,-0.03247,0.10034,-133.916,-0.84,67.267
2026-05-23 16:06:34.785,1435934241,67785,1,1.02075,0.11572,-0.0896,-180.305,-46.122,-49.824
2026-05-23 16:06:34.785,1435934241,67785,2,0.88696,-0.18481,0.19067,-147.511,13.519,55.885
2026-05-23 16:06:34.985,1435934441,67985,1,1.06885,0.10596,-0.07349,-81.687,-15.244,-18.779
2026-05-23 16:06:34.985,1435934441,67985,2,0.94678,-0.24927,0.18457,-73.511,15.618,0.786
2026-05-23 16:06:34.185,1435933641,68185,1,1.15137,0.18677,-0.05225,-43.855,-33.389,-10.29
2026-05-23 16:06:34.185,1435933641,68185,2,0.94751,-0.21753,0.18628,5.275,-3.099,5.626
2026-05-23 16:06:35.385,1435934841,68385,1,1.09912,0.17725,-0.15161,65.931,24.053,23.466
2026-05-23 16:06:35.385,1435934841,68385,2,0.94775,-0.21167,0.17773,42.985,-4.679,-14.924
2026-05-23 16:06:35.585,1435935041,68585,1,1.04175,0.15112,-0.0647,45.74,6.023,21.176
2026-05-23 16:06:35.585,1435935041,68585,2,1.00903,-0.13281,0.20581,29.191,-7.802,-13.481
2026-05-23 16:06:35.785,1435935241,68785,1,1.09009,0.10181,-0.10352,64.473,16.015,32.618
2026-05-23 16:06:35.785,1435935241,68785,2,0.94604,-0.07397,0.23853,56.359,7.58,-26.908
2026-05-23 16:06:35.985,1435935441,68985,1,1.09619,0.14722,-0.09082,64.496,13.038,42.023
2026-05-23 16:06:35.985,1435935441,68985,2,0.97559,-0.03271,0.30371,88.038,12.855,-30.038
2026-05-23 16:06:35.185,1435934641,69185,1,1.0354,0.18188,0.04858,92.733,24.672,12.397
2026-05-23 16:06:35.185,1435934641,69185,2,1.02393,0.19751,0.32837,64.176,10.565,-9.145
2026-05-23 16:06:36.385,1435935841,69385,1,1.1416,0.16431,0.05273,-12.015,-8.916,-25.336
2026-05-23 16:06:36.385,1435935841,69385,2,0.8335,0.28638,0.3645,3.473,-9.725,2.153
2026-05-23 16:06:36.585,1435936041,69585,1,1.00562,0.16333,0.03809,-42.779,-8.931,-19.313
2026-05-23 16:06:36.585,1435936041,69585,2,0.94434,-0.02319,0.35596,-49.321,-6.878,19.29
2026-05-23 16:06:36.785,1435936241,69785,1,1.07349,0.01294,0.03125,-67.588,-24.718,-7.718
2026-05-23 16:06:36.785,1435936241,69785,2,0.95825,0.00049,0.30005,-10.084,7.527,-8.298
2026-05-23 16:06:36.985,1435936441,69985,1,1.07373,0.02588,0.06494,-8.588,-8.893,5.527
2026-05-23 16:06:36.985,1435936441,69985,2,0.91992,-0.05688,0.37695,-0.901,1.916,-3.191
2026-05-23 16:06:36.185,1435935641,70185,1,1.07251,0.03125,-0.02197,33.389,1.504,7.695
2026-05-23 16:06:36.185,1435935641,70185,2,0.97021,0.00977,0.33179,18.076,-0.901,-2.389
2026-05-23 16:06:37.385,1435936841,70385,1,1.02832,0.11182,0.06226,5.084,-6.206,-6.13
2026-05-23 16:06:37.385,1435936841,70385,2,0.96411,0.02979,0.35327,17.198,1.863,-4.847
2026-05-23 16:06:37.585,1435937041,70585,1,1.09448,0.06421,0.01367,18.824,2.687,4.511
2026-05-23 16:06:37.585,1435937041,70585,2,0.91309,0.03003,0.39307,7.282,2.405,1.565
2026-05-23 16:06:37.785,1435937241,70785,1,1.04248,0.10107,0.03101,20.893,8.45,3.824
2026-05-23 16:06:37.785,1435937241,70785,2,0.97266,0.09204,0.35669,11.595,5.084,-2.023
2026-05-23 16:06:37.985,1435937441,70985,1,1.04834,0.10083,0.03564,2.763,8.015,-3.832
2026-05-23 16:06:37.985,1435937441,70985,2,0.96411,0.07422,0.3645,-0.489,3.916,1.267
2026-05-23 16:06:37.185,1435936641,71185,1,1.03638,0.08643,0.0459,-14.0,-0.481,-4.611
2026-05-23 16:06:37.185,1435936641,71185,2,0.97705,0.02686,0.3418,-4.893,-0.153,2.191
2026-05-23 16:06:38.385,1435937841,71385,1,1.04248,0.03369,0.05493,11.74,-7.481,5.626
2026-05-23 16:06:38.385,1435937841,71385,2,0.95825,0.01465,0.37744,10.534,2.336,-5.084
2026-05-23 16:06:38.585,1435938041,71585,1,1.08545,0.00732,-0.01514,78.031,25.305,10.153
2026-05-23 16:06:38.585,1435938041,71585,2,0.9812,0.09302,0.34302,55.901,15.931,-20.977
2026-05-23 16:06:38.785,1435938241,71785,1,1.02539,0.19458,0.09229,46.634,18.282,2.588
2026-05-23 16:06:38.785,1435938241,71785,2,1.01538,0.16431,0.43042,56.992,32.0,8.626
2026-05-23 16:06:38.985,1435938441,71985,1,0.83862,0.16284,0.25317,-19.847,-4.382,-6.603
2026-05-23 16:06:38.985,1435938441,71985,2,0.78491,-0.05371,0.46191,139.763,4.122,92.191
2026-05-23 16:06:38.185,1435937641,72185,1,1.05005,0.29395,0.0603,-56.985,-26.321,-5.221
2026-05-23 16:06:38.185,1435937641,72185,2,1.06641,0.08447,0.47705,-62.321,-19.718,20.672
2026-05-23 16:06:39.385,1435938841,72385,1,1.01538,0.10156,0.1582,-29.359,-7.412,-21.481
2026-05-23 16:06:39.385,1435938841,72385,2,0.95459,0.0498,0.40356,-38.107,0.298,-4.672
2026-05-23 16:06:39.585,1435939041,72585,1,1.01294,0.15918,0.07886,-30.427,-4.443,-4.954
2026-05-23 16:06:39.585,1435939041,72585,2,0.98438,-0.00757,0.3623,-16.298,0.008,7.603
2026-05-23 16:06:39.785,1435939241,72785,1,1.05151,0.1499,0.07471,0.885,2.718,2.092
2026-05-23 16:06:39.785,1435939241,72785,2,0.97876,0.01123,0.41992,-0.267,1.794,3.718
2026-05-23 16:06:39.985,1435939441,72985,1,1.052,0.13501,0.06812,6.466,5.183,-0.359
2026-05-23 16:06:39.985,1435939441,72985,2,0.97607,0.05615,0.37646,7.954,4.603,1.74
2026-05-23 16:06:39.185,1435938641,73185,1,1.03296,0.15308,0.1084,6.176,9.45,-2.344
2026-05-23 16:06:39.185,1435938641,73185,2,0.98608,0.0188,0.40259,-3.244,-0.107,-7.221
2026-05-23 16:06:40.385,1435939841,73385,1,1.00098,0.16943,0.09888,4.634,4.779,-3.885
2026-05-23 16:06:40.385,1435939841,73385,2,0.97632,0.04272,0.42773,0.221,-16.504,2.954
2026-05-23 16:06:40.585,1435940041,73585,1,1.31763,0.51416,0.27563,46.359,8.45,7.458
2026-05-23 16:06:40.585,1435940041,73585,2,1.51465,0.19922,0.11206,-34.908,-3.42,-20.069
2026-05-23 16:06:40.785,1435940241,73785,1,0.96265,-0.03223,0.01343,14.71,-5.168,16.55
2026-05-23 16:06:40.785,1435940241,73785,2,0.98389,0.08765,0.39673,4.969,3.626,-52.412
2026-05-23 16:06:40.985,1435940441,73985,1,1.05396,0.14087,0.11206,-9.458,-11.863,-18.695
2026-05-23 16:06:40.985,1435940441,73985,2,0.94189,0.11475,0.45239,-0.221,8.969,19.473
2026-05-23 16:06:40.185,1435939641,74185,1,1.04858,0.08374,0.09009,33.046,6.427,3.565
2026-05-23 16:06:40.185,1435939641,74185,2,0.97339,0.12158,0.37769,18.603,6.702,3.573
2026-05-23 16:06:41.385,1435940841,74385,1,1.06445,0.10815,0.06323,42.687,22.252,7.328
2026-05-23 16:06:41.385,1435940841,74385,2,0.97852,0.0625,0.38281,11.55,8.252,-9.206
2026-05-23 16:06:41.585,1435941041,74585,1,1.01587,0.15015,0.07642,-7.939,1.611,-0.366
2026-05-23 16:06:41.585,1435941041,74585,2,0.96387,0.07544,0.42627,-1.733,1.489,3.26
2026-05-23 16:06:41.785,1435941241,74785,1,0.98145,0.09985,0.17407,-13.008,-14.679,-1.13
2026-05-23 16:06:41.785,1435941241,74785,2,1.00464,0.052,0.38794,4.046,-12.55,3.359
2026-05-23 16:06:41.985,1435941441,74985,1,1.02173,0.10547,0.10327,-19.939,-4.29,-2.206
2026-05-23 16:06:41.985,1435941441,74985,2,0.95898,0.07422,0.39307,-7.695,-3.557,8.565
2026-05-23 16:06:41.185,1435940641,75185,1,1.04053,0.01172,0.10596,-21.252,6.473,-7.725
2026-05-23 16:06:41.185,1435940641,75185,2,0.92163,0.11401,0.38452,1.511,11.221,-3.565
2026-05-23 16:06:42.385,1435941841,75385,1,0.92139,0.12476,0.06836,21.664,15.809,6.969
2026-05-23 16:06:42.385,1435941841,75385,2,1.00903,0.0874,0.40918,16.84,20.122,9.115
2026-05-23 16:06:42.585,1435942041,75585,1,1.50195,0.13794,0.45898,0.015,-26.191,9.718
2026-05-23 16:06:42.585,1435942041,75585,2,1.44824,0.13745,0.28662,-4.13,-7.565,-11.267
2026-05-23 16:06:42.785,1435942241,75785,1,0.59155,0.14697,0.05591,-17.176,1.557,3.916
2026-05-23 16:06:42.785,1435942241,75785,2,0.573,0.07813,0.58276,7.053,-37.74,30.542
2026-05-23 16:06:42.985,1435942441,75985,1,0.85596,0.11157,0.18823,-14.191,0.229,-8.641
2026-05-23 16:06:42.985,1435942441,75985,2,0.88501,-0.05591,0.31592,-9.221,-3.153,16.229
2026-05-23 16:06:42.185,1435941641,76185,1,1.03809,0.10962,0.06714,-10.893,-4.084,-3.855
2026-05-23 16:06:42.185,1435941641,76185,2,0.99756,0.06396,0.32178,15.962,-3.229,3.267
2026-05-23 16:06:43.385,1435942841,76385,1,1.04883,0.05664,0.13403,4.878,-0.969,2.443
2026-05-23 16:06:43.385,1435942841,76385,2,0.92432,0.02246,0.26074,-11.534,-14.977,5.496
2026-05-23 16:06:43.585,1435943041,76585,1,1.03711,0.06152,0.09595,39.168,45.198,9.511
2026-05-23 16:06:43.585,1435943041,76585,2,0.93726,-0.04639,0.20972,-39.229,18.931,4.748
2026-05-23 16:06:43.785,1435943241,76785,1,0.99683,0.14453,0.02075,92.076,15.725,15.55
2026-05-23 16:06:43.785,1435943241,76785,2,0.98389,0.02734,0.33887,100.71,36.901,-20.725
2026-05-23 16:06:43.985,1435943441,76985,1,1.01001,0.22192,0.10278,89.74,14.992,18.954
2026-05-23 16:06:43.985,1435943441,76985,2,0.948,0.1377,0.47974,78.282,30.374,-5.947
2026-05-23 16:06:43.185,1435942641,77185,1,0.78955,0.47119,-0.00293,49.718,-67.099,15.328
2026-05-23 16:06:43.185,1435942641,77185,2,1.99994,1.96191,1.60352,180.374,-78.443,109.573
2026-05-23 16:06:44.385,1435943841,77385,1,0.95386,0.18823,0.06714,26.29,-8.038,10.595
2026-05-23 16:06:44.385,1435943841,77385,2,0.84326,0.23193,0.4231,28.611,-9.198,10.504
2026-05-23 16:06:44.585,1435944041,77585,1,1.09375,0.15698,-0.04321,-17.45,-13.916,-9.626
2026-05-23 16:06:44.585,1435944041,77585,2,0.94653,0.18018,0.36816,-37.588,-12.672,3.237
2026-05-23 16:06:44.785,1435944241,77785,1,1.08594,0.25146,-0.04346,6.504,0.832,11.656
2026-05-23 16:06:44.785,1435944241,77785,2,0.95361,0.08276,0.36743,-15.916,-0.962,6.26
2026-05-23 16:06:44.985,1435944441,77985,1,1.04492,0.07104,-0.02539,-30.779,1.16,-6.405
2026-05-23 16:06:44.985,1435944441,77985,2,0.99414,0.10254,0.36792,-24.672,-1.015,4.969
2026-05-23 16:06:44.185,1435943641,78185,1,1.06885,0.12402,-0.01758,-6.702,1.023,-1.023
2026-05-23 16:06:44.185,1435943641,78185,2,0.94385,0.06787,0.37573,-2.053,4.809,5.672
2026-05-23 16:06:45.385,1435944841,78385,1,1.0415,0.13501,-0.0188,-3.084,-0.962,0.275
2026-05-23 16:06:45.385,1435944841,78385,2,0.96509,0.08716,0.35864,-8.237,1.511,0.794
2026-05-23 16:06:45.585,1435945041,78585,1,1.1084,0.15308,-0.08228,-27.069,6.901,-10.962
2026-05-23 16:06:45.585,1435945041,78585,2,0.88403,0.12622,0.33789,-24.076,-38.519,8.802
2026-05-23 16:06:45.785,1435945241,78785,1,1.01611,0.16919,0.03955,-12.893,0.031,3.74
2026-05-23 16:06:45.785,1435945241,78785,2,0.95288,0.07935,0.40405,-6.046,2.542,3.176
2026-05-23 16:06:45.985,1435945441,78985,1,1.00317,0.18701,0.05981,-18.489,-4.962,-0.87
2026-05-23 16:06:45.985,1435945441,78985,2,0.94678,0.03906,0.37012,-7.336,5.55,3.511
2026-05-23 16:06:45.185,1435944641,79185,1,1.07251,0.12036,0.06299,-21.244,-1.198,-8.565
2026-05-23 16:06:45.185,1435944641,79185,2,0.9856,0.03247,0.36841,-16.16,-4.824,9.908
2026-05-23 16:06:46.385,1435945841,79385,1,0.90991,0.08667,0.05835,-15.878,-17.321,-3.13
2026-05-23 16:06:46.385,1435945841,79385,2,0.94702,0.03906,0.37378,-15.351,-0.229,-3.206
2026-05-23 16:06:46.585,1435946041,79585,1,1.16797,0.10425,-0.01538,-4.344,-3.74,3.031
2026-05-23 16:06:46.585,1435946041,79585,2,1.00269,-0.00146,0.32178,-8.908,1.191,0.855
2026-05-23 16:06:46.785,1435946241,79785,1,1.04468,0.12158,0.00415,23.771,2.42,12.008
2026-05-23 16:06:46.785,1435946241,79785,2,0.94849,0.00732,0.35596,12.008,-3.122,-0.328
2026-05-23 16:06:46.985,1435946441,79985,1,1.15649,0.11719,-0.03271,19.588,1.962,0.893
2026-05-23 16:06:46.985,1435946441,79985,2,0.96045,0.04541,0.32861,12.137,0.069,4.191
2026-05-23 16:06:46.185,1435945641,80185,1,1.01416,0.09253,-0.02002,-0.344,1.443,-9.115
2026-05-23 16:06:46.185,1435945641,80185,2,0.93481,0.07568,0.37183,6.542,-0.351,-2.397
2026-05-23 16:06:47.385,1435946841,80385,1,1.01294,0.24658,0.02124,6.344,2.603,-3.901
2026-05-23 16:06:47.385,1435946841,80385,2,0.92969,0.13501,0.25586,9.649,-1.046,12.634
2026-05-23 16:06:47.585,1435947041,80585,1,1.1394,0.2373,-0.01074,-38.092,-19.748,-15.954
2026-05-23 16:06:47.585,1435947041,80585,2,1.00586,-0.03052,0.2915,-24.427,-10.084,10.282
2026-05-23 16:06:47.785,1435947241,80785,1,1.052,0.10742,-0.02002,-17.992,-6.679,-3.779
2026-05-23 16:06:47.785,1435947241,80785,2,0.95605,0.02759,0.30127,-22.786,-2.908,11.206
2026-05-23 16:06:47.985,1435947441,80985,1,1.05347,0.15381,-0.03979,-15.076,-8.893,-0.901
2026-05-23 16:06:47.985,1435947441,80985,2,0.95117,-0.07178,0.2793,-8.321,2.511,0.611
2026-05-23 16:06:47.185,1435946641,81185,1,1.0481,0.12476,-0.05029,-1.687,1.534,5.954
2026-05-23 16:06:47.185,1435946641,81185,2,0.96167,-0.02124,0.26563,-5.053,2.244,-0.924
2026-05-23 16:06:48.385,1435947841,81385,1,1.05322,0.13037,-0.05371,-6.847,-2.702,3.924
2026-05-23 16:06:48.385,1435947841,81385,2,0.96338,-0.00854,0.26855,-7.405,1.573,4.695
2026-05-23 16:06:48.585,1435948041,81585,1,1.05762,0.12573,-0.05859,-9.924,-4.099,-2.206
2026-05-23 16:06:48.585,1435948041,81585,2,0.95313,-0.0437,0.29468,-9.656,2.756,3.305
2026-05-23 16:06:48.785,1435948241,81785,1,1.03735,0.13208,-0.04224,-27.641,4.557,-5.374
2026-05-23 16:06:48.785,1435948241,81785,2,0.97925,-0.00439,0.27246,-23.496,-0.58,12.191
2026-05-23 16:06:48.985,1435948441,81985,1,1.02393,0.13062,-0.01099,-6.931,-1.695,-4.26
2026-05-23 16:06:48.985,1435948441,81985,2,0.95874,-0.06982,0.29492,3.603,2.885,-0.45
2026-05-23 16:06:48.185,1435947641,82185,1,1.05078,0.13135,-0.01782,1.71,-3.695,2.214
2026-05-23 16:06:48.185,1435947641,82185,2,0.95776,-0.05737,0.29541,5.947,1.901,-3.015
2026-05-23 16:06:49.385,1435948841,82385,1,1.04541,0.14941,-0.02563,-3.649,5.115,0.053
2026-05-23 16:06:49.385,1435948841,82385,2,0.94434,-0.04004,0.29712,-5.168,,-2.748
2026-05-23 16:06:49.585,1435949041,82585,1,1.06055,0.16699,-0.04785,4.725,0.725,5.908
2026-05-23 16:06:49.585,1435949041,82585,2,0.97314,-0.03198,0.27881,6.557,0.656,0.008
2026-05-23 16:06:49.785,1435949241,82785,1,1.0647,0.14209,-0.03369,4.397,4.237,2.634
2026-05-23 16:06:49.785,1435949241,82785,2,0.97217,-0.04517,0.28564,-3.71,0.275,0.618
2026-05-23 16:06:49.985,1435949441,82985,1,1.03784,0.12891,-0.02588,8.74,2.718,1.756
2026-05-23 16:06:49.985,1435949441,82985,2,0.96265,-0.03223,0.28589,1.046,2.519,1.947
2026-05-23 16:06:49.185,1435948641,83185,1,1.05664,0.12402,-0.04272,-6.137,-6.656,0.069
2026-05-23 16:06:49.185,1435948641,83185,2,0.9624,-0.02319,0.29321,-4.046,0.786,2.573
2026-05-23 16:06:50.385,1435949841,83385,1,1.02905,0.09692,-0.00806,12.344,1.931,2.534
2026-05-23 16:06:50.385,1435949841,83385,2,0.95752,-0.01758,0.3042,8.992,4.405,-10.313
2026-05-23 16:06:50.585,1435950041,83585,1,0.9978,0.30273,-0.05298,9.092,14.534,1.672
2026-05-23 16:06:50.585,1435950041,83585,2,0.98975,0.04492,0.30615,12.305,0.076,0.061
2026-05-23 16:06:50.785,1435950241,83785,1,1.05713,0.10181,0.00269,20.305,-5.954,10.992
2026-05-23 16:06:50.785,1435950241,83785,2,0.95679,0.07788,0.2854,27.29,7.42,-5.504
2026-05-23 16:06:50.985,1435950441,83985,1,1.04004,0.24878,-0.04126,20.855,8.771,12.069
2026-05-23 16:06:50.985,1435950441,83985,2,0.94507,0.05127,0.30713,16.038,-2.29,-3.794
2026-05-23 16:06:50.185,1435949641,84185,1,1.03857,0.0835,-0.04712,0.939,-6.275,-3.45
2026-05-23 16:06:50.185,1435949641,84185,2,0.96387,0.09473,0.29761,-0.252,1.198,-2.718
2026-05-23 16:06:51.385,1435950841,84385,1,1.05103,0.13672,-0.03857,3.214,-3.427,-0.618
2026-05-23 16:06:51.385,1435950841,84385,2,0.97144,0.09155,0.30371,5.725,-0.267,-0.084
2026-05-23 16:06:51.585,1435951041,84585,1,1.0791,0.12671,-0.05688,3.779,3.832,-0.863
2026-05-23 16:06:51.585,1435951041,84585,2,0.9563,0.09058,0.30103,4.519,4.542,0.992
2026-05-23 16:06:51.785,1435951241,84785,1,1.0459,0.15771,-0.03247,-3.519,5.649,-5.389
2026-05-23 16:06:51.785,1435951241,84785,2,0.95679,0.09985,0.30762,-3.336,4.473,0.122
2026-05-23 16:06:51.985,1435951441,84985,1,1.0293,0.17651,-0.02197,1.84,1.26,-0.908
2026-05-23 16:06:51.985,1435951441,84985,2,0.9519,0.08105,0.3064,-2.481,1.13,2.023
2026-05-23 16:06:51.185,1435950641,85185,1,1.03638,0.14233,-0.01538,-8.58,-0.519,-2.908
2026-05-23 16:06:51.185,1435950641,85185,2,0.96899,0.07422,0.31641,-8.191,-0.565,2.198
2026-05-23 16:06:52.385,1435951841,85385,1,1.05225,0.14893,-0.00854,-2.534,-4.534,2.511
2026-05-23 16:06:52.385,1435951841,85385,2,0.97827,0.09839,0.33057,-2.87,1.107,0.748
2026-05-23 16:06:52.585,1435952041,85585,1,1.04956,0.12915,-0.01489,-0.641,2.687,-0.725
2026-05-23 16:06:52.585,1435952041,85585,2,0.96704,0.08252,0.32739,-5.55,1.153,5.45
2026-05-23 16:06:52.785,1435952241,85785,1,1.04956,0.13672,0.00146,-6.435,-6.198,0.809
2026-05-23 16:06:52.785,1435952241,85785,2,0.96753,0.08081,0.31689,-2.969,1.504,1.725
2026-05-23 16:06:52.985,1435952441,85985,1,1.05493,0.14478,-0.02466,-4.977,3.221,-2.099
2026-05-23 16:06:52.985,1435952441,85985,2,0.95215,0.08179,0.32349,-5.214,2.046,2.771
2026-05-23 16:06:52.185,1435951641,86185,1,1.04297,0.13257,-0.01147,-4.779,-1.099,-0.664
2026-05-23 16:06:52.185,1435951641,86185,2,0.9646,0.07153,0.32495,-2.122,-0.29,0.855
2026-05-23 16:06:53.385,1435952841,86385,1,1.05127,0.14038,-0.00854,-6.008,-0.42,-1.779
2026-05-23 16:06:53.385,1435952841,86385,2,0.97534,0.07495,0.31519,-3.939,-0.397,1.45
2026-05-23 16:06:53.585,1435953041,86585,1,1.04858,0.14355,-0.01147,-1.924,-1.511,-1.863
2026-05-23 16:06:53.585,1435953041,86585,2,0.96436,0.08154,0.32495,1.191,0.847,0.924
2026-05-23 16:06:53.785,1435953241,86785,1,1.04614,0.16724,-0.00854,-8.115,0.748,-2.237
2026-05-23 16:06:53.785,1435953241,86785,2,0.9729,0.06519,0.30566,-0.458,-1.237,3.847
2026-05-23 16:06:53.985,1435953441,86985,1,1.052,0.1604,-0.03564,-2.496,-0.496,-1.168
2026-05-23 16:06:53.985,1435953441,86985,2,0.95703,0.06519,0.30981,-2.176,2.031,1.069
2026-05-23 16:06:53.185,1435952641,87185,1,1.04785,0.16455,-0.02515,-1.053,2.252,0.74
2026-05-23 16:06:53.185,1435952641,87185,2,0.9624,0.07227,0.30444,0.763,2.229,0.695
2026-05-23 16:06:54.385,1435953841,87385,1,1.05005,0.15259,-0.02246,3.0,1.511,0.985
2026-05-23 16:06:54.385,1435953841,87385,2,0.95117,0.06958,0.30054,0.382,,0.221
2026-05-23 16:06:54.585,1435954041,87585,1,1.03784,0.16357,-0.02002,4.672,-1.733,1.573
2026-05-23 16:06:54.585,1435954041,87585,2,0.96509,0.07813,0.30688,1.382,2.229,-0.45
2026-05-23 16:06:54.785,1435954241,87785,1,1.0354,0.14282,-0.02759,-0.656,-0.931,1.695
2026-05-23 16:06:54.785,1435954241,87785,2,0.95679,0.06812,0.30273,0.321,1.794,1.748
2026-05-23 16:06:54.985,1435954441,87985,1,1.03735,0.15625,-0.0144,-7.069,2.336,-3.901
2026-05-23 16:06:54.985,1435954441,87985,2,0.96289,0.07739,0.29858,-3.802,0.656,-1.573
2026-05-23 16:06:54.185,1435953641,88185,1,1.0459,0.12817,-0.04443,-3.374,-1.725,1.038
2026-05-23 16:06:54.185,1435953641,88185,2,0.97363,0.07275,0.30005,-2.725,3.466,3.229
2026-05-23 16:06:55.385,1435954841,88385,1,1.05054,0.14014,-0.03296,-5.847,3.481,0.595
2026-05-23 16:06:55.385,1435954841,88385,2,0.96484,0.07397,0.31689,-1.557,2.443,0.702
2026-05-23 16:06:55.585,1435955041,88585,1,1.04663,0.1499,0.0144,-1.969,-0.687,-3.359
2026-05-23 16:06:55.585,1435955041,88585,2,0.95483,0.06641,0.31763,0.695,1.527,-0.527
2026-05-23 16:06:55.785,1435955241,88785,1,1.05249,0.17798,-0.01831,-6.992,1.771,0.351
2026-05-23 16:06:55.785,1435955241,88785,2,0.95459,0.05908,0.32959,-6.321,-1.511,4.206
2026-05-23 16:06:55.985,1435955441,88985,1,1.05298,0.15259,0.0105,-7.496,-0.618,6.046
2026-05-23 16:06:55.985,1435955441,88985,2,0.9707,0.07813,0.32886,1.794,-0.168,2.679
2026-05-23 16:06:55.185,1435954641,89185,1,1.06348,0.1228,-0.02637,-9.45,0.206,2.656
2026-05-23 16:06:55.185,1435954641,89185,2,0.97046,0.06982,0.32324,-1.45,-0.733,3.244
2026-05-23 16:06:56.385,1435955841,89385,1,1.04785,0.11963,0.00952,-2.099,-0.985,1.015
2026-05-23 16:06:56.385,1435955841,89385,2,0.95532,0.07251,0.31641,-0.527,1.115,1.786
2026-05-23 16:06:56.585,1435956041,89585,1,1.05737,0.11206,-0.0271,-1.092,-1.298,0.824
2026-05-23 16:06:56.585,1435956041,89585,2,0.97583,0.06665,0.30127,-0.16,1.084,2.153
2026-05-23 16:06:56.785,1435956241,89785,1,1.04321,0.0979,-0.0188,-0.107,-1.595,0.969
2026-05-23 16:06:56.785,1435956241,89785,2,0.95142,0.05542,0.31177,-1.527,0.046,0.435
2026-05-23 16:06:56.985,1435956441,89985,1,1.05566,0.09912,-0.02026,0.084,-0.573,-0.145
2026-05-23 16:06:56.985,1435956441,89985,2,0.97437,0.06567,0.30444,-1.634,0.076,0.992
2026-05-23 16:06:56.185,1435955641,90185,1,1.07251,0.09546,-0.02026,-2.573,0.229,-0.557
2026-05-23 16:06:56.185,1435955641,90185,2,0.9646,0.06445,0.29907,-1.092,2.55,1.885
2026-05-23 16:06:57.385,1435956841,90385,1,0.99854,0.08521,-0.01392,-4.504,-3.931,2.504
2026-05-23 16:06:57.385,1435956841,90385,2,0.96021,0.06787,0.31445,-0.58,2.229,1.099
2026-05-23 16:06:57.585,1435957041,90585,1,1.05713,0.09839,-0.01929,-2.359,1.405,-0.344
2026-05-23 16:06:57.585,1435957041,90585,2,0.96582,0.0686,0.30786,-1.702,0.802,1.977
2026-05-23 16:06:57.785,1435957241,90785,1,1.04663,0.09229,-0.01025,-5.038,0.87,0.565
2026-05-23 16:06:57.785,1435957241,90785,2,0.94531,0.05908,0.31934,-1.931,0.061,0.924
2026-05-23 16:06:57.985,1435957441,90985,1,1.03027,0.08545,-0.01123,-2.885,0.366,0.771
2026-05-23 16:06:57.985,1435957441,90985,2,0.96289,0.07251,0.30811,-0.58,0.634,1.069
2026-05-23 16:06:57.185,1435956641,91185,1,1.04541,0.09253,-0.00049,-2.076,1.893,0.794
2026-05-23 16:06:57.185,1435956641,91185,2,0.95264,0.07349,0.3042,-0.137,1.26,1.649
2026-05-23 16:06:58.385,1435957841,91385,1,1.06934,0.09399,-0.00488,2.916,3.145,1.344
2026-05-23 16:06:58.385,1435957841,91385,2,0.96387,0.06152,0.30347,-0.435,0.908,1.023
2026-05-23 16:06:58.585,1435958041,91585,1,1.04932,0.07373,-0.00684,-1.16,-3.244,1.099
2026-05-23 16:06:58.585,1435958041,91585,2,0.96313,0.0647,0.30078,-1.107,0.031,0.153
2026-05-23 16:06:58.785,1435958241,91785,1,1.06396,0.07471,-0.0188,1.626,-0.718,1.618
2026-05-23 16:06:58.785,1435958241,91785,2,0.96948,0.07715,0.30811,0.374,1.908,1.267
2026-05-23 16:06:58.985,1435958441,91985,1,1.05786,0.07495,-0.02026,0.031,0.023,-0.221
2026-05-23 16:06:58.985,1435958441,91985,2,0.95801,0.07104,0.30444,-0.45,2.924,0.885
2026-05-23 16:06:58.185,1435957641,92185,1,1.06152,0.08423,-0.01831,-0.802,1.351,-1.275
2026-05-23 16:06:58.185,1435957641,92185,2,0.96777,0.07251,0.31274,0.557,1.649,1.405
2026-05-23 16:06:59.385,1435958841,92385,1,1.06543,0.07983,0.00049,-3.26,0.718,-1.489
2026-05-23 16:06:59.385,1435958841,92385,2,0.96606,0.0813,0.30005,-2.244,0.145,1.573
2026-05-23 16:06:59.585,1435959041,92585,1,1.05176,0.08179,-0.00269,-2.458,1.015,-0.618
2026-05-23 16:06:59.585,1435959041,92585,2,0.97241,0.07568,0.3186,-0.344,0.74,1.145
2026-05-23 16:06:59.785,1435959241,92785,1,1.05664,0.09302,-0.00562,-3.16,1.038,0.015
2026-05-23 16:06:59.785,1435959241,92785,2,0.96924,0.07544,0.32007,0.244,0.595,1.244
2026-05-23 16:06:59.985,1435959441,92985,1,1.0603,0.09229,-0.00879,-2.618,-0.145,0.282
2026-05-23 16:06:59.985,1435959441,92985,2,0.96558,0.06958,0.30762,-0.878,0.977,1.855
2026-05-23 16:06:59.185,1435958641,93185,1,1.05737,0.08447,-0.00952,-4.221,2.206,0.313
2026-05-23 16:06:59.185,1435958641,93185,2,0.95728,0.07837,0.31299,-2.695,0.504,2.794
2026-05-23 16:07:00.385,1435959841,93385,1,1.05444,0.08081,0.00659,-2.237,2.336,1.595
2026-05-23 16:07:00.385,1435959841,93385,2,0.94531,0.07275,0.30005,-0.733,1.489,1.435
2026-05-23 16:07:00.585,1435960041,93585,1,1.05347,0.06763,-0.01074,0.534,-1.519,0.893
2026-05-23 16:07:00.585,1435960041,93585,2,0.96899,0.07495,0.30444,-2.015,0.282,1.382
2026-05-23 16:07:00.785,1435960241,93785,1,1.05957,0.07935,-0.01587,1.107,-0.313,1.099
2026-05-23 16:07:00.785,1435960241,93785,2,0.96411,0.06982,0.31592,-0.099,1.29,0.252
2026-05-23 16:07:00.985,1435960441,93985,1,1.06738,0.07813,-0.02539,1.214,0.275,-0.198
2026-05-23 16:07:00.985,1435960441,93985,2,0.95776,0.07861,0.30859,0.015,2.779,1.45
2026-05-23 16:07:00.185,1435959641,94185,1,1.05981,0.07642,-0.01831,-0.779,1.786,-0.084
2026-05-23 16:07:00.185,1435959641,94185,2,0.96216,0.06616,0.3125,0.947,2.069,0.802
2026-05-23 16:07:01.385,1435960841,94385,1,1.06543,0.0874,0.00122,-3.969,1.603,-1.115
2026-05-23 16:07:01.385,1435960841,94385,2,0.96899,0.06812,0.31567,-1.168,1.397,2.122
2026-05-23 16:07:01.585,1435961041,94585,1,1.05591,0.08179,-0.01636,-4.824,-0.328,-1.229
2026-05-23 16:07:01.585,1435961041,94585,2,0.96411,0.07544,0.31201,-3.832,1.214,0.527
2026-05-23 16:07:01.785,1435961241,94785,1,1.0498,0.06323,0.00122,-4.725,1.687,-0.427
2026-05-23 16:07:01.785,1435961241,94785,2,0.9563,0.07471,0.31641,0.053,0.137,2.221
2026-05-23 16:07:01.985,1435961441,94985,1,1.04834,0.07227,-0.00464,-3.389,-0.328,-0.786
2026-05-23 16:07:01.985,1435961441,94985,2,0.96484,0.07739,0.31201,-2.443,0.809,2.122
2026-05-23 16:07:01.185,1435960641,95185,1,1.06836,0.07813,0.00049,-6.626,0.183,-0.389
2026-05-23 16:07:01.185,1435960641,95185,2,0.96558,0.06909,0.31152,-2.321,0.504,1.443
2026-05-23 16:07:02.385,1435961841,95385,1,1.05347,0.07837,-0.00781,-1.832,1.496,-1.031
2026-05-23 16:07:02.385,1435961841,95385,2,0.9646,0.06934,0.31689,-0.099,0.71,1.771
2026-05-23 16:07:02.585,1435962041,95585,1,1.04932,0.0835,0.00757,0.038,2.58,1.076
2026-05-23 16:07:02.585,1435962041,95585,2,0.96924,0.07568,0.29907,0.908,0.473,1.756
2026-05-23 16:07:02.785,1435962241,95785,1,1.06299,0.07764,-0.00049,1.695,-4.382,1.183
2026-05-23 16:07:02.785,1435962241,95785,2,0.95532,0.06226,0.30884,-1.473,0.695,1.115
2026-05-23 16:07:02.985,1435962441,95985,1,1.06738,0.07617,-0.02002,-0.985,-1.252,1.74
2026-05-23 16:07:02.985,1435962441,95985,2,0.9668,0.08325,0.31274,-0.817,0.542,1.229
2026-05-23 16:07:02.185,1435961641,96185,1,1.06665,0.07202,-0.02563,0.076,-0.626,0.221
2026-05-23 16:07:02.185,1435961641,96185,2,0.97363,0.06641,0.30933,-0.366,2.023,1.153
2026-05-23 16:07:03.385,1435962841,96385,1,1.05347,0.0752,-0.01343,-0.878,3.824,-0.626
2026-05-23 16:07:03.385,1435962841,96385,2,0.96582,0.06079,0.31396,-0.641,2.718,0.084
2026-05-23 16:07:03.585,1435963041,96585,1,1.04565,0.07275,-0.01318,-2.931,3.198,-2.0
2026-05-23 16:07:03.585,1435963041,96585,2,0.96631,0.07788,0.31348,-1.527,1.298,0.443
2026-05-23 16:07:03.785,1435963241,96785,1,1.04712,0.07935,-0.00806,-3.0,-0.069,-0.336
2026-05-23 16:07:03.785,1435963241,96785,2,0.95166,0.07715,0.32007,0.038,2.0,1.298
2026-05-23 16:07:03.985,1435963441,96985,1,1.05933,0.0791,0.0061,-7.076,-0.244,-0.977
2026-05-23 16:07:03.985,1435963441,96985,2,0.96094,0.08179,0.31274,-1.481,-0.702,1.023
2026-05-23 16:07:03.185,1435962641,97185,1,1.06445,0.08521,-0.00757,-2.786,-2.954,1.198
2026-05-23 16:07:03.185,1435962641,97185,2,0.95654,0.08887,0.31763,-1.626,1.977,2.458
2026-05-23 16:07:04.385,1435963841,97385,1,1.07422,0.073,-0.00146,-1.969,0.107,-4.618
2026-05-23 16:07:04.385,1435963841,97385,2,0.97339,0.06421,0.30127,-5.069,2.519,1.84
2026-05-23 16:07:04.585,1435964041,97585,1,1.05518,0.07935,0.00562,1.336,2.382,0.542
2026-05-23 16:07:04.585,1435964041,97585,2,0.96582,0.07788,0.30542,2.855,1.573,1.16
2026-05-23 16:07:04.785,1435964241,97785,1,1.05811,0.08521,0.01904,0.382,-2.863,0.885
2026-05-23 16:07:04.785,1435964241,97785,2,0.95508,0.07544,0.33276,-3.366,0.534,2.023
2026-05-23 16:07:04.985,1435964441,97985,1,1.06372,0.08325,0.00098,-2.168,0.969,-0.405
2026-05-23 16:07:04.985,1435964441,97985,2,0.96411,0.07861,0.33154,-2.679,1.756,2.229
2026-05-23 16:07:04.185,1435963641,98185,1,1.05713,0.08667,-0.01025,-1.901,2.29,-0.099
2026-05-23 16:07:04.185,1435963641,98185,2,0.96045,0.06689,0.31226,-4.221,2.504,2.137
2026-05-23 16:07:05.385,1435964841,98385,1,1.0481,0.11914,0.01514,-5.511,-0.282,-0.427
2026-05-23 16:07:05.385,1435964841,98385,2,0.98804,0.06543,0.32788,-5.634,-0.664,6.099
2026-05-23 16:07:05.585,1435965041,98585,1,1.06006,0.1062,0.00464,-20.267,-0.748,3.435
2026-05-23 16:07:05.585,1435965041,98585,2,0.94727,0.05029,0.31836,-16.939,-1.702,10.656
2026-05-23 16:07:05.785,1435965241,98785,1,1.05933,0.01147,0.02856,-26.267,0.038,-5.115
2026-05-23 16:07:05.785,1435965241,98785,2,0.97144,0.01855,0.31201,-16.427,-3.313,9.954
2026-05-23 16:07:05.985,1435965441,98985,1,1.11084,0.13281,-0.00024,-22.878,2.847,-2.427
2026-05-23 16:07:05.985,1435965441,98985,2,0.96606,0.01465,0.29443,-8.069,-3.565,3.42
2026-05-23 16:07:05.185,1435964641,99185,1,1.06372,0.05176,0.00293,-7.145,-4.702,-0.275
2026-05-23 16:07:05.185,1435964641,99185,2,0.94971,-0.0127,0.31201,-3.924,1.115,5.573
2026-05-23 16:07:06.385,1435965841,99385,1,1.0459,0.05078,0.02173,-4.328,-3.359,-1.779
2026-05-23 16:07:06.385,1435965841,99385,2,0.9563,-0.03198,0.31787,-1.656,0.26,2.359
2026-05-23 16:07:06.585,1435966041,99585,1,1.06934,0.07202,-0.02881,-6.229,-0.244,0.542
2026-05-23 16:07:06.585,1435966041,99585,2,0.9646,-0.01636,0.27612,-4.221,-1.244,4.061
2026-05-23 16:07:06.785,1435966241,99785,1,1.05981,0.05103,-0.01831,-3.542,-0.145,1.504
2026-05-23 16:07:06.785,1435966241,99785,2,0.97583,-0.0166,0.26367,-2.893,1.878,2.145
2026-05-23 16:07:06.985,1435966441,99985,1,1.05493,0.05322,-0.0105,0.511,1.397,2.229
2026-05-23 16:07:06.985,1435966441,99985,2,0.95752,-0.01807,0.28296,-0.153,1.344,-0.58
2026-05-23 16:07:06.185,1435965641,100185,1,1.07031,0.0542,-0.01123,2.122,1.26,0.725
2026-05-23 16:07:06.185,1435965641,100185,2,0.95923,-0.02002,0.28149,1.885,2.237,0.885
2026-05-23 16:07:07.385,1435966841,100385,1,1.05591,0.03516,-0.01929,1.458,2.947,0.115
2026-05-23 16:07:07.385,1435966841,100385,2,0.96362,-0.02222,0.28931,2.931,2.954,0.206
2026-05-23 16:07:07.585,1435967041,100585,1,1.04614,0.01587,0.01563,0.664,1.45,-1.42
2026-05-23 16:07:07.585,1435967041,100585,2,0.9585,-0.0166,0.3374,-1.962,2.374,-2.168
2026-05-23 16:07:07.785,1435967241,100785,1,1.13428,0.07251,-0.00366,17.344,36.107,-1.725
2026-05-23 16:07:07.785,1435967241,100785,2,1.06396,0.02148,0.39331,31.611,45.168,-3.893
2026-05-23 16:07:07.985,1435967441,100985,1,0.99341,0.10327,0.06128,-5.771,79.168,2.985
2026-05-23 16:07:07.985,1435967441,100985,2,0.84009,-0.10938,0.54517,-1.344,94.229,-20.763
2026-05-23 16:07:07.185,1435966641,101185,1,0.48413,0.2439,0.38379,32.58,87.771,14.351
2026-05-23 16:07:07.185,1435966641,101185,2,0.56055,0.18115,0.60522,60.504,78.107,-0.542
2026-05-23 16:07:08.385,1435967841,101385,1,0.60352,0.16138,0.51807,2.321,17.969,2.221
2026-05-23 16:07:08.385,1435967841,101385,2,0.39063,0.40234,0.88477,18.084,47.221,26.534
2026-05-23 16:07:08.585,1435968041,101585,1,0.74097,0.15283,0.52441,0.305,-6.565,-1.687
2026-05-23 16:07:08.585,1435968041,101585,2,0.88574,0.17725,0.90723,-2.069,-1.847,10.855
2026-05-23 16:07:08.785,1435968241,101785,1,0.76563,0.06543,0.55688,-13.893,-17.809,-4.595
2026-05-23 16:07:08.785,1435968241,101785,2,0.9187,0.18555,0.79395,-31.168,-29.931,3.832
2026-05-23 16:07:08.985,1435968441,101985,1,1.35278,0.13452,0.86157,7.481,-27.588,1.374
2026-05-23 16:07:08.985,1435968441,101985,2,1.40723,0.30615,1.06738,14.183,-2.107,0.748
2026-05-23 16:07:08.185,1435967641,102185,1,0.67236,0.18042,0.24438,-11.542,10.183,-5.214
2026-05-23 16:07:08.185,1435967641,102185,2,0.62915,0.14526,0.60498,-25.053,-18.557,3.275
2026-05-23 16:07:09.385,1435968841,102385,1,1.20557,0.08252,0.54517,1.878,-27.038,4.275
2026-05-23 16:07:09.385,1435968841,102385,2,1.20313,0.10376,0.81006,26.824,7.878,3.779
2026-05-23 16:07:09.585,1435969041,102585,1,0.79883,0.0769,0.41455,-7.473,-0.45,-9.244
2026-05-23 16:07:09.585,1435969041,102585,2,0.91968,0.11646,0.70752,-10.13,-10.489,-3.84
2026-05-23 16:07:09.785,1435969241,102785,1,0.9502,0.12061,0.35767,-1.466,-0.061,0.664
2026-05-23 16:07:09.785,1435969241,102785,2,1.11035,0.13525,0.75684,0.359,3.573,6.191
2026-05-23 16:07:09.985,1435969441,102985,1,1.09912,0.18506,0.54248,-0.939,26.427,0.885
2026-05-23 16:07:09.985,1435969441,102985,2,0.98535,0.14624,0.71387,-21.397,17.603,4.878
2026-05-23 16:07:09.185,1435968641,103185,1,0.78491,0.16089,0.57471,-14.466,-0.427,7.87
2026-05-23 16:07:09.185,1435968641,103185,2,0.89575,0.08423,0.86694,-14.634,-27.061,7.496
2026-05-23 16:07:10.385,1435969841,103385,1,0.93994,0.11279,0.42065,7.481,-29.71,-0.588
2026-05-23 16:07:10.385,1435969841,103385,2,0.84839,0.09497,0.625,1.397,-17.221,8.153
2026-05-23 16:07:10.585,1435970041,103585,1,0.81738,0.04541,0.33179,5.718,-39.298,-0.794
2026-05-23 16:07:10.585,1435970041,103585,2,0.7915,0.04419,0.44897,-39.626,-83.359,-26.023
2026-05-23 16:07:10.785,1435970241,103785,1,0.72144,0.19482,-0.03149,12.664,-69.702,0.267
2026-05-23 16:07:10.785,1435970241,103785,2,1.32861,0.05225,0.43872,-15.26,-40.389,15.519
2026-05-23 16:07:10.985,1435970441,103985,1,1.13013,0.18213,-0.01392,-16.237,-43.191,-5.023
2026-05-23 16:07:10.985,1435970441,103985,2,0.90796,0.22144,0.35376,-16.725,2.84,2.55
2026-05-23 16:07:10.185,1435969641,104185,1,1.0647,0.11914,0.02881,0.664,6.901,-1.565
2026-05-23 16:07:10.185,1435969641,104185,2,0.94873,0.10327,0.29395,-2.008,8.237,5.076
2026-05-23 16:07:11.385,1435970841,104385,1,1.00439,0.13232,0.10059,-3.206,6.267,-1.42
2026-05-23 16:07:11.385,1435970841,104385,2,0.93506,0.11523,0.32227,-8.702,5.145,0.221
2026-05-23 16:07:11.585,1435971041,104585,1,1.06372,0.11792,0.12109,6.229,9.672,2.969
2026-05-23 16:07:11.585,1435971041,104585,2,0.93335,0.08862,0.49023,5.145,38.855,3.977
2026-05-23 16:07:11.785,1435971241,104785,1,0.73389,0.04346,0.1604,-1.756,25.046,-2.908
2026-05-23 16:07:11.785,1435971241,104785,2,0.64307,0.021,0.51465,-8.489,-0.489,-7.382
2026-05-23 16:07:11.985,1435971441,104985,1,0.88501,0.13501,0.12524,8.351,13.0,-4.779
2026-05-23 16:07:11.985,1435971441,104985,2,0.88647,0.11035,0.50049,6.779,32.771,-7.863
2026-05-23 16:07:11.185,1435970641,105185,1,0.9668,0.18506,0.19604,-5.809,10.351,0.374
2026-05-23 16:07:11.185,1435970641,105185,2,1.12183,0.09717,0.50537,14.611,38.916,14.611
2026-05-23 16:07:12.385,1435971841,105385,1,1.05591,0.17505,0.42383,-2.679,-14.893,0.947
2026-05-23 16:07:12.385,1435971841,105385,2,1.1145,0.23706,0.625,9.443,-3.87,-23.489
2026-05-23 16:07:12.585,1435972041,105585,1,1.30591,0.21436,0.35693,-7.542,4.481,4.076
2026-05-23 16:07:12.585,1435972041,105585,2,1.25269,0.12549,0.87549,5.145,19.595,10.137
2026-05-23 16:07:12.785,1435972241,105785,1,0.79858,0.27563,0.40015,0.725,-5.298,25.588
2026-05-23 16:07:12.785,1435972241,105785,2,0.86377,0.25659,0.58838,16.206,-4.435,-0.557
2026-05-23 16:07:12.985,1435972441,105985,1,0.96948,0.31372,0.354,16.756,10.58,0.832
2026-05-23 16:07:12.985,1435972441,105985,2,0.87573,0.25244,0.77881,13.786,12.344,7.916
2026-05-23 16:07:12.185,1435971641,106185,1,0.79712,0.03442,0.56372,-4.786,10.565,5.977
2026-05-23 16:07:12.185,1435971641,106185,2,0.854,0.25098,0.79419,10.702,10.725,-4.595
2026-05-23 16:07:13.385,1435972841,106385,1,0.84692,0.16406,0.39648,-10.229,-6.076,1.763
2026-05-23 16:07:13.385,1435972841,106385,2,0.92798,0.24048,0.76465,13.321,2.504,1.405
2026-05-23 16:07:13.585,1435973041,106585,1,0.81372,0.12134,0.40479,-1.718,-6.802,2.519
2026-05-23 16:07:13.585,1435973041,106585,2,0.88623,0.23999,0.74194,4.427,-2.107,7.618
2026-05-23 16:07:13.785,1435973241,106785,1,0.93896,0.16382,0.37988,-5.221,-6.008,-2.618
2026-05-23 16:07:13.785,1435973241,106785,2,0.88306,0.16113,0.68701,-2.695,3.176,0.321
2026-05-23 16:07:13.985,1435973441,106985,1,0.90454,0.16626,0.36377,-5.237,-0.794,0.824
2026-05-23 16:07:13.985,1435973441,106985,2,0.88184,0.2168,0.73438,-10.42,-1.084,3.809
2026-05-23 16:07:13.185,1435972641,107185,1,0.86328,0.10913,0.35596,1.618,7.969,-6.534
2026-05-23 16:07:13.185,1435972641,107185,2,0.87744,0.15063,0.74072,-8.351,1.992,0.397
2026-05-23 16:07:14.385,1435973841,107385,1,0.89014,0.17651,0.43018,-12.389,12.748,-3.061
2026-05-23 16:07:14.385,1435973841,107385,2,0.92822,0.20825,0.75928,-10.496,-2.435,3.496
2026-05-23 16:07:14.585,1435974041,107585,1,0.8457,0.11328,0.43945,0.954,4.84,0.015
2026-05-23 16:07:14.585,1435974041,107585,2,0.9021,0.19165,0.73315,3.534,0.618,0.504
2026-05-23 16:07:14.785,1435974241,107785,1,0.80981,0.15918,0.47729,3.115,7.702,0.489
2026-05-23 16:07:14.785,1435974241,107785,2,0.88477,0.23755,0.76123,7.916,6.328,1.641
2026-05-23 16:07:14.985,1435974441,107985,1,0.8064,0.20337,0.47314,-3.603,-3.664,-3.26
2026-05-23 16:07:14.985,1435974441,107985,2,0.89673,0.19995,0.72217,-8.366,-9.733,-0.924
2026-05-23 16:07:14.185,1435973641,108185,1,0.84351,0.18604,0.4585,-4.893,-9.656,0.733
2026-05-23 16:07:14.185,1435973641,108185,2,0.89185,0.22705,0.73535,-3.595,-5.939,2.061
2026-05-23 16:07:15.385,1435974841,108385,1,0.91333,0.17822,0.37207,-2.603,-12.641,6.748
2026-05-23 16:07:15.385,1435974841,108385,2,0.94556,0.19995,0.71851,8.641,-5.42,4.733
2026-05-23 16:07:15.585,1435975041,108585,1,0.90405,0.1311,0.34937,6.176,3.374,0.779
2026-05-23 16:07:15.585,1435975041,108585,2,0.9231,0.20898,0.69434,4.13,8.901,1.0
2026-05-23 16:07:15.785,1435975241,108785,1,0.86206,0.15088,0.41455,-3.763,12.687,-4.672
2026-05-23 16:07:15.785,1435975241,108785,2,0.90454,0.18579,0.7439,-0.305,4.794,2.038
2026-05-23 16:07:15.985,1435975441,108985,1,0.76245,0.20117,0.44946,-6.817,3.397,-3.038
2026-05-23 16:07:15.985,1435975441,108985,2,0.89209,0.17065,0.72388,6.489,0.84,1.725
2026-05-23 16:07:15.185,1435974641,109185,1,0.91846,0.15527,0.3772,-12.366,-13.282,-8.153
2026-05-23 16:07:15.185,1435974641,109185,2,0.95532,0.14575,0.7207,-4.168,1.595,2.046
2026-05-23 16:07:16.385,1435975841,109385,1,0.83569,0.18506,0.41284,2.832,-6.603,2.122
2026-05-23 16:07:16.385,1435975841,109385,2,0.90674,0.20605,0.729,8.42,6.145,1.55
2026-05-23 16:07:16.585,1435976041,109585,1,0.86133,0.16895,0.4314,-7.092,0.84,2.252
2026-05-23 16:07:16.585,1435976041,109585,2,0.89233,0.16748,0.73535,-3.366,3.382,0.489
2026-05-23 16:07:16.785,1435976241,109785,1,0.86011,0.18677,0.42969,-0.099,2.252,2.481
2026-05-23 16:07:16.785,1435976241,109785,2,0.90698,0.21875,0.70801,0.29,-0.794,0.863
2026-05-23 16:07:16.985,1435976441,109985,1,0.86133,0.1687,0.42627,-0.649,-0.229,-0.252
2026-05-23 16:07:16.985,1435976441,109985,2,0.90576,0.19678,0.70605,2.427,-0.573,2.656
2026-05-23 16:07:16.185,1435975641,110185,1,0.85596,0.18604,0.42969,0.473,0.221,1.382
2026-05-23 16:07:16.185,1435975641,110185,2,0.91968,0.19946,0.72632,1.527,-0.672,2.519
2026-05-23 16:07:17.385,1435976841,110385,1,0.85327,0.17871,0.42822,-2.885,-0.412,0.519
2026-05-23 16:07:17.385,1435976841,110385,2,0.91235,0.18848,0.69165,-1.466,-0.71,3.443
2026-05-23 16:07:17.585,1435977041,110585,1,0.85449,0.15283,0.4248,0.55,0.397,1.321
2026-05-23 16:07:17.585,1435977041,110585,2,0.90942,0.18433,0.6748,0.244,0.511,3.069
2026-05-23 16:07:17.785,1435977241,110785,1,0.85718,0.16113,0.42676,-2.191,-0.779,0.71
2026-05-23 16:07:17.785,1435977241,110785,2,0.92285,0.17505,0.70068,-2.092,1.725,1.595
2026-05-23 16:07:17.985,1435977441,110985,1,0.85059,0.16064,0.41724,-0.282,-0.046,-0.198
2026-05-23 16:07:17.985,1435977441,110985,2,0.9248,0.16797,0.70557,-3.42,2.206,0.969
2026-05-23 16:07:17.185,1435976641,111185,1,0.87695,0.16895,0.42725,-3.336,-0.71,0.916
2026-05-23 16:07:17.185,1435976641,111185,2,0.92725,0.18408,0.70508,-2.076,6.74,1.13
2026-05-23 16:07:18.385,1435977841,111385,1,0.87207,0.16357,0.42041,-2.885,-5.42,1.74
2026-05-23 16:07:18.385,1435977841,111385,2,0.89893,0.17188,0.71338,2.328,5.191,0.885
2026-05-23 16:07:18.585,1435978041,111585,1,0.88794,0.13232,0.39502,0.046,-6.542,0.809
2026-05-23 16:07:18.585,1435978041,111585,2,0.90845,0.17065,0.75513,-2.061,2.733,0.656
2026-05-23 16:07:18.785,1435978241,111785,1,1.02832,0.18188,0.42896,-1.321,5.649,7.511
2026-05-23 16:07:18.785,1435978241,111785,2,1.16919,0.21118,0.81104,6.16,12.496,8.305
2026-05-23 16:07:18.985,1435978441,111985,1,1.02563,0.15552,0.56348,-12.832,32.176,-4.229
2026-05-23 16:07:18.985,1435978441,111985,2,0.93994,0.26099,0.76807,-21.023,42.985,-10.435
2026-05-23 16:07:18.185,1435977641,112185,1,0.75562,0.16162,0.68896,-2.649,26.855,-4.679
2026-05-23 16:07:18.185,1435977641,112185,2,0.80005,0.19214,0.89624,10.71,2.847,1.107
2026-05-23 16:07:19.385,1435978841,112385,1,0.75391,0.14209,0.61255,0.435,-31.893,7.947
2026-05-23 16:07:19.385,1435978841,112385,2,0.86279,0.15894,0.86694,10.55,-27.122,17.595
2026-05-23 16:07:19.585,1435979041,112585,1,0.6936,0.07349,0.34888,-6.038,-59.992,5.481
2026-05-23 16:07:19.585,1435979041,112585,2,0.62305,0.11157,0.59131,22.023,-43.504,22.069
2026-05-23 16:07:19.785,1435979241,112785,1,1.41187,0.13428,-0.21899,13.58,-71.771,4.221
2026-05-23 16:07:19.785,1435979241,112785,2,1.16504,0.32007,0.34741,-11.031,-15.275,1.473
2026-05-23 16:07:19.985,1435979441,112985,1,1.08887,0.1228,0.11914,-31.489,-31.725,1.924
2026-05-23 16:07:19.985,1435979441,112985,2,0.91919,0.15479,0.28345,-1.244,-0.42,2.786
2026-05-23 16:07:19.185,1435978641,113185,1,1.00317,0.08618,0.14233,-9.863,1.092,-2.328
2026-05-23 16:07:19.185,1435978641,113185,2,0.94556,0.07935,0.46509,-0.504,30.489,2.977
2026-05-23 16:07:20.385,1435979841,113385,1,1.00586,0.12207,0.05493,27.557,63.649,-1.26
2026-05-23 16:07:20.385,1435979841,113385,2,1.00928,0.13623,0.64087,8.672,97.092,-0.878
2026-05-23 16:07:20.585,1435980041,113585,1,0.73657,0.14795,0.1748,4.29,127.916,3.427
2026-05-23 16:07:20.585,1435980041,113585,2,0.86548,0.22681,0.7771,73.924,191.26,-15.122
2026-05-23 16:07:20.785,1435980241,113785,1,0.22241,0.02319,0.78638,-16.992,149.412,-12.885
2026-05-23 16:07:20.785,1435980241,113785,2,0.51636,0.27246,1.27002,-12.351,132.244,-20.672
2026-05-23 16:07:20.985,1435980441,113985,1,-0.08228,0.05933,0.87329,-9.656,72.053,-8.313
2026-05-23 16:07:20.985,1435980441,113985,2,0.26172,0.03247,1.34595,-40.282,64.366,-7.824
2026-05-23 16:07:20.185,1435979641,114185,1,-0.30151,-0.02954,0.91846,-6.489,39.191,-1.695
2026-05-23 16:07:20.185,1435979641,114185,2,-0.02661,0.13623,1.42725,-16.809,23.092,1.756
2026-05-23 16:07:21.385,1435980841,114385,1,-0.25049,0.1106,0.76294,-7.504,-16.672,9.565
2026-05-23 16:07:21.385,1435980841,114385,2,-0.10327,0.0708,1.43896,-0.053,-3.779,3.893
2026-05-23 16:07:21.585,1435981041,114585,1,-0.3645,0.11523,1.07153,2.656,-23.489,5.214
2026-05-23 16:07:21.585,1435981041,114585,2,0.03296,0.17285,1.49438,16.076,-52.725,15.954
2026-05-23 16:07:21.785,1435981241,114785,1,-0.19629,0.03101,0.92993,7.321,-101.305,-3.389
2026-05-23 16:07:21.785,1435981241,114785,2,0.27344,0.07788,1.27905,14.298,-105.519,17.588
2026-05-23 16:07:21.985,1435981441,114985,1,0.31348,0.06738,0.59741,5.611,-153.046,4.397
2026-05-23 16:07:21.985,1435981441,114985,2,0.72339,0.1123,1.0376,-4.885,-122.16,30.153
2026-05-23 16:07:21.185,1435980641,115185,1,0.73755,0.12817,0.2749,-7.237,-109.229,-1.359
2026-05-23 16:07:21.185,1435980641,115185,2,0.88159,0.10791,0.67969,-41.771,-127.275,0.458
2026-05-23 16:07:22.385,1435981841,115385,1,0.99341,0.01514,0.0835,-10.267,-46.649,-3.595
2026-05-23 16:07:22.385,1435981841,115385,2,1.01465,0.03271,0.38916,-22.695,-58.656,9.435
2026-05-23 16:07:22.585,1435982041,115585,1,1.08521,0.12061,0.00854,-25.618,-40.405,-11.061
2026-05-23 16:07:22.585,1435982041,115585,2,0.97852,0.01514,0.27466,-33.756,-26.679,13.901
2026-05-23 16:07:22.785,1435982241,115785,1,1.05469,0.07031,-0.0166,-55.305,-25.305,-11.435
2026-05-23 16:07:22.785,1435982241,115785,2,0.95898,0.02319,0.16528,-26.748,-8.954,5.489
2026-05-23 16:07:22.985,1435982441,115985,1,0.97119,0.01929,0.03027,-26.206,14.527,0.718
2026-05-23 16:07:22.985,1435982441,115985,2,0.80615,0.01245,0.23218,-28.519,-14.794,-3.16
2026-05-23 16:07:22.185,1435981641,116185,1,1.06299,0.05273,0.01611,1.023,-0.626,2.954
2026-05-23 16:07:22.185,1435981641,116185,2,0.92896,0.02783,0.19019,-4.954,-6.573,-11.679
2026-05-23 16:07:23.385,1435982841,116385,1,1.00903,0.00073,-0.04614,6.366,-0.786,11.969
2026-05-23 16:07:23.385,1435982841,116385,2,0.96338,0.0708,0.15576,13.29,6.954,-16.16
2026-05-23 16:07:23.585,1435983041,116585,1,1.14502,0.05957,-0.07593,21.069,-14.893,19.107
2026-05-23 16:07:23.585,1435983041,116585,2,1.00146,0.10425,0.13379,27.84,-9.901,-13.427
2026-05-23 16:07:23.785,1435983241,116785,1,1.1023,0.10571,-0.04736,20.527,-8.947,16.046
2026-05-23 16:07:23.785,1435983241,116785,2,0.94775,0.13086,0.14478,13.58,11.229,-2.885
2026-05-23 16:07:23.985,1435983441,116985,1,1.09253,0.06812,0.0061,48.885,7.305,-4.328
2026-05-23 16:07:23.985,1435983441,116985,2,0.99512,0.10034,0.12964,18.832,18.13,-8.664
2026-05-23 16:07:23.185,1435982641,117185,1,1.12109,0.01074,-0.06177,48.382,3.328,-5.588
2026-05-23 16:07:23.185,1435982641,117185,2,0.95752,0.12695,0.18359,14.969,13.221,-7.023
2026-05-23 16:07:24.385,1435983841,117385,1,1.10327,0.1123,-0.0083,40.794,-7.954,-0.794
2026-05-23 16:07:24.385,1435983841,117385,2,0.96533,0.16089,0.16772,21.046,24.496,0.702
2026-05-23 16:07:24.585,1435984041,117585,1,1.12915,0.11108,-0.03223,7.282,13.786,-7.252
2026-05-23 16:07:24.585,1435984041,117585,2,0.94556,0.14063,0.26904,2.038,11.939,-3.74
2026-05-23 16:07:24.785,1435984241,117785,1,1.01172,0.18066,0.03149,3.328,2.763,0.84
2026-05-23 16:07:24.785,1435984241,117785,2,0.93286,0.17529,0.22925,5.099,3.275,1.046
2026-05-23 16:07:24.985,1435984441,117985,1,1.00146,0.19824,0.03149,-8.206,-1.603,6.794
2026-05-23 16:07:24.985,1435984441,117985,2,0.93433,0.18408,0.25806,-8.252,1.611,5.649
2026-05-23 16:07:24.185,1435983641,118185,1,0.92993,0.14941,0.09009,-27.069,9.939,-3.069
2026-05-23 16:07:24.185,1435983641,118185,2,0.93604,0.13379,0.25366,-28.489,13.595,7.679
2026-05-23 16:07:25.385,1435984841,118385,1,1.00562,0.10425,0.12109,-34.664,13.489,-4.824
2026-05-23 16:07:25.385,1435984841,118385,2,0.93677,0.09106,0.28345,-24.664,7.42,5.824
2026-05-23 16:07:25.585,1435985041,118585,1,0.94702,0.08643,0.198,-17.168,3.656,0.298
2026-05-23 16:07:25.585,1435985041,118585,2,0.97314,0.06421,0.31226,-10.931,-8.26,7.229
2026-05-23 16:07:25.785,1435985241,118785,1,0.98413,0.06055,0.13281,-6.908,-16.42,-5.313
2026-05-23 16:07:25.785,1435985241,118785,2,0.89697,0.08301,0.21704,-23.84,-6.725,4.557
2026-05-23 16:07:25.985,1435985441,118985,1,1.03418,0.11621,0.07788,-5.046,-6.29,3.939
2026-05-23 16:07:25.985,1435985441,118985,2,0.92041,0.06958,0.22168,1.718,-11.267,9.122
2026-05-23 16:07:25.185,1435984641,119185,1,1.07983,0.10815,0.0459,-13.779,-8.336,-7.45
2026-05-23 16:07:25.185,1435984641,119185,2,1.01196,0.10913,0.17651,-16.328,-3.008,6.038
2026-05-23 16:07:26.385,1435985841,119385,1,0.99878,0.10254,-0.00415,5.405,-3.443,-5.336
2026-05-23 16:07:26.385,1435985841,119385,2,0.95361,0.09204,0.20728,-5.611,-5.748,-3.855
2026-05-23 16:07:26.585,1435986041,119585,1,1.00293,0.15381,0.07129,-7.656,1.687,-6.847
2026-05-23 16:07:26.585,1435986041,119585,2,0.95703,0.10303,0.16602,-5.481,-9.87,9.076
2026-05-23 16:07:26.785,1435986241,119785,1,1.0647,0.1123,-0.02246,3.893,-11.947,3.122
2026-05-23 16:07:26.785,1435986241,119785,2,0.94409,0.07568,0.20581,1.137,2.084,-4.26
2026-05-23 16:07:26.985,1435986441,119985,1,1.01489,0.15894,0.01514,-4.298,6.45,-2.191
2026-05-23 16:07:26.985,1435986441,119985,2,0.93604,0.09521,0.22437,-2.695,4.931,7.397
2026-05-23 16:07:26.185,1435985641,120185,1,1.03809,0.12842,0.04956,-10.023,10.336,3.298
2026-05-23 16:07:26.185,1435985641,120185,2,0.92529,0.06812,0.19116,-8.382,2.13,-1.382
2026-05-23 16:07:27.385,1435986841,120385,1,1.06323,0.12354,0.04395,-2.939,14.13,1.0
2026-05-23 16:07:27.385,1435986841,120385,2,1.00244,0.06714,0.25708,4.099,11.58,-2.084
2026-05-23 16:07:27.585,1435987041,120585,1,0.99683,0.11963,0.14038,0.328,14.725,10.267
2026-05-23 16:07:27.585,1435987041,120585,2,0.89868,0.20264,0.23364,14.962,13.634,-8.336
2026-05-23 16:07:27.785,1435987241,120785,1,1.08838,0.13281,0.14551,19.015,1.229,0.191
2026-05-23 16:07:27.785,1435987241,120785,2,0.87817,0.17358,0.24341,18.252,8.679,-5.427
2026-05-23 16:07:27.985,1435987441,120985,1,1.03027,0.11621,0.11353,9.031,-0.45,0.603
2026-05-23 16:07:27.985,1435987441,120985,2,0.99487,0.11841,0.23877,-7.985,-7.962,-1.725
2026-05-23 16:07:27.185,1435986641,121185,1,1.06128,0.16187,0.12378,-31.191,-7.58,-6.389
2026-05-23 16:07:27.185,1435986641,121185,2,0.98315,0.12769,0.25317,-41.84,-11.412,12.87
2026-05-23 16:07:28.385,1435987841,121385,1,1.10425,0.03833,0.09912,-119.847,1.229,-35.214
2026-05-23 16:07:28.385,1435987841,121385,2,0.99585,0.11523,0.19873,-87.282,-4.176,42.42
2026-05-23 16:07:28.585,1435988041,121585,1,1.05249,0.01196,0.15942,-97.718,-6.916,-45.45
2026-05-23 16:07:28.585,1435988041,121585,2,0.96582,-0.05396,0.28833,-14.885,14.168,11.198
2026-05-23 16:07:28.785,1435988241,121785,1,0.90283,0.07642,0.20654,13.313,-107.145,-1.756
2026-05-23 16:07:28.785,1435988241,121785,2,0.99585,-0.08154,0.25366,-24.779,-8.878,5.405
2026-05-23 16:07:28.985,1435988441,121985,1,0.97876,0.02832,0.22681,26.099,4.802,3.466
2026-05-23 16:07:28.985,1435988441,121985,2,0.92041,-0.00098,0.27612,18.649,0.519,-14.74
2026-05-23 16:07:28.185,1435987641,122185,1,0.99878,0.05591,0.15356,94.023,2.863,39.992
2026-05-23 16:07:28.185,1435987641,122185,2,0.96753,0.00122,0.22217,77.023,14.435,-22.893
2026-05-23 16:07:29.385,1435988841,122385,1,1.0332,0.16504,0.08862,130.58,36.267,46.038
2026-05-23 16:07:29.385,1435988841,122385,2,1.05322,0.14331,0.30298,118.351,50.542,-14.718
2026-05-23 16:07:29.585,1435989041,122585,1,0.86621,0.28296,0.427,53.168,26.878,27.802
2026-05-23 16:07:29.585,1435989041,122585,2,0.92603,0.21313,0.40161,58.901,14.206,10.267
2026-05-23 16:07:29.785,1435989241,122785,1,0.98291,0.04785,0.2959,2.313,21.168,5.985
2026-05-23 16:07:29.785,1435989241,122785,2,0.99097,0.02124,0.49048,-12.771,-2.542,9.237
2026-05-23 16:07:29.985,1435989441,122985,1,0.99097,0.17188,0.14478,3.427,21.626,0.183
2026-05-23 16:07:29.985,1435989441,122985,2,1.07446,0.16675,0.61377,13.229,57.389,-15.611
2026-05-23 16:07:29.185,1435988641,123185,1,0.74438,-0.02686,0.49829,-58.595,68.244,-21.0
2026-05-23 16:07:29.185,1435988641,123185,2,0.80688,0.17944,0.80762,-42.824,56.855,-19.076
2026-05-23 16:07:30.385,1435989841,123385,1,0.61572,-0.07227,0.73975,8.023,78.893,-11.153
2026-05-23 16:07:30.385,1435989841,123385,2,0.8064,0.23999,1.07471,26.008,55.053,-0.366
2026-05-23 16:07:30.585,1435990041,123585,1,0.43408,-0.02197,0.68628,3.282,74.496,-2.893
2026-05-23 16:07:30.585,1435990041,123585,2,0.69482,0.2085,1.18701,17.878,73.084,-8.977
2026-05-23 16:07:30.785,1435990241,123785,1,0.30688,0.00098,0.82324,-41.397,16.473,-17.076
2026-05-23 16:07:30.785,1435990241,123785,2,0.51416,0.08008,1.22021,-75.504,-3.748,-13.076
2026-05-23 16:07:30.985,1435990441,123985,1,-0.0791,0.19556,1.03027,0.527,-11.023,-2.115
2026-05-23 16:07:30.985,1435990441,123985,2,0.479,0.21729,1.27734,-21.015,-35.893,2.099
2026-05-23 16:07:30.185,1435989641,124185,1,0.23022,0.10303,0.8418,12.664,-79.374,10.405
2026-05-23 16:07:30.185,1435989641,124185,2,0.6709,0.27905,1.02344,26.321,-57.756,18.328
2026-05-23 16:07:31.385,1435990841,124385,1,0.51855,0.08325,0.34204,-24.863,-63.542,-0.908
2026-05-23 16:07:31.385,1435990841,124385,2,0.63892,0.13062,0.98462,-0.443,0.344,1.687
2026-05-23 16:07:31.585,1435991041,124585,1,0.56543,-0.0144,0.56812,-5.458,26.649,-4.992
2026-05-23 16:07:31.585,1435991041,124585,2,0.63281,0.15454,0.8916,-8.962,32.443,
2026-05-23 16:07:31.785,1435991241,124785,1,0.65991,0.16553,0.67554,-0.115,67.847,-11.878
2026-05-23 16:07:31.785,1435991241,124785,2,1.14526,0.21094,1.80762,3.107,85.847,-4.313
2026-05-23 16:07:31.985,1435991441,124985,1,-0.35547,0.20728,0.92798,-8.328,90.092,-17.473
2026-05-23 16:07:31.985,1435991441,124985,2,0.00854,0.13916,1.05054,-68.588,94.26,-6.183
2026-05-23 16:07:31.185,1435990641,125185,1,-0.34863,0.05957,0.74121,-21.672,-7.87,1.389
2026-05-23 16:07:31.185,1435990641,125185,2,-0.43262,-0.17139,1.53345,-44.534,16.038,-1.084
2026-05-23 16:07:32.385,1435991841,125385,1,-0.29785,0.10156,0.802,7.733,-23.794,2.336
2026-05-23 16:07:32.385,1435991841,125385,2,0.02148,0.29395,1.4165,-3.534,-15.511,-8.916
2026-05-23 16:07:32.585,1435992041,125585,1,-0.10327,0.14722,0.99463,-2.244,-20.84,6.435
2026-05-23 16:07:32.585,1435992041,125585,2,0.11426,0.11304,1.4519,6.328,-36.008,14.053
2026-05-23 16:07:32.785,1435992241,125785,1,-0.0105,-0.021,0.79004,-3.198,-41.405,0.634
2026-05-23 16:07:32.785,1435992241,125785,2,0.28149,0.1665,1.35791,4.71,-53.26,10.779
2026-05-23 16:07:32.985,1435992441,125985,1,0.09912,0.09595,0.8269,1.84,-44.405,0.031
2026-05-23 16:07:32.985,1435992441,125985,2,0.3894,0.21313,1.30298,13.115,-51.023,11.573
2026-05-23 16:07:32.185,1435991641,126185,1,0.22852,0.12646,0.86279,10.542,-70.664,1.718
2026-05-23 16:07:32.185,1435991641,126185,2,0.54932,0.21191,1.13623,13.374,-68.817,11.481
2026-05-23 16:07:33.385,1435992841,126385,1,0.55664,0.11475,0.5896,2.031,-102.534,6.229
2026-05-23 16:07:33.385,1435992841,126385,2,0.73022,0.16431,0.91406,-3.931,-84.313,25.206
2026-05-23 16:07:33.585,1435993041,126585,1,0.87036,0.16724,0.23828,2.298,-69.046,2.832
2026-05-23 16:07:33.585,1435993041,126585,2,0.92017,0.20874,0.65112,-22.42,-67.458,9.901
2026-05-23 16:07:33.785,1435993241,126785,1,0.89771,0.07642,0.22974,2.153,-46.534,13.26
2026-05-23 16:07:33.785,1435993241,126785,2,0.90869,0.0979,0.53491,6.817,-47.336,11.015
2026-05-23 16:07:33.985,1435993441,126985,1,1.02734,0.06128,0.19897,-20.115,-39.237,4.305
2026-05-23 16:07:33.985,1435993441,126985,2,1.00049,0.19409,0.45313,9.58,-9.656,6.496
2026-05-23 16:07:33.185,1435992641,127185,1,1.03101,0.05298,0.12061,-2.679,10.901,1.725
2026-05-23 16:07:33.185,1435992641,127185,2,1.00488,0.09424,0.36572,-0.435,9.992,5.0
2026-05-23 16:07:34.385,1435993841,127385,1,1.03003,0.09863,0.0835,3.771,36.824,-0.748
2026-05-23 16:07:34.385,1435993841,127385,2,1.01025,0.17505,0.49072,1.069,53.481,2.595
2026-05-23 16:07:34.585,1435994041,127585,1,0.83105,0.10547,0.20532,12.313,78.26,2.031
2026-05-23 16:07:34.585,1435994041,127585,2,0.91919,0.10132,0.69312,-3.397,119.382,-3.092
2026-05-23 16:07:34.785,1435994241,127785,1,0.51074,0.11646,0.58423,-4.466,136.374,-2.74
2026-05-23 16:07:34.785,1435994241,127785,2,0.68701,0.34448,0.95581,12.351,122.863,-1.534
2026-05-23 16:07:34.985,1435994441,127985,1,0.08887,0.10962,0.83032,8.511,119.702,-13.031
2026-05-23 16:07:34.985,1435994441,127985,2,0.36206,0.22534,1.22217,-10.924,89.55,-12.718
2026-05-23 16:07:34.185,1435993641,128185,1,-0.25098,0.08301,0.9126,-17.519,54.458,-5.649
2026-05-23 16:07:34.185,1435993641,128185,2,0.15601,0.15527,1.40674,-10.954,65.015,6.427
2026-05-23 16:07:35.385,1435994841,128385,1,-0.76392,0.10791,1.04565,5.779,25.908,13.855
2026-05-23 16:07:35.385,1435994841,128385,2,0.12012,0.13281,1.36865,-14.702,-18.26,14.153
2026-05-23 16:07:35.585,1435995041,128585,1,-0.39404,0.02905,0.80029,-3.901,8.55,7.198
2026-05-23 16:07:35.585,1435995041,128585,2,0.06201,0.14624,1.40967,-6.198,2.519,0.55
2026-05-23 16:07:35.785,1435995241,128785,1,-0.44214,0.05054,1.03638,1.863,-33.282,2.359
2026-05-23 16:07:35.785,1435995241,128785,2,-0.03296,0.09985,1.48071,8.122,-39.962,3.908
2026-05-23 16:07:35.985,1435995441,128985,1,-0.32471,0.06763,1.0271,-11.061,-121.695,4.603
2026-05-23 16:07:35.985,1435995441,128985,2,0.44531,0.17871,1.19995,31.641,-140.588,36.817
2026-05-23 16:07:35.185,1435994641,129185,1,0.40967,-0.03516,0.46875,1.16,-158.458,16.527
2026-05-23 16:07:35.185,1435994641,129185,2,0.78442,0.1416,0.87012,40.053,-94.878,50.656
2026-05-23 16:07:36.385,1435995841,129385,1,0.77271,-0.02905,0.24902,-19.809,-96.206,-6.687
2026-05-23 16:07:36.385,1435995841,129385,2,0.86011,0.37109,0.51611,-109.16,-181.336,-53.817
2026-05-23 16:07:36.585,1435996041,129585,1,1.02002,0.10962,0.14478,-28.542,-81.496,-18.412
2026-05-23 16:07:36.585,1435996041,129585,2,1.02197,0.0332,0.40186,-30.008,-40.252,7.962
2026-05-23 16:07:36.785,1435996241,129785,1,1.09668,0.15186,0.02563,-3.58,-22.214,-8.282
2026-05-23 16:07:36.785,1435996241,129785,2,0.98486,0.05664,0.3103,-4.809,-3.969,-10.061
2026-05-23 16:07:36.985,1435996441,129985,1,1.14917,0.18042,0.00952,3.954,7.183,3.74
2026-05-23 16:07:36.985,1435996441,129985,2,0.95557,0.11719,0.24609,-3.863,-5.832,-4.725
2026-05-23 16:07:36.185,1435995641,130185,1,1.04639,0.10815,0.02515,-1.992,-7.618,7.053
2026-05-23 16:07:36.185,1435995641,130185,2,0.94873,0.04834,0.30884,-11.183,-5.412,0.87
2026-05-23 16:07:37.385,1435996841,130385,1,1.08569,0.02734,0.02393,-17.237,-4.847,-0.336
2026-05-23 16:07:37.385,1435996841,130385,2,1.01318,0.06299,0.24951,-7.344,1.588,2.847
2026-05-23 16:07:37.585,1435997041,130585,1,1.04443,0.0603,0.0459,-4.405,4.046,-4.084
2026-05-23 16:07:37.585,1435997041,130585,2,0.95532,0.04248,0.30981,4.542,1.649,-3.305
2026-05-23 16:07:37.785,1435997241,130785,1,1.06299,0.08691,0.06519,6.046,11.916,3.046
2026-05-23 16:07:37.785,1435997241,130785,2,0.97412,0.07422,0.27441,6.832,4.206,-0.183
2026-05-23 16:07:37.985,1435997441,130985,1,1.09253,0.12061,0.0813,-0.046,27.435,-4.427
2026-05-23 16:07:37.985,1435997441,130985,2,0.94727,0.07129,0.25317,-3.053,0.389,4.282
2026-05-23 16:07:37.185,1435996641,131185,1,1.06396,0.08789,0.03662,-2.977,7.038,-1.115
2026-05-23 16:07:37.185,1435996641,131185,2,0.95459,0.05811,0.27832,-7.458,0.977,5.206
2026-05-23 16:07:38.385,1435997841,131385,1,1.01611,0.11035,0.04688,8.595,6.206,4.939
2026-05-23 16:07:38.385,1435997841,131385,2,0.95288,0.0647,0.28027,0.985,3.725,5.679
2026-05-23 16:07:38.585,1435998041,131585,1,1.02832,0.10303,0.07178,6.115,11.496,0.557
2026-05-23 16:07:38.585,1435998041,131585,2,0.95532,0.05371,0.27905,-2.481,1.519,4.496
2026-05-23 16:07:38.785,1435998241,131785,1,0.95605,0.25635,0.03638,20.237,24.855,2.969
2026-05-23 16:07:38.785,1435998241,131785,2,0.86792,0.04248,0.25854,43.061,23.344,5.649
2026-05-23 16:07:38.985,1435998441,131985,1,0.97754,0.16528,0.18481,-11.389,-2.053,-6.282
2026-05-23 16:07:38.985,1435998441,131985,2,0.92993,0.0918,0.28833,-17.267,-2.023,1.649
2026-05-23 16:07:38.185,1435997641,132185,1,1.02661,0.08691,0.13184,-12.076,-1.107,-3.473
2026-05-23 16:07:38.185,1435997641,132185,2,0.96509,0.03906,0.3147,-4.626,-3.84,4.382
2026-05-23 16:07:39.385,1435998841,132385,1,1.01294,0.11646,0.1167,1.733,-2.992,-0.191
2026-05-23 16:07:39.385,1435998841,132385,2,0.9624,0.04907,0.29297,2.443,1.244,-0.809
2026-05-23 16:07:39.585,1435999041,132585,1,1.0188,0.1416,0.11597,-0.206,0.282,0.466
2026-05-23 16:07:39.585,1435999041,132585,2,0.94629,0.05615,0.32104,0.763,-1.351,2.901
2026-05-23 16:07:39.785,1435999241,132785,1,1.20581,0.1499,0.13599,17.573,20.496,3.092
2026-05-23 16:07:39.785,1435999241,132785,2,0.99585,0.03467,0.31055,3.473,9.496,3.26
2026-05-23 16:07:39.985,1435999441,132985,1,1.03735,0.12622,0.14331,1.328,18.71,2.267
2026-05-23 16:07:39.985,1435999441,132985,2,0.97925,0.04028,0.3562,-0.359,18.908,-2.863
2026-05-23 16:07:39.185,1435998641,133185,1,1.09546,0.10254,0.13477,-11.855,67.656,-1.481
2026-05-23 16:07:39.185,1435998641,133185,2,1.03345,0.01392,0.53711,28.29,64.702,2.313
2026-05-23 16:07:40.385,1435999841,133385,1,0.46851,0.13013,0.03638,-14.595,159.084,-12.855
2026-05-23 16:07:40.385,1435999841,133385,2,0.81641,0.13379,0.2085,-29.267,203.13,-29.023
2026-05-23 16:07:40.585,1436000041,133585,1,0.02393,0.08936,0.80396,-21.802,167.603,-4.603
2026-05-23 16:07:40.585,1436000041,133585,2,0.37305,0.16577,1.23926,-22.893,159.13,-12.382
2026-05-23 16:07:40.785,1436000241,133785,1,-0.41577,-0.08447,1.06763,-23.496,54.611,0.542
2026-05-23 16:07:40.785,1436000241,133785,2,-0.00317,-0.01489,1.55591,-8.389,60.16,2.595
2026-05-23 16:07:40.985,1436000441,133985,1,-0.41748,-0.09644,1.01318,5.878,-17.031,-3.366
2026-05-23 16:07:40.985,1436000441,133985,2,-0.00195,0.03589,1.46362,1.626,-12.504,-1.863
2026-05-23 16:07:40.185,1435999641,134185,1,-0.18628,0.05981,0.95459,-5.198,-31.275,3.656
2026-05-23 16:07:40.185,1435999641,134185,2,0.12939,0.15479,1.43481,-8.412,-43.55,12.389
2026-05-23 16:07:41.385,1436000841,134385,1,-0.15259,0.02368,0.94604,8.023,-56.534,2.42
2026-05-23 16:07:41.385,1436000841,134385,2,0.28076,0.1687,1.36987,3.29,-78.725,7.954
2026-05-23 16:07:41.585,1436001041,134585,1,0.13013,0.04248,0.91113,10.206,-103.13,0.328
2026-05-23 16:07:41.585,1436001041,134585,2,0.5564,0.12036,1.15698,21.702,-91.84,14.405
2026-05-23 16:07:41.785,1436001241,134785,1,0.4458,0.10254,0.56641,13.55,-111.893,5.481
2026-05-23 16:07:41.785,1436001241,134785,2,0.85522,0.23657,0.92529,-16.885,-55.489,28.939
2026-05-23 16:07:41.985,1436001441,134985,1,0.86475,0.20483,0.21924,-0.824,-76.702,-4.0
2026-05-23 16:07:41.985,1436001441,134985,2,0.95996,0.06958,0.53442,-66.595,-93.527,-1.397
2026-05-23 16:07:41.185,1436000641,135185,1,0.9729,0.19092,0.16553,-30.847,-11.275,-4.489
2026-05-23 16:07:41.185,1436000641,135185,2,0.85254,0.1001,0.43823,-8.153,-41.748,5.344
2026-05-23 16:07:42.385,1436001841,135385,1,1.08008,0.04102,0.12451,-19.534,-18.336,-10.321
2026-05-23 16:07:42.385,1436001841,135385,2,0.98413,0.05493,0.43921,-7.137,-9.015,-1.695
2026-05-23 16:07:42.585,1436002041,135585,1,1.07373,0.20337,0.14722,9.237,24.427,4.397
2026-05-23 16:07:42.585,1436002041,135585,2,1.06738,0.10449,0.46167,-5.855,19.534,3.786
2026-05-23 16:07:42.785,1436002241,135785,1,0.61255,-0.00317,0.10864,9.618,66.031,17.038
2026-05-23 16:07:42.785,1436002241,135785,2,0.75562,-0.01416,0.36719,25.412,51.58,9.527
2026-05-23 16:07:42.985,1436002441,135985,1,0.82129,0.08789,0.30835,-11.344,42.557,10.679
2026-05-23 16:07:42.985,1436002441,135985,2,0.82178,0.04736,0.4646,-27.092,55.435,-16.695
2026-05-23 16:07:42.185,1436001641,136185,1,0.90039,0.12769,0.57275,20.626,-6.198,8.885
2026-05-23 16:07:42.185,1436001641,136185,2,0.89526,-0.00122,0.73022,69.771,38.992,15.45
2026-05-23 16:07:43.385,1436002841,136385,1,1.08862,0.18652,0.51758,5.366,3.412,-12.687
2026-05-23 16:07:43.385,1436002841,136385,2,1.25366,0.19336,0.80127,-17.618,-23.687,-2.763
2026-05-23 16:07:43.585,1436003041,136585,1,0.79565,0.13379,0.59717,9.954,24.092,4.603
2026-05-23 16:07:43.585,1436003041,136585,2,0.8064,0.26538,0.71387,38.954,26.435,-11.87
2026-05-23 16:07:43.785,1436003241,136785,1,0.83813,0.26172,0.46094,-6.229,-2.359,2.069
2026-05-23 16:07:43.785,1436003241,136785,2,1.03027,0.229,0.77319,-5.305,-3.786,11.26
2026-05-23 16:07:43.985,1436003441,136985,1,0.76611,0.0979,0.51001,-14.023,9.786,-4.756
2026-05-23 16:07:43.985,1436003441,136985,2,0.80957,0.15479,0.71582,-4.214,24.282,-2.901
2026-05-23 16:07:43.185,1436002641,137185,1,0.68433,0.1167,0.55371,-2.969,2.137,-3.618
2026-05-23 16:07:43.185,1436002641,137185,2,0.79492,0.15137,0.86499,-3.748,8.847,4.031
2026-05-23 16:07:44.385,1436003841,137385,1,0.76807,0.18213,0.59961,-4.115,10.366,-2.099
2026-05-23 16:07:44.385,1436003841,137385,2,0.91699,0.15088,0.81177,2.221,-9.824,13.855
2026-05-23 16:07:44.585,1436004041,137585,1,0.75171,0.10742,0.60547,-6.366,-4.221,4.321
2026-05-23 16:07:44.585,1436004041,137585,2,0.94849,0.11719,0.7312,4.275,-7.779,5.366
2026-05-23 16:07:44.785,1436004241,137785,1,0.79346,0.05566,0.50049,-8.313,-9.763,0.565
2026-05-23 16:07:44.785,1436004241,137785,2,0.90894,0.07983,0.7522,-15.588,-9.191,-5.168
2026-05-23 16:07:44.985,1436004441,137985,1,0.78516,0.05151,0.49023,-6.267,-13.908,-1.672
2026-05-23 16:07:44.985,1436004441,137985,2,0.93604,0.12378,0.69946,-6.046,-7.221,-1.153
2026-05-23 16:07:44.185,1436003641,138185,1,0.8186,0.02417,0.46167,-1.29,-16.145,-4.29
2026-05-23 16:07:44.185,1436003641,138185,2,0.9668,0.06934,0.70923,10.122,-7.687,1.618
2026-05-23 16:07:45.385,1436004841,138385,1,0.84839,0.11816,0.4707,-0.672,0.046,-9.168
2026-05-23 16:07:45.385,1436004841,138385,2,0.97119,0.13257,0.67285,-3.863,-7.595,-2.916
2026-05-23 16:07:45.585,1436005041,138585,1,0.83838,0.15649,0.47021,1.221,2.924,-6.153
2026-05-23 16:07:45.585,1436005041,138585,2,0.9436,0.14038,0.67749,4.718,-0.351,1.947
2026-05-23 16:07:45.785,1436005241,138785,1,0.82935,0.12378,0.46216,2.969,-2.885,-2.87
2026-05-23 16:07:45.785,1436005241,138785,2,0.95166,0.1582,0.59863,-3.481,-8.076,-4.504
2026-05-23 16:07:45.985,1436005441,138985,1,0.82715,0.24976,0.45044,1.542,4.008,-2.481
2026-05-23 16:07:45.985,1436005441,138985,2,0.92627,0.16675,0.62915,2.229,5.275,5.206
2026-05-23 16:07:45.185,1436004641,139185,1,0.8457,0.19995,0.47192,-3.267,0.489,0.802
2026-05-23 16:07:45.185,1436004641,139185,2,0.92285,0.14136,0.62817,-5.908,1.832,1.756
2026-05-23 16:07:46.385,1436005841,139385,1,0.81885,0.16724,0.49072,0.198,7.534,-1.267
2026-05-23 16:07:46.385,1436005841,139385,2,0.95117,0.1499,0.6521,4.939,-1.511,1.115
2026-05-23 16:07:46.585,1436006041,139585,1,0.80908,0.16089,0.49487,-15.656,0.145,-4.382
2026-05-23 16:07:46.585,1436006041,139585,2,1.00513,0.1272,0.57324,-2.427,0.626,2.122
2026-05-23 16:07:46.821,1436006277,139821,1,0.88013,0.16016,0.41089,5.71,-2.687,5.641
2026-05-23 16:07:46.821,1436006277,139821,2,0.95679,0.16724,0.58545,10.756,9.962,-2.198
2026-05-23 16:07:46.021,1436005477,140021,1,0.76611,0.19434,0.52368,5.985,11.481,-2.901
2026-05-23 16:07:46.021,1436005477,140021,2,0.93384,0.21997,0.65112,0.183,5.672,1.832
2026-05-23 16:07:47.221,1436006677,140221,1,0.80493,0.17212,0.5061,-5.351,-1.305,-0.023
2026-05-23 16:07:47.221,1436006677,140221,2,0.91138,0.15894,0.63306,-5.954,-0.504,3.893
2026-05-23 16:07:47.421,1436006877,140421,1,0.81787,0.17358,0.48608,0.214,-3.634,0.344
2026-05-23 16:07:47.421,1436006877,140421,2,0.97827,0.13086,0.57007,6.672,-0.473,-0.481
2026-05-23 16:07:47.621,1436007077,140621,1,0.79468,0.20044,0.46729,2.573,0.466,3.0
2026-05-23 16:07:47.621,1436007077,140621,2,0.94849,0.20996,0.60059,4.679,0.176,0.718
2026-05-23 16:07:47.821,1436007277,140821,1,0.80713,0.19336,0.47461,-2.092,0.756,-2.328
2026-05-23 16:07:47.821,1436007277,140821,2,0.95532,0.16333,0.58447,-1.115,2.511,1.519
2026-05-23 16:07:47.021,1436006477,141021,1,0.80371,0.19067,0.48218,-1.053,0.122,-1.359
2026-05-23 16:07:47.021,1436006477,141021,2,0.94019,0.16211,0.59888,-2.595,1.618,0.756
2026-05-23 16:07:48.221,1436007677,141221,1,0.80615,0.18872,0.48047,-1.802,-0.214,-0.733
2026-05-23 16:07:48.221,1436007677,141221,2,0.95654,0.16357,0.62354,-1.626,2.595,0.137
2026-05-23 16:07:48.421,1436007877,141421,1,0.80371,0.18652,0.49316,-2.466,0.573,-0.809
2026-05-23 16:07:48.421,1436007877,141421,2,0.94849,0.16357,0.60449,-1.244,2.763,0.473
2026-05-23 16:07:48.621,1436008077,141621,1,0.81934,0.20288,0.47998,-3.718,-0.084,0.031
2026-05-23 16:07:48.621,1436008077,141621,2,0.95435,0.15625,0.61768,-6.206,2.229,0.42
2026-05-23 16:07:48.821,1436008277,141821,1,0.84326,0.19727,0.47168,-6.26,-1.252,4.626
2026-05-23 16:07:48.821,1436008277,141821,2,0.94702,0.16113,0.60376,-8.863,10.901,2.267
2026-05-23 16:07:48.021,1436007477,142021,1,1.26123,0.20386,0.61401,12.45,18.969,9.008
2026-05-23 16:07:48.021,1436007477,142021,2,1.44312,0.20337,0.98315,12.45,67.099,-3.626
2026-05-23 16:07:49.221,1436008677,142221,1,0.71875,0.19336,0.50439,9.145,55.015,27.527
2026-05-23 16:07:49.221,1436008677,142221,2,0.6687,0.29688,0.89917,-13.053,57.015,-8.595
2026-05-23 16:07:49.421,1436008877,142421,1,0.58496,0.12451,0.81787,-12.595,45.298,-12.145
2026-05-23 16:07:49.421,1436008877,142421,2,0.93286,0.17114,1.1687,-26.893,35.191,-4.794
2026-05-23 16:07:49.621,1436009077,142621,1,0.33765,0.08765,0.89136,-17.107,27.405,-13.939
2026-05-23 16:07:49.621,1436009077,142621,2,0.44336,0.04102,0.94165,-10.275,-3.015,7.031
2026-05-23 16:07:49.821,1436009277,142821,1,0.33691,0.14087,0.60889,17.427,-93.962,19.565
2026-05-23 16:07:49.821,1436009277,142821,2,0.74292,0.24438,0.99561,27.298,-63.557,56.015
2026-05-23 16:07:49.021,1436008477,143021,1,0.80029,0.04907,0.375,13.847,-71.649,7.145
2026-05-23 16:07:49.021,1436008477,143021,2,0.91943,-0.02759,0.6936,-38.641,-100.603,9.275
2026-05-23 16:07:50.221,1436009677,143221,1,0.99829,0.12573,0.15454,-13.809,-26.26,-8.779
2026-05-23 16:07:50.221,1436009677,143221,2,0.99268,0.0625,0.44946,-18.756,-30.878,-3.649
2026-05-23 16:07:50.421,1436009877,143421,1,1.00928,0.11279,0.1709,-0.87,-7.458,2.824
2026-05-23 16:07:50.421,1436009877,143421,2,0.95239,0.1189,0.37549,-1.198,-7.794,0.74
2026-05-23 16:07:50.621,1436010077,143621,1,1.00513,0.1062,0.10962,5.42,2.702,0.359
2026-05-23 16:07:50.621,1436010077,143621,2,0.96265,0.07861,0.35986,-0.55,5.405,1.153
2026-05-23 16:07:50.821,1436010277,143821,1,1.02466,0.09033,0.20947,-7.824,-4.229,-1.626
2026-05-23 16:07:50.821,1436010277,143821,2,0.94971,0.09741,0.36963,5.298,11.511,3.496
2026-05-23 16:07:50.021,1436009477,144021,1,1.00024,0.10034,0.16846,-10.794,1.275,-5.595
2026-05-23 16:07:50.021,1436009477,144021,2,0.98267,0.1001,0.42676,-3.267,2.641,2.527
2026-05-23 16:07:51.221,1436010677,144221,1,0.97485,0.10303,0.21216,-9.565,15.168,-2.122
2026-05-23 16:07:51.221,1436010677,144221,2,0.98242,0.09448,0.49609,1.237,21.672,5.305
2026-05-23 16:07:51.421,1436010877,144421,1,0.57886,0.01367,0.12915,-7.107,20.756,-3.87
2026-05-23 16:07:51.421,1436010877,144421,2,0.47144,-0.02515,0.55615,-9.763,59.122,-12.168
2026-05-23 16:07:51.621,1436011077,144621,1,0.61304,0.04272,0.35474,10.779,35.481,-2.527
2026-05-23 16:07:51.621,1436011077,144621,2,0.69409,0.021,0.62744,38.878,47.443,6.763
2026-05-23 16:07:51.821,1436011277,144821,1,0.81152,0.11353,0.59692,10.023,2.374,-4.107
2026-05-23 16:07:51.821,1436011277,144821,2,0.85815,0.21069,0.8335,34.969,9.023,-9.481
2026-05-23 16:07:51.021,1436010477,145021,1,0.95435,0.18774,0.61694,14.382,-16.473,5.099
2026-05-23 16:07:51.021,1436010477,145021,2,1.18652,0.28345,0.83203,0.466,-27.351,-2.733
2026-05-23 16:07:52.221,1436011677,145221,1,1.03345,0.28906,0.51172,-11.405,-8.038,-1.13
2026-05-23 16:07:52.221,1436011677,145221,2,1.15112,0.21606,0.81299,3.405,-9.321,3.183
2026-05-23 16:07:52.421,1436011877,145421,1,0.86719,0.12207,0.33691,-13.328,1.107,-0.626
2026-05-23 16:07:52.421,1436011877,145421,2,0.94824,0.20264,0.79077,-2.702,2.527,5.58
2026-05-23 16:07:52.621,1436012077,145621,1,0.84277,0.13745,0.39551,2.351,-6.939,0.427
2026-05-23 16:07:52.621,1436012077,145621,2,0.93726,0.17944,0.67896,4.13,2.237,2.466
2026-05-23 16:07:52.821,1436012277,145821,1,0.896,0.12378,0.38721,-13.481,-4.45,-0.015
2026-05-23 16:07:52.821,1436012277,145821,2,0.91895,0.20361,0.72607,-4.618,2.252,6.084
2026-05-23 16:07:52.021,1436011477,146021,1,0.88745,0.15576,0.46436,-7.702,9.328,-2.191
2026-05-23 16:07:52.021,1436011477,146021,2,0.93872,0.21021,0.68628,2.069,-1.916,2.466
2026-05-23 16:07:53.221,1436012677,146221,1,0.87891,0.13525,0.4397,-2.931,-0.252,-0.443
2026-05-23 16:07:53.221,1436012677,146221,2,0.94385,0.17529,0.66504,-3.458,-3.344,4.42
2026-05-23 16:07:53.421,1436012877,146421,1,0.84644,0.12476,0.43359,-10.214,-1.931,-0.405
2026-05-23 16:07:53.421,1436012877,146421,2,0.92896,0.19434,0.67773,-2.573,-0.191,4.328
2026-05-23 16:07:53.621,1436013077,146621,1,0.87793,0.13232,0.44263,1.267,3.221,-2.901
2026-05-23 16:07:53.621,1436013077,146621,2,0.94434,0.18994,0.6543,0.718,-0.763,0.511
2026-05-23 16:07:53.821,1436013277,146821,1,0.82251,0.12134,0.44922,2.878,3.832,-1.924
2026-05-23 16:07:53.821,1436013277,146821,2,0.93237,0.16699,0.62402,4.786,-0.267,0.573
2026-05-23 16:07:53.021,1436012477,147021,1,0.8562,0.12183,0.44629,2.466,2.29,1.221
2026-05-23 16:07:53.021,1436012477,147021,2,0.93262,0.22095,0.67261,-4.618,0.992,1.031
2026-05-23 16:07:54.221,1436013677,147221,1,0.84497,0.12573,0.48096,-8.702,-3.26,2.702
2026-05-23 16:07:54.221,1436013677,147221,2,0.93994,0.18872,0.67041,-4.779,-0.359,3.145
2026-05-23 16:07:54.421,1436013877,147421,1,0.92578,0.10278,0.40308,8.168,5.481,1.748
2026-05-23 16:07:54.421,1436013877,147421,2,0.96387,0.1875,0.62183,4.695,-0.534,-0.641
2026-05-23 16:07:54.621,1436014077,147621,1,0.89355,0.12427,0.43433,6.672,6.977,-1.412
2026-05-23 16:07:54.621,1436014077,147621,2,0.92725,0.15698,0.6416,1.244,3.977,-0.924
2026-05-23 16:07:54.821,1436014277,147821,1,0.86865,0.14771,0.41992,11.191,6.382,2.069
2026-05-23 16:07:54.821,1436014277,147821,2,0.93652,0.22729,0.64111,3.16,2.511,-2.046
2026-05-23 16:07:54.021,1436013477,148021,1,0.85913,0.1582,0.44849,-2.435,-0.099,2.237
2026-05-23 16:07:54.021,1436013477,148021,2,0.92456,0.21362,0.66626,3.221,1.191,2.374
2026-05-23 16:07:55.221,1436014677,148221,1,0.82056,0.16821,0.45605,-6.13,-1.069,-2.305
2026-05-23 16:07:55.221,1436014677,148221,2,0.92261,0.21582,0.65356,-0.252,-0.344,1.84
2026-05-23 16:07:55.421,1436014877,148421,1,0.85278,0.15137,0.43579,-0.74,0.389,1.298
2026-05-23 16:07:55.421,1436014877,148421,2,0.9314,0.21216,0.63013,-1.099,-1.168,2.855
2026-05-23 16:07:55.621,1436015077,148621,1,0.85693,0.15063,0.43579,-1.687,0.29,1.168
2026-05-23 16:07:55.621,1436015077,148621,2,0.92456,0.20142,0.6377,1.641,1.061,2.504
2026-05-23 16:07:55.821,1436015277,148821,1,0.83984,0.15869,0.44971,-1.252,0.656,0.107
2026-05-23 16:07:55.821,1436015277,148821,2,0.93774,0.19556,0.65674,1.74,3.328,2.305
2026-05-23 16:07:55.021,1436014477,149021,1,0.82983,0.14673,0.44775,-1.595,-1.069,-0.038
2026-05-23 16:07:55.021,1436014477,149021,2,0.93457,0.20068,0.63477,0.244,1.176,1.061
