datetime,epoch_ms,ts_millis,mpu_id,ax,ay,az,gx,gy,gz
2026-05-20 12:57:08.387,1165367843,9387,1,,,,,,
2026-05-20 12:57:08.387,1165367843,9387,2,-0.30933,-0.78955,-0.59741,-1.229,0.557,0.412
2026-05-20 12:57:09.587,1165369043,9587,1,,,,,,
2026-05-20 12:57:09.587,1165369043,9587,2,-0.30444,-0.78174,-0.5979,-1.443,0.527,0.634
2026-05-20 12:57:09.835,1165369291,9835,1,,,,,,
2026-05-20 12:57:09.835,1165369291,9835,2,-0.30762,-0.78979,-0.60352,-1.252,0.656,0.328
2026-05-20 12:57:09.117,1165368573,10117,1,,,,,,
2026-05-20 12:57:09.117,1165368573,10117,2,-0.30249,-0.78345,-0.59888,-1.382,0.45,0.534
2026-05-20 12:57:09.390,1165368846,10390,1,,,,,,
2026-05-20 12:57:09.390,1165368846,10390,2,-0.30493,-0.78931,-0.59644,-1.344,0.45,0.45
2026-05-20 12:57:10.703,1165370159,10703,1,,,,,,
2026-05-20 12:57:10.703,1165370159,10703,2,-0.30762,-0.78271,-0.59961,-1.366,0.504,0.45
2026-05-20 12:57:10.075,1165369531,11075,1,,,,,,
2026-05-20 12:57:10.075,1165369531,11075,2,-0.14844,-0.89551,-0.50781,2.916,19.969,1.756
2026-05-20 12:57:10.467,1165369923,11467,1,,,,,,
2026-05-20 12:57:10.467,1165369923,11467,2,-0.33862,-0.82422,-0.63037,6.588,15.26,-1.992
2026-05-20 12:57:11.684,1165371140,11684,1,,,,,,
2026-05-20 12:57:11.684,1165371140,11684,2,0.12427,-0.45508,-0.2373,-5.504,-38.351,-59.053
2026-05-20 12:57:11.935,1165371391,11935,1,,,,,,
2026-05-20 12:57:11.935,1165371391,11935,2,-0.41016,-0.78442,-0.60229,-7.084,-3.656,2.931
2026-05-20 12:57:11.135,1165370591,12135,1,,,,,,
2026-05-20 12:57:11.135,1165370591,12135,2,-0.375,-0.7644,-0.6001,6.595,4.397,6.672
2026-05-20 12:57:11.335,1165370791,12335,1,,,,,,
2026-05-20 12:57:11.335,1165370791,12335,2,-0.43042,-0.69556,-0.57129,-8.374,-13.55,23.924
2026-05-20 12:57:11.535,1165370991,12535,1,,,,,,
2026-05-20 12:57:11.535,1165370991,12535,2,-0.63843,-1.81519,-0.96875,88.71,-5.809,78.641
2026-05-20 12:57:12.735,1165372191,12735,1,,,,,,
2026-05-20 12:57:12.735,1165372191,12735,2,-0.42188,-0.73193,-0.5769,-1.328,0.58,0.305
2026-05-20 12:57:14.401,1165373857,15401,1,,,,,,
2026-05-20 12:57:14.401,1165373857,15401,2,-0.53296,-0.73438,-0.61328,16.405,50.015,-86.244
2026-05-20 12:57:15.698,1165375154,15698,1,,,,,,
2026-05-20 12:57:15.698,1165375154,15698,2,-0.39746,-0.75952,-0.5481,4.305,6.198,-12.824
2026-05-20 12:57:15.898,1165375354,15898,1,,,,,,
2026-05-20 12:57:15.898,1165375354,15898,2,-0.36792,-0.77954,-0.64673,-0.145,-12.061,11.305
2026-05-20 12:57:15.098,1165374554,16098,1,,,,,,
2026-05-20 12:57:15.098,1165374554,16098,2,-0.42529,-0.74438,-0.58081,-1.985,2.977,-0.252
2026-05-20 12:57:15.335,1165374791,16335,1,,,,,,
2026-05-20 12:57:15.335,1165374791,16335,2,-0.49561,-0.73633,-0.66431,-4.366,-9.069,5.908
2026-05-20 12:57:15.535,1165374991,16535,1,,,,,,
2026-05-20 12:57:15.535,1165374991,16535,2,-0.39355,-0.76001,-0.5249,14.244,6.55,-33.443
2026-05-20 12:57:16.735,1165376191,16735,1,,,,,,
2026-05-20 12:57:16.735,1165376191,16735,2,-0.41064,-0.78174,-0.59814,-0.985,-4.244,17.42
2026-05-20 12:57:16.935,1165376391,16935,1,,,,,,
2026-05-20 12:57:16.935,1165376391,16935,2,-0.40356,-0.75195,-0.58398,0.931,-0.656,-1.664
2026-05-20 12:57:16.135,1165375591,17135,1,,,,,,
2026-05-20 12:57:16.135,1165375591,17135,2,-0.3855,-0.75708,-0.56787,-2.168,1.397,0.962
2026-05-20 12:57:16.335,1165375791,17335,1,,,,,,
2026-05-20 12:57:16.335,1165375791,17335,2,-0.39185,-0.77075,-0.63208,-2.695,-4.023,0.542
2026-05-20 12:57:16.535,1165375991,17535,1,,,,,,
2026-05-20 12:57:16.535,1165375991,17535,2,-0.49951,-0.71851,-0.58032,-6.427,-10.733,-4.382
2026-05-20 12:57:17.837,1165377293,17837,1,,,,,,
2026-05-20 12:57:17.837,1165377293,17837,2,-0.32642,-0.73999,-0.57227,-14.191,1.847,33.824
2026-05-20 12:57:17.037,1165376493,18037,1,,,,,,
2026-05-20 12:57:17.037,1165376493,18037,2,-0.37842,-0.75708,-0.56421,-0.206,0.168,2.779
2026-05-20 12:57:17.237,1165376693,18237,1,,,,,,
2026-05-20 12:57:17.237,1165376693,18237,2,-0.70239,-0.96997,-0.64795,-91.687,100.71,121.809
2026-05-20 12:57:17.437,1165376893,18437,1,,,,,,
2026-05-20 12:57:17.437,1165376893,18437,2,-0.35571,0.04395,-1.00781,-31.45,-42.153,40.786
2026-05-20 12:57:20.122,1165379578,21122,1,,,,,,
2026-05-20 12:57:20.122,1165379578,21122,2,-0.43945,0.2002,-0.94702,-14.511,-62.26,35.26
2026-05-20 12:57:20.322,1165379778,21322,1,,,,,,
2026-05-20 12:57:20.322,1165379778,21322,2,0.84253,0.03149,0.52319,-64.229,15.679,-8.008
2026-05-20 12:57:23.327,1165382783,24327,1,,,,,,
2026-05-20 12:57:39.271,1165398727,7271,1,-0.12085,0.58325,-0.70288,1.779,1.466,-0.611
2026-05-20 12:57:39.271,1165398727,7271,2,0.74902,-0.3855,0.51416,-1.168,0.336,0.542
2026-05-20 12:57:39.471,1165398927,7471,1,-0.11914,0.58032,-0.71484,2.489,1.687,-0.664
2026-05-20 12:57:39.471,1165398927,7471,2,0.75635,-0.38062,0.5144,-1.107,0.55,0.519
2026-05-20 12:57:39.705,1165399161,7705,1,-0.1145,0.5708,-0.70996,1.809,1.206,-0.664
2026-05-20 12:57:39.705,1165399161,7705,2,0.75317,-0.38696,0.50391,-1.16,0.641,0.496
2026-05-20 12:57:40.905,1165400361,7905,1,-0.12012,0.56885,-0.72681,1.763,1.389,-0.664
2026-05-20 12:57:40.905,1165400361,7905,2,0.75732,-0.38916,0.5144,-0.511,0.794,0.252
2026-05-20 12:57:40.105,1165399561,8105,1,-0.11694,0.55981,-0.72827,1.863,1.244,-1.191
2026-05-20 12:57:40.105,1165399561,8105,2,0.77197,-0.38525,0.54736,-1.565,0.252,0.305
2026-05-20 12:57:45.500,1165404956,13499,1,-0.125,0.51294,-0.74585,-1.885,1.756,0.076
2026-05-20 12:57:45.500,1165404956,13499,2,0.75098,-0.39111,0.52612,-0.328,-6.794,-3.947
2026-05-20 12:57:45.699,1165405155,13699,1,-0.10791,0.51367,-0.75049,0.382,0.603,2.038
2026-05-20 12:57:45.699,1165405155,13699,2,0.77979,-0.40405,0.50049,-0.344,2.824,5.656
2026-05-20 12:57:46.899,1165406355,13899,1,-0.12646,0.50977,-0.74976,-0.366,0.779,0.695
2026-05-20 12:57:46.899,1165406355,13899,2,0.76538,-0.35938,0.50977,-0.282,-5.718,-3.137
2026-05-20 12:57:46.099,1165405555,14099,1,-0.11963,0.51489,-0.75635,1.557,1.076,-0.214
2026-05-20 12:57:46.099,1165405555,14099,2,0.75049,-0.39233,0.5293,-1.046,4.198,0.618
2026-05-20 12:57:46.301,1165405757,14301,1,-0.12451,0.5105,-0.75195,0.916,1.405,0.031
2026-05-20 12:57:46.301,1165405757,14301,2,0.74805,-0.37012,0.52344,-2.756,-0.481,1.076
2026-05-20 12:57:46.501,1165405957,14501,1,-0.12744,0.51831,-0.75903,-3.115,1.954,0.496
2026-05-20 12:57:46.501,1165405957,14501,2,0.75024,-0.36572,0.51758,-1.16,1.496,3.115
2026-05-20 12:57:46.701,1165406157,14701,1,-0.12329,0.50854,-0.76318,1.573,0.794,-0.748
2026-05-20 12:57:46.701,1165406157,14701,2,0.75708,-0.35571,0.52686,-0.695,-0.183,-1.656
2026-05-20 12:57:47.178,1165406634,15178,1,-0.12012,0.5105,-0.75366,0.389,1.229,-0.611
2026-05-20 12:57:47.178,1165406634,15178,2,0.73511,-0.35425,0.54834,-0.954,-8.183,0.099
2026-05-20 12:57:47.378,1165406834,15378,1,-0.13232,0.50708,-0.76123,-0.985,1.122,-0.092
2026-05-20 12:57:47.378,1165406834,15378,2,0.76465,-0.35474,0.521,-1.725,2.076,2.763
2026-05-20 12:57:47.623,1165407079,15623,1,-0.12183,0.50928,-0.74634,-0.908,1.481,-0.137
2026-05-20 12:57:47.623,1165407079,15623,2,0.76147,-0.354,0.52588,-0.962,1.458,0.908
2026-05-20 12:57:48.823,1165408279,15823,1,-0.11816,0.51294,-0.7666,0.122,1.145,-0.412
2026-05-20 12:57:48.823,1165408279,15823,2,0.75635,-0.35767,0.5249,-1.298,0.359,0.313
2026-05-20 12:57:48.023,1165407479,16023,1,-0.12305,0.51514,-0.74878,-0.229,1.328,-0.466
2026-05-20 12:57:48.023,1165407479,16023,2,0.75269,-0.35718,0.53247,-1.221,1.382,1.038
2026-05-20 12:57:48.223,1165407679,16223,1,-0.12207,0.51074,-0.74829,5.427,0.344,-2.756
2026-05-20 12:57:48.223,1165407679,16223,2,0.7605,-0.35278,0.53247,-2.275,1.466,3.824
2026-05-20 12:57:48.423,1165407879,16423,1,-0.12378,0.51367,-0.75464,1.168,1.031,-0.924
2026-05-20 12:57:48.423,1165407879,16423,2,0.7522,-0.38184,0.51758,-1.168,0.092,-0.321
2026-05-20 12:57:51.205,1165410661,19205,1,-0.12231,0.51318,-0.75708,-0.634,1.328,-0.427
2026-05-20 12:57:51.205,1165410661,19205,2,0.75635,-0.38208,0.50781,-1.26,0.924,0.954
2026-05-20 12:57:51.458,1165410914,19458,1,-0.12134,0.51611,-0.76099,-0.313,1.374,-0.359
2026-05-20 12:57:51.458,1165410914,19458,2,0.7522,-0.37402,0.52368,-1.366,0.916,0.649
2026-05-20 12:57:54.318,1165413774,22318,1,-0.12671,0.51196,-0.75635,-1.344,1.74,-0.29
2026-05-20 12:57:54.318,1165413774,22318,2,0.75146,-0.36621,0.52051,-1.038,,-0.145
2026-05-20 12:57:54.518,1165413974,22518,1,-0.12671,0.50342,-0.76172,0.153,1.168,-0.618
2026-05-20 12:57:54.518,1165413974,22518,2,0.76489,-0.36816,0.53174,-0.908,-1.397,-1.412
2026-05-20 12:57:54.718,1165414174,22718,1,-0.13062,0.49316,-0.76196,1.763,0.985,-0.649
2026-05-20 12:57:54.718,1165414174,22718,2,0.76587,-0.36987,0.52832,-1.389,0.344,0.336
2026-05-20 12:57:40.105,1165399561,8105,2,0.77197,-0.38525,0.54736,-1.565,0.252,0.305
2026-05-20 12:57:57.785,1165417241,25785,1,-0.12817,0.46826,-0.76782,-53.763,20.702,18.504
2026-05-20 12:57:57.785,1165417241,25785,2,0.64722,-0.08423,0.73877,-3.863,-14.107,10.611
2026-05-20 12:58:01.856,1165421312,28856,1,-0.125,0.52222,-0.74243,2.046,0.824,-0.832
2026-05-20 12:58:01.856,1165421312,28856,2,0.71509,-0.21655,0.63452,-1.786,-0.214,1.176
2026-05-20 12:58:01.056,1165420512,29056,1,-0.12524,0.51587,-0.74658,1.298,1.153,-0.924
2026-05-20 12:58:01.056,1165420512,29056,2,0.71436,-0.21997,0.63525,-2.137,-0.443,0.557
2026-05-20 12:58:01.256,1165420712,29256,1,-0.12402,0.51709,-0.72461,-4.397,3.893,
2026-05-20 12:58:01.256,1165420712,29256,2,0.71509,-0.22925,0.64429,-1.901,0.534,-0.282
2026-05-20 12:58:01.485,1165420941,29485,1,-0.12451,0.53491,-0.7312,-2.634,-0.229,1.992
2026-05-20 12:58:01.485,1165420941,29485,2,0.72485,-0.21338,0.64966,-4.168,9.42,10.176
2026-05-20 12:58:01.685,1165421141,29685,1,-0.13208,0.52002,-0.75293,5.313,0.252,-2.389
2026-05-20 12:58:01.685,1165421141,29685,2,0.71753,-0.21484,0.62256,0.015,1.718,-0.252
2026-05-20 12:58:02.885,1165422341,29885,1,-0.13037,0.52588,-0.75903,-0.237,1.214,-0.359
2026-05-20 12:58:02.885,1165422341,29885,2,0.71753,-0.21851,0.62939,-1.489,0.198,0.802
2026-05-20 12:58:02.085,1165421541,30085,1,-0.13354,0.52124,-0.75366,0.336,0.824,-0.55
2026-05-20 12:58:02.085,1165421541,30085,2,0.71826,-0.21753,0.63574,-1.924,0.122,0.931
2026-05-20 12:58:02.285,1165421741,30285,1,-0.12598,0.51782,-0.73169,0.412,1.412,-0.656
2026-05-20 12:58:02.285,1165421741,30285,2,0.72266,-0.22046,0.62622,-1.305,-0.023,0.389
2026-05-20 12:58:05.258,1165424714,33258,1,-0.13281,0.5166,-0.75342,-0.351,1.13,-0.366
2026-05-20 12:58:05.258,1165424714,33258,2,0.71997,-0.21826,0.63159,-1.122,0.527,0.366
2026-05-20 12:58:05.458,1165424914,33458,1,-0.12524,0.51758,-0.74756,-3.427,1.992,-0.366
2026-05-20 12:58:05.458,1165424914,33458,2,0.72681,-0.22339,0.63721,-1.252,-0.397,0.389
2026-05-20 12:58:05.658,1165425114,33658,1,-0.12354,0.51807,-0.75317,0.076,1.267,-0.573
2026-05-20 12:58:05.658,1165425114,33658,2,0.72144,-0.22339,0.62598,-1.26,0.725,0.618
2026-05-20 12:58:08.609,1165428065,36609,1,-0.13306,0.51025,-0.75464,0.282,0.992,-0.275
2026-05-20 13:18:42.455,1166661911,5455,1,0.96558,-0.15332,0.48706,-0.443,2.458,-0.015
2026-05-20 13:18:42.455,1166661911,5455,2,0.94604,-0.32544,0.18774,0.847,-2.115,0.183
2026-05-20 13:18:42.655,1166662111,5655,1,0.96045,-0.16089,0.51636,-0.832,2.275,0.031
2026-05-20 13:18:42.655,1166662111,5655,2,0.94873,-0.28442,0.23218,-4.565,-0.58,-0.802
2026-05-20 13:18:43.855,1166663311,5855,1,0.95435,-0.16479,0.49976,-1.344,0.847,-0.969
2026-05-20 13:18:43.855,1166663311,5855,2,0.96021,-0.29248,0.19189,4.84,0.534,0.733
2026-05-20 13:18:43.055,1166662511,6055,1,0.96606,-0.14282,0.50073,3.412,1.954,-2.313
2026-05-20 13:18:43.055,1166662511,6055,2,0.95801,-0.30005,0.22046,-0.771,-1.496,-0.397
2026-05-20 13:18:43.255,1166662711,6255,1,0.96509,-0.14038,0.50342,0.824,1.679,-1.527
2026-05-20 13:18:43.255,1166662711,6255,2,0.94897,-0.30811,0.19653,1.985,-0.58,0.733
2026-05-20 13:18:43.478,1166662934,6477,1,0.96411,-0.14575,0.50366,1.725,1.679,0.229
2026-05-20 13:18:43.478,1166662934,6477,2,0.95093,-0.30176,0.19995,1.504,-1.168,0.954
2026-05-20 13:18:43.677,1166663133,6677,1,0.95605,-0.14502,0.50439,0.985,0.916,1.153
2026-05-20 13:18:43.677,1166663133,6677,2,0.94873,-0.29956,0.19849,3.794,0.519,2.099
2026-05-20 13:18:44.877,1166664333,6877,1,0.9624,-0.14624,0.50464,2.008,-0.183,1.153
2026-05-20 13:18:44.877,1166664333,6877,2,0.9519,-0.3042,0.198,1.351,1.29,1.221
2026-05-20 13:18:44.177,1166663633,7177,1,0.95996,-0.14478,0.49121,-1.389,1.084,-1.382
2026-05-20 13:18:44.177,1166663633,7177,2,0.95068,-0.30225,0.1814,-4.87,3.496,0.534
2026-05-20 13:18:44.377,1166663833,7377,1,0.96118,-0.14648,0.50684,-0.595,2.618,-1.359
2026-05-20 13:18:44.377,1166663833,7377,2,0.96484,-0.28735,0.21362,-5.473,-1.229,-1.092
2026-05-20 13:18:44.577,1166664033,7577,1,0.95752,-0.14111,0.50928,-1.389,2.137,-0.794
2026-05-20 13:18:44.577,1166664033,7577,2,0.94873,-0.29565,0.21777,-5.443,2.015,-0.107
2026-05-20 13:18:44.777,1166664233,7777,1,0.95044,-0.14063,0.51221,-1.702,3.008,-1.008
2026-05-20 13:18:44.777,1166664233,7777,2,0.9624,-0.23706,0.24243,-3.0,1.824,-2.771
2026-05-20 13:18:45.977,1166665433,7977,1,0.95361,-0.15381,0.52979,1.863,0.977,-0.557
2026-05-20 13:18:45.977,1166665433,7977,2,0.95313,-0.2998,0.2124,-6.611,2.122,1.588
2026-05-20 13:18:45.177,1166664633,8177,1,0.9624,-0.13647,0.52368,0.511,0.824,-0.298
2026-05-20 13:18:45.177,1166664633,8177,2,0.95044,-0.29761,0.18652,-12.519,4.069,-1.588
2026-05-20 13:18:45.377,1166664833,8377,1,0.95801,-0.12939,0.51563,0.702,0.954,-0.924
2026-05-20 13:18:45.377,1166664833,8377,2,0.94702,-0.32007,0.19922,-3.389,-1.679,-0.824
2026-05-20 13:18:45.577,1166665033,8577,1,0.96216,-0.13306,0.51733,-0.511,-2.656,1.672
2026-05-20 13:18:45.577,1166665033,8577,2,0.96362,-0.29834,0.21265,-2.344,-0.389,-0.267
2026-05-20 13:18:48.257,1166667713,11257,1,0.96655,-0.13306,0.51318,1.206,3.229,-1.122
2026-05-20 13:18:48.257,1166667713,11257,2,0.94678,-0.30347,0.19995,0.817,-0.046,0.244
2026-05-20 13:18:48.457,1166667913,11457,1,0.95117,-0.13184,0.50537,-0.008,1.176,-0.824
2026-05-20 13:18:48.457,1166667913,11457,2,0.94946,-0.34082,0.18628,-14.756,0.214,0.977
2026-05-20 13:18:56.263,1166675719,19263,1,0.97412,-0.19434,0.46533,-1.74,0.42,-0.733
2026-05-20 13:18:56.263,1166675719,19263,2,0.92896,-0.37109,0.23779,-2.565,1.481,-0.405
2026-05-20 13:18:56.463,1166675919,19463,1,0.9646,-0.18481,0.45679,0.183,1.443,-4.656
2026-05-20 13:18:56.463,1166675919,19463,2,0.89575,-0.38892,0.23193,-1.901,0.16,-0.824
2026-05-20 13:18:56.463,1166675919,19463,2,0.89575,-0.38892,0.23193,-1.901,0.16,-0.824
2026-05-20 13:19:01.565,1166681021,24565,1,0.96265,-0.10303,0.49048,-0.908,1.382,-0.328
2026-05-20 13:19:01.565,1166681021,24565,2,0.96289,-0.27441,0.09521,52.282,-9.931,11.336
2026-05-20 13:19:12.580,1166692036,35580,1,0.96338,0.04834,0.54907,-59.656,2.122,-28.481
2026-05-20 13:19:12.580,1166692036,35580,1,0.96338,0.04834,0.54907,-59.656,2.122,-28.481
2026-05-20 13:19:12.580,1166692036,35580,2,0.94897,0.13452,0.06543,0.137,18.267,-9.183
2026-05-20 13:19:12.580,1166692036,35580,2,0.94897,0.13452,0.06543,0.137,18.267,-9.183
2026-05-20 13:19:25.738,1166705194,48738,1,0.84106,-0.02246,0.68896,1.412,-1.137,3.229
2026-05-20 13:19:25.738,1166705194,48738,2,0.99268,-0.15503,0.15137,-1.702,-0.763,2.756
2026-05-20 13:19:26.938,1166706394,48938,1,0.86377,-0.01807,0.68262,1.977,-0.634,-3.985
2026-05-20 13:19:26.938,1166706394,48938,2,0.96582,-0.14819,0.16504,-1.115,-2.863,2.527
2026-05-20 13:19:26.138,1166705594,49138,1,0.86523,-0.0166,0.68726,-0.771,0.015,-3.084
2026-05-20 13:19:26.138,1166705594,49138,2,0.99194,-0.14771,0.14844,-6.58,-1.328,1.87
2026-05-20 13:19:26.338,1166705794,49338,1,0.87695,-0.00537,0.68555,-1.611,-4.122,-3.137
2026-05-20 13:19:26.338,1166705794,49338,2,1.00391,-0.16968,0.12476,0.237,-2.58,2.031
2026-05-20 13:19:26.538,1166705994,49538,1,0.90576,-0.02075,0.62354,-1.351,-3.023,-4.229
2026-05-20 13:19:26.538,1166705994,49538,2,1.0249,-0.1521,0.12891,-1.771,-0.954,-0.435
2026-05-20 13:19:26.738,1166706194,49738,1,0.89453,0.05493,0.63452,0.328,-9.244,-1.344
2026-05-20 13:19:26.738,1166706194,49738,2,1.01465,-0.18018,0.08862,-5.435,1.031,3.595
2026-05-20 13:19:27.938,1166707394,49938,1,0.90454,-0.00415,0.61377,-4.382,-4.13,-3.916
2026-05-20 13:19:27.938,1166707394,49938,2,0.99902,-0.16919,0.10205,-4.656,3.359,1.557
2026-05-20 13:19:27.228,1166706684,50228,1,0.92822,-0.04468,0.60181,-3.695,-4.183,-2.0
2026-05-20 13:19:27.228,1166706684,50228,2,1.00073,-0.17651,0.06372,3.374,-4.733,3.0
2026-05-20 13:19:27.428,1166706884,50428,1,0.93286,-0.00366,0.55273,8.763,-1.0,4.031
2026-05-20 13:19:27.428,1166706884,50428,2,1.01563,-0.15552,0.12451,-1.038,2.458,1.229
2026-05-20 13:19:27.628,1166707084,50628,1,0.91528,0.01074,0.59277,3.71,-0.092,1.718
2026-05-20 13:19:27.628,1166707084,50628,2,1.00562,-0.20801,0.11011,-0.351,2.634,4.267
2026-05-20 13:19:28.828,1166708284,50828,1,0.90503,-0.01465,0.5896,4.557,-2.061,3.947
2026-05-20 13:19:28.828,1166708284,50828,2,1.01587,-0.19824,0.12354,2.588,-1.679,0.443
2026-05-20 13:19:28.063,1166707519,51063,1,0.95532,-0.01318,0.58057,1.977,-3.466,-2.519
2026-05-20 13:19:28.063,1166707519,51063,2,1.01636,-0.22705,0.12158,-0.084,-2.267,-2.13
2026-05-20 13:19:28.263,1166707719,51263,1,0.96899,0.00073,0.53247,-1.244,-4.084,1.053
2026-05-20 13:19:28.263,1166707719,51263,2,1.00391,-0.2041,0.10474,-11.321,5.687,5.191
2026-05-20 13:19:28.463,1166707919,51463,1,0.94873,-0.01538,0.53149,11.198,-0.908,8.168
2026-05-20 13:19:28.463,1166707919,51463,2,0.90918,-0.15942,0.10889,-7.069,-1.191,-2.733
2026-05-20 13:19:29.833,1166709289,51833,1,0.96948,-0.09375,0.52051,-10.069,-15.191,4.183
2026-05-20 13:19:29.833,1166709289,51833,2,1.05957,-0.19482,0.02124,3.229,-8.908,1.099
2026-05-20 13:19:29.033,1166708489,52033,1,0.99341,-0.14136,0.50073,8.183,-1.947,-0.626
2026-05-20 13:19:29.033,1166708489,52033,2,1.01001,-0.21289,0.0874,-3.382,-7.076,3.244
2026-05-20 13:19:29.233,1166708689,52233,1,0.97925,-0.07813,0.46045,10.985,-8.115,4.847
2026-05-20 13:19:29.233,1166708689,52233,2,1.00757,-0.25293,0.06079,9.397,-1.443,3.656
2026-05-20 13:19:29.433,1166708889,52433,1,1.01172,0.01221,0.43921,11.618,1.099,0.206
2026-05-20 13:19:29.433,1166708889,52433,2,0.92847,-0.15479,0.1582,-9.863,9.573,-2.244
2026-05-20 13:19:29.633,1166709089,52633,1,0.96753,0.02368,0.47339,-9.435,2.603,-14.099
2026-05-20 13:19:29.633,1166709089,52633,2,1.03491,-0.16479,0.0896,-17.771,9.71,-3.405
2026-05-20 13:19:30.833,1166710289,52833,1,1.00488,0.04028,0.45508,-12.489,-0.489,-8.061
2026-05-20 13:19:30.833,1166710289,52833,2,0.98486,-0.17065,0.16797,-15.206,5.336,-1.618
2026-05-20 13:19:30.033,1166709489,53033,1,0.96655,0.00928,0.47534,-9.534,1.718,-3.275
2026-05-20 13:19:30.033,1166709489,53033,2,0.99463,-0.18896,0.14355,-7.687,2.74,-1.718
2026-05-20 13:19:30.293,1166709749,53293,1,0.97437,-0.00195,0.45532,-3.45,-0.061,-1.389
2026-05-20 13:19:30.293,1166709749,53293,2,0.99072,-0.1958,0.13184,-3.053,-0.382,1.496
2026-05-20 13:19:30.493,1166709949,53493,1,0.99316,0.00366,0.44556,2.458,3.153,-0.359
2026-05-20 13:19:30.493,1166709949,53493,2,0.99707,-0.20044,0.11328,2.466,-0.977,2.084
2026-05-20 13:19:30.693,1166710149,53693,1,1.00195,0.00073,0.45923,1.901,3.802,3.794
2026-05-20 13:19:30.693,1166710149,53693,2,0.99341,-0.21826,0.1106,-4.893,0.794,1.565
2026-05-20 13:19:33.423,1166712879,56423,1,1.00684,-0.00757,0.42139,5.336,-5.031,2.489
2026-05-20 13:19:33.423,1166712879,56423,2,0.99121,-0.20532,0.125,3.954,-2.275,1.504
2026-05-20 13:19:33.623,1166713079,56623,1,1.02197,-0.021,0.40527,-9.237,9.496,-4.397
2026-05-20 13:19:33.623,1166713079,56623,2,1.02026,-0.18701,0.08765,-12.053,3.26,0.076
2026-05-20 13:19:34.823,1166714279,56823,1,0.99023,-0.03149,0.49463,-32.534,14.153,-32.046
2026-05-20 13:19:34.823,1166714279,56823,2,1.01587,-0.22266,0.0918,-20.542,8.359,-2.916
2026-05-20 13:19:36.476,1166715932,59475,1,0.96362,-0.01807,0.56079,-3.748,17.145,-0.015
2026-05-20 13:19:36.476,1166715932,59475,2,0.9812,-0.19336,0.12012,1.435,-2.26,6.969
2026-05-20 13:19:36.675,1166716131,59675,1,0.95947,-0.02026,0.53491,-0.573,1.588,1.511
2026-05-20 13:19:36.675,1166716131,59675,2,0.94897,-0.20459,0.12988,2.87,0.015,4.42
2026-05-20 13:19:39.553,1166719009,62552,1,0.95679,-0.02246,0.53442,9.0,1.771,4.55
2026-05-20 13:19:39.553,1166719009,62552,2,0.98755,-0.20361,0.16406,7.473,-2.16,2.237
2026-05-20 13:19:40.873,1166720329,62872,1,0.96167,-0.01416,0.52881,7.015,0.565,3.504
2026-05-20 13:19:40.873,1166720329,62872,2,0.99707,-0.20532,0.14966,8.664,-1.779,1.374
2026-05-20 13:19:40.072,1166719528,63072,1,0.96606,0.01978,0.51685,12.397,3.672,2.794
2026-05-20 13:19:40.072,1166719528,63072,2,0.89038,-0.15991,0.24561,-3.947,-3.756,-6.137
2026-05-20 13:19:40.272,1166719728,63272,1,0.95825,-0.02124,0.50659,22.954,-1.618,16.015
2026-05-20 13:19:40.272,1166719728,63272,2,0.9187,-0.26147,0.25024,-28.534,17.763,-1.641
2026-05-20 13:19:43.302,1166722758,66302,1,0.94727,-0.10034,0.5813,-27.008,4.954,-10.939
2026-05-20 13:19:43.302,1166722758,66302,2,0.95044,-0.31958,0.24048,-20.092,7.16,-0.611
2026-05-20 13:19:43.559,1166723015,66559,1,0.93042,-0.17676,0.56812,-14.305,-1.26,5.824
2026-05-20 13:19:43.559,1166723015,66559,2,0.94434,-0.33008,0.23096,-13.313,0.847,-0.137
2026-05-20 13:19:43.759,1166723215,66759,1,0.94922,-0.23315,0.53662,11.74,-2.366,9.824
2026-05-20 13:19:43.759,1166723215,66759,2,0.92896,-0.35352,0.2832,18.55,-2.321,8.611
2026-05-20 13:19:46.356,1166725812,69356,1,1.08569,-0.19629,0.32251,19.855,-0.389,-6.099
2026-05-20 13:19:46.356,1166725812,69356,2,1.13403,-0.27856,-0.00635,-45.26,6.931,-30.031
2026-05-20 13:19:46.556,1166726012,69556,1,0.99487,0.16992,0.41699,19.893,6.298,12.443
2026-05-20 13:19:46.556,1166726012,69556,2,1.10156,-0.19189,-0.02637,-26.588,0.672,5.702
2026-05-20 13:19:46.756,1166726212,69756,1,1.02734,0.2124,0.43677,11.344,-6.115,19.504
2026-05-20 13:19:46.756,1166726212,69756,2,0.99707,-0.21802,0.06348,-54.855,6.969,-24.519
2026-05-20 13:19:47.035,1166726491,70035,1,0.85864,0.05884,0.55859,-45.13,10.863,-14.695
2026-05-20 13:19:47.035,1166726491,70035,2,0.96851,-0.19043,0.12085,-50.275,3.496,-6.649
2026-05-20 13:19:47.235,1166726691,70235,1,0.91602,-0.03198,0.55518,-71.069,-4.565,-17.672
2026-05-20 13:19:47.235,1166726691,70235,2,0.98975,-0.18604,0.12842,-56.58,5.496,-7.412
2026-05-20 13:19:47.435,1166726891,70435,1,0.90063,-0.08643,0.55835,-70.718,21.893,-34.595
2026-05-20 13:19:47.435,1166726891,70435,2,0.94507,-0.29297,0.10718,-73.649,24.015,-19.244
2026-05-20 13:19:47.435,1166726891,70435,2,0.94507,-0.29297,0.10718,-73.649,24.015,-19.244
2026-05-20 13:19:55.557,1166735013,78557,1,0.88403,-0.02979,0.59253,16.519,6.435,8.084
2026-05-20 13:19:55.557,1166735013,78557,2,1.04028,-0.06519,0.16528,-1.603,-13.26,-9.435
2026-05-20 13:19:58.998,1166738454,80998,1,0.86304,0.00464,0.64038,0.076,7.87,19.023
2026-05-20 13:19:58.998,1166738454,80998,2,1.06616,-0.03833,0.06543,4.489,-1.328,0.275
2026-05-20 13:19:58.198,1166737654,81198,1,0.89014,0.17627,0.64429,-16.382,3.809,-18.374
2026-05-20 13:19:58.198,1166737654,81198,2,1.00903,-0.10425,0.11279,-71.183,16.244,-12.527
2026-05-20 13:19:58.398,1166737854,81398,1,0.89282,-0.00562,0.6355,-59.336,-3.878,-25.0
2026-05-20 13:19:58.398,1166737854,81398,2,0.94043,-0.16846,0.04492,5.153,21.802,-6.527
2026-05-20 13:20:01.120,1166740576,84120,1,0.95215,-0.03931,0.5188,-35.176,44.099,-14.763
2026-05-20 13:20:01.120,1166740576,84120,2,1.00293,-0.06909,0.44067,-21.26,11.664,-14.695
2026-05-20 13:20:01.320,1166740776,84320,1,0.82593,0.04346,0.73315,1.55,15.435,5.626
2026-05-20 13:20:01.320,1166740776,84320,2,1.02002,-0.10547,0.16895,29.786,-2.473,13.947
2026-05-20 13:20:04.154,1166743610,87154,1,0.94189,-0.03931,0.61719,19.786,8.405,8.519
2026-05-20 13:20:04.154,1166743610,87154,2,1.00049,-0.06543,0.17969,15.672,6.458,-2.557
2026-05-20 13:20:04.354,1166743810,87354,1,0.80908,0.13086,0.67993,-1.29,-4.191,1.191
2026-05-20 13:20:04.354,1166743810,87354,2,0.95801,0.00464,0.07495,-15.435,-2.252,5.641
2026-05-20 13:20:04.554,1166744010,87554,1,1.11108,0.10059,0.50513,-47.977,-7.565,-23.664
2026-05-20 13:20:04.554,1166744010,87554,2,1.09717,-0.13599,0.16138,-63.931,22.443,-13.58
2026-05-20 13:20:04.754,1166744210,87754,1,0.8606,-0.15527,0.51929,-16.496,42.443,-1.412
2026-05-20 13:20:04.754,1166744210,87754,2,0.90308,-0.06226,0.28149,18.519,22.275,-21.107
2026-05-20 13:20:05.954,1166745410,87954,1,0.58032,0.15625,0.84814,43.618,40.802,25.069
2026-05-20 13:20:05.954,1166745410,87954,2,0.91797,-0.1272,0.24658,-23.26,-3.916,2.702
2026-05-20 13:20:05.154,1166744610,88154,1,0.68457,0.12354,0.84448,-23.718,6.885,-4.885
2026-05-20 13:20:05.154,1166744610,88154,2,0.98853,-0.18311,0.38794,-31.023,11.328,26.305
2026-05-20 13:20:08.237,1166747693,91237,1,0.90649,-0.46582,0.55786,-66.351,22.313,-21.023
2026-05-20 13:20:08.237,1166747693,91237,2,0.89063,-0.3877,0.30225,-93.985,24.252,-25.55
2026-05-20 13:20:08.437,1166747893,91437,1,0.74023,-0.51245,0.62036,-13.137,13.191,-13.611
2026-05-20 13:20:08.437,1166747893,91437,2,0.86816,-0.44922,0.34229,-18.29,8.55,-7.099
2026-05-20 13:20:08.637,1166748093,91637,1,0.81592,-0.40112,0.61035,-17.359,0.45,-11.534
2026-05-20 13:20:08.637,1166748093,91637,2,0.83057,-0.50488,0.32983,-26.008,16.443,23.809
2026-05-20 13:20:09.837,1166749293,91837,1,0.90527,-0.58838,0.45923,-7.313,-9.351,9.656
2026-05-20 13:20:09.837,1166749293,91837,1,0.90527,-0.58838,0.45923,-7.313,-9.351,9.656
2026-05-20 13:20:09.837,1166749293,91837,2,1.02417,0.00171,0.34741,4.145,-29.466,14.702
2026-05-20 13:20:19.349,1166758805,102349,1,0.65088,-0.13892,1.03003,14.557,-42.267,-16.13
2026-05-20 13:20:19.349,1166758805,102349,2,0.9939,-0.06299,0.35889,-1.534,-34.481,10.496
2026-05-20 13:20:19.549,1166759005,102549,1,0.62988,0.2251,0.61719,26.969,-47.58,6.229
2026-05-20 13:20:19.549,1166759005,102549,2,1.05786,-0.177,0.16162,-37.733,-4.252,11.679
2026-05-20 13:20:20.887,1166760343,102886,1,0.86914,-0.03369,0.60205,-26.183,-6.885,-6.557
2026-05-20 13:20:20.887,1166760343,102886,2,0.99463,-0.21362,0.13574,-17.305,5.427,6.748
2026-05-20 13:20:20.086,1166759542,103086,1,0.95288,-0.05688,0.60669,-6.656,-4.221,4.855
2026-05-20 13:20:20.086,1166759542,103086,2,1.02612,-0.14136,0.10303,6.603,0.863,5.023
2026-05-20 13:20:20.286,1166759742,103286,1,0.89771,-0.07324,0.5874,3.351,17.489,10.305
2026-05-20 13:20:20.286,1166759742,103286,2,1.04541,-0.06714,0.11353,22.237,-0.092,-2.344
2026-05-20 13:20:20.486,1166759942,103486,1,0.94531,-0.04175,0.69043,-5.038,11.634,0.214
2026-05-20 13:20:20.486,1166759942,103486,2,0.77173,-0.02026,0.53809,-20.298,-9.366,-36.328
2026-05-20 13:20:23.900,1166763356,105900,1,0.40454,0.0752,1.16797,16.649,10.015,-37.504
2026-05-20 13:20:23.900,1166763356,105900,2,0.80615,-0.19336,0.54834,-11.046,-10.626,-8.344
2026-05-20 13:20:23.100,1166762556,106100,1,0.6189,-0.16895,1.02124,51.313,-16.634,56.824
2026-05-20 13:20:23.100,1166762556,106100,2,0.99878,0.41162,0.42847,83.931,3.649,14.901
2026-05-20 13:20:23.300,1166762756,106300,1,0.14233,0.3374,0.7771,8.344,32.542,44.206
2026-05-20 13:20:23.300,1166762756,106300,2,0.43628,0.63989,0.01587,-25.275,12.893,24.359
2026-05-20 13:20:26.900,1166766356,108900,1,0.49414,-0.01587,1.17017,-9.954,-12.55,-20.153
2026-05-20 13:20:26.900,1166766356,108900,2,0.88477,0.11621,0.52124,-2.901,9.137,-11.145
2026-05-20 13:20:26.100,1166765556,109100,1,0.4646,-0.2085,0.9436,-25.679,-17.847,-5.763
2026-05-20 13:20:26.100,1166765556,109100,2,0.67065,-0.15283,0.55273,-16.969,-9.481,11.328
2026-05-20 13:20:29.982,1166769438,111982,1,0.70068,-0.28564,0.79858,3.221,-4.511,2.565
2026-05-20 13:20:29.982,1166769438,111982,2,0.88232,-0.17969,0.46167,-9.374,-2.198,-0.061
2026-05-20 13:20:29.182,1166768638,112182,1,0.88867,-0.2666,0.83276,-22.908,0.725,-8.557
2026-05-20 13:20:29.182,1166768638,112182,2,1.0603,0.00513,0.44214,22.053,32.466,-5.168
2026-05-20 13:20:29.382,1166768838,112382,1,0.70605,-0.48633,0.62183,-26.878,25.55,-12.58
2026-05-20 13:20:29.382,1166768838,112382,2,0.8833,0.18408,0.28076,2.26,4.992,-19.893
2026-05-20 13:20:35.234,1166774690,118234,1,0.64746,-0.07397,0.90771,-5.511,9.107,-7.595
2026-05-20 13:20:35.234,1166774690,118234,2,0.86694,0.03174,0.49976,-10.969,6.527,-5.435
2026-05-20 13:20:35.434,1166774890,118434,1,0.45703,-0.06616,0.98389,-15.221,18.153,-11.16
2026-05-20 13:20:35.434,1166774890,118434,2,0.79785,-0.05054,0.46875,-21.74,-14.733,21.992
2026-05-20 13:20:35.634,1166775090,118634,1,0.66846,-0.11987,0.92725,6.061,-15.153,14.985
2026-05-20 13:20:35.634,1166775090,118634,2,0.89697,-0.13013,0.52612,10.275,-30.0,7.321
2026-05-20 13:20:38.305,1166777761,121305,1,0.72021,-0.10742,0.89697,24.206,-6.344,14.878
2026-05-20 13:20:38.305,1166777761,121305,2,0.9624,-0.07715,0.46094,16.053,-20.702,1.198
2026-05-20 13:20:38.505,1166777961,121505,1,0.64014,-0.03784,0.90015,-8.221,1.267,-4.191
2026-05-20 13:20:38.505,1166777961,121505,2,0.91504,-0.01343,0.40015,0.802,-5.42,-3.282
2026-05-20 13:20:41.280,1166780736,124280,1,0.69702,-0.07983,0.90039,0.137,1.229,-4.702
2026-05-20 13:20:41.280,1166780736,124280,2,0.9187,0.02905,0.44287,-19.153,1.901,-2.695
2026-05-20 13:20:41.480,1166780936,124480,1,0.69531,-0.02295,0.85229,11.328,9.321,5.473
2026-05-20 13:20:41.480,1166780936,124480,2,0.94067,0.03271,0.46509,5.305,12.878,-3.412
2026-05-20 13:20:41.680,1166781136,124680,1,0.81689,-0.22729,0.92896,19.145,38.893,40.527
2026-05-20 13:20:41.680,1166781136,124680,2,1.11108,0.23242,0.71582,29.427,94.466,-33.328
2026-05-20 13:20:42.908,1166782364,124908,1,0.19946,-0.13721,1.00903,-5.092,105.733,-7.878
2026-05-20 13:20:42.908,1166782364,124908,2,0.44971,0.10522,0.64893,-16.756,77.145,-30.031
2026-05-20 13:20:42.108,1166781564,125108,1,0.00952,0.03467,1.00439,11.962,49.221,-6.328
2026-05-20 13:20:42.108,1166781564,125108,2,0.21606,0.12305,0.41846,3.901,28.466,-17.351
2026-05-20 13:20:42.308,1166781764,125308,1,-0.19336,0.00098,1.03784,13.924,-52.466,-3.29
2026-05-20 13:20:42.308,1166781764,125308,2,0.84326,0.08643,0.47681,-23.786,-3.412,-2.359
2026-05-20 13:20:45.499,1166784955,128499,1,0.43262,0.07251,1.04834,-4.046,10.443,-12.977
2026-05-20 13:20:45.499,1166784955,128499,2,0.86963,0.03027,0.4812,-21.328,-1.977,-0.885
2026-05-20 13:20:45.699,1166785155,128699,1,0.47388,-0.0896,1.09546,-31.534,-21.511,4.565
2026-05-20 13:20:45.699,1166785155,128699,2,0.9126,-0.09424,0.5332,-11.824,-2.198,13.191
2026-05-20 13:20:46.899,1166786355,128899,1,0.45215,-0.1853,0.93726,-48.252,-32.443,4.221
2026-05-20 13:20:46.899,1166786355,128899,2,0.8147,-0.13721,0.51025,-9.145,-9.618,22.191
2026-05-20 13:20:46.099,1166785555,129099,1,0.63354,-0.2439,0.823,-18.702,-18.885,5.985
2026-05-20 13:20:46.099,1166785555,129099,2,0.86841,-0.14233,0.45068,19.321,-0.466,-0.588
2026-05-20 13:20:46.331,1166785787,129331,1,0.61572,-0.22192,0.86182,52.053,12.901,11.038
2026-05-20 13:20:46.331,1166785787,129331,2,0.91431,-0.03198,0.44629,8.008,2.626,-10.099
2026-05-20 13:20:46.531,1166785987,129531,1,0.53979,-0.09033,1.02759,19.191,15.87,-6.473
2026-05-20 13:20:46.531,1166785987,129531,2,0.89771,-0.04346,0.43506,8.969,-0.16,-13.382
2026-05-20 13:20:49.494,1166788950,132494,1,-0.02466,0.0874,1.21704,16.023,62.244,-2.42
2026-05-20 13:20:49.494,1166788950,132494,2,0.28857,0.33228,0.92041,6.252,-3.573,4.29
2026-05-20 13:20:50.821,1166790277,132821,1,-0.15161,0.14917,1.35767,-10.603,-39.901,-0.069
2026-05-20 13:20:50.821,1166790277,132821,2,0.36597,0.27515,0.82642,-19.901,-53.16,27.13
2026-05-20 13:20:50.021,1166789477,133021,1,0.20508,0.02563,1.18994,-16.672,-108.878,7.427
2026-05-20 13:20:50.021,1166789477,133021,2,0.72778,-0.01758,0.50635,5.832,-113.87,43.763
2026-05-20 13:20:50.221,1166789677,133221,1,0.18262,-0.07642,0.47559,19.916,-78.214,-1.939
2026-05-20 13:20:50.221,1166789677,133221,2,0.69897,-0.10181,0.43384,57.527,-71.832,51.679
2026-05-20 13:20:50.421,1166789877,133421,1,0.96997,0.11255,0.45874,52.405,-19.847,24.573
2026-05-20 13:20:50.421,1166789877,133421,2,0.87793,-0.01611,0.46973,-1.664,5.863,-6.924
2026-05-20 13:20:53.050,1166792506,136049,1,0.49219,-0.16016,0.96729,-17.496,23.046,4.16
2026-05-20 13:20:53.050,1166792506,136049,2,0.88232,0.05981,0.44775,8.824,0.947,-9.038
2026-05-20 13:20:53.249,1166792705,136249,1,0.66382,0.07056,0.95068,5.389,-10.427,7.534
2026-05-20 13:20:53.249,1166792705,136249,2,0.93506,0.09839,0.39038,19.344,-9.275,7.427
2026-05-20 13:20:53.449,1166792905,136449,1,0.64575,0.03833,0.89404,9.969,-1.725,14.008
2026-05-20 13:20:53.449,1166792905,136449,2,0.93408,0.12891,0.35181,4.885,-10.427,12.137
2026-05-20 13:20:54.833,1166794289,136833,1,0.69238,0.04883,0.89404,15.344,-1.122,10.908
2026-05-20 13:20:54.833,1166794289,136833,2,0.97168,0.1582,0.30103,25.664,-3.031,5.191
2026-05-20 13:20:54.033,1166793489,137033,1,0.66455,0.10449,0.90283,3.137,5.099,3.595
2026-05-20 13:20:54.033,1166793489,137033,2,1.04248,0.03369,0.40503,-21.473,4.977,2.954
2026-05-20 13:20:54.318,1166793774,137317,1,0.70557,0.02441,0.81836,-4.885,-0.809,-3.695
2026-05-20 13:20:54.318,1166793774,137317,2,0.92358,0.02197,0.39697,-12.382,5.977,2.954
2026-05-20 13:20:54.517,1166793973,137517,1,0.66748,-0.05981,0.90259,-8.947,-7.679,3.473
2026-05-20 13:20:54.517,1166793973,137517,2,0.97656,0.00146,0.36597,-2.321,-5.87,14.824
2026-05-20 13:20:54.717,1166794173,137717,1,0.72778,-0.04688,0.84521,-45.107,-12.908,-1.687
2026-05-20 13:20:54.717,1166794173,137717,2,0.99561,0.01294,0.29004,-27.893,-0.763,15.779
2026-05-20 13:20:54.717,1166794173,137717,2,0.99561,0.01294,0.29004,-27.893,-0.763,15.779
2026-05-20 13:21:00.816,1166800272,142816,1,0.5083,0.0459,1.00293,-4.405,-1.198,-9.412
2026-05-20 13:21:00.816,1166800272,142816,2,0.89038,0.03613,0.4812,-8.153,-2.733,-1.626
2026-05-20 13:21:00.046,1166799502,143046,1,0.89917,0.01196,1.05737,9.725,45.198,0.229
2026-05-20 13:21:00.046,1166799502,143046,2,1.38794,0.10547,0.86255,11.229,68.603,-29.519
2026-05-20 13:21:03.285,1166802741,146285,1,-0.30176,0.15552,1.28271,-7.779,-28.427,-19.809
2026-05-20 13:21:03.285,1166802741,146285,2,0.34961,0.34277,0.82324,-17.924,-64.214,17.282
2026-05-20 13:21:03.485,1166802941,146485,1,-0.1377,0.18579,1.02759,-30.977,-139.374,-0.641
2026-05-20 13:21:03.485,1166802941,146485,2,0.77881,0.11523,0.44312,-14.29,-120.405,62.496
2026-05-20 13:21:06.299,1166805755,149298,1,1.00952,-0.06738,0.49438,-9.366,2.84,4.977
2026-05-20 13:21:06.299,1166805755,149298,2,0.95215,-0.15894,0.12036,3.153,-3.099,-1.954
2026-05-20 13:21:06.498,1166805954,149498,1,0.96021,-0.03784,0.54517,5.145,6.489,-0.893
2026-05-20 13:21:06.498,1166805954,149498,2,1.00586,-0.24634,0.12769,10.374,-5.588,2.42
2026-05-20 13:21:06.698,1166806154,149698,1,0.95459,-0.0376,0.5144,7.916,-6.115,5.351
2026-05-20 13:21:06.698,1166806154,149698,2,0.98364,-0.28467,0.11182,-1.84,4.71,8.366
2026-05-20 13:21:07.200,1166806656,150199,1,0.94897,-0.04663,0.51245,-18.794,13.641,-2.427
2026-05-20 13:21:07.200,1166806656,150199,2,1.05298,-0.2627,0.11816,-14.473,15.015,-4.389
2026-05-20 13:21:07.399,1166806855,150399,1,0.94116,-0.10645,0.55884,-23.565,21.588,-5.443
2026-05-20 13:21:07.399,1166806855,150399,2,0.98291,-0.24292,0.14307,-0.412,0.664,1.351
2026-05-20 13:21:10.400,1166809856,153400,1,0.9397,-0.12036,0.54712,-6.115,-0.237,1.519
2026-05-20 13:21:10.400,1166809856,153400,2,0.98926,-0.25098,0.14038,-1.298,1.779,2.641
2026-05-20 13:21:10.600,1166810056,153600,1,0.98071,-0.14185,0.56494,-6.069,0.435,-6.137
2026-05-20 13:21:10.600,1166810056,153600,2,0.98218,-0.27905,0.12427,-8.779,1.603,-1.504
2026-05-20 13:21:10.800,1166810256,153800,1,0.95679,-0.10645,0.51367,-7.053,2.122,-4.107
2026-05-20 13:21:10.800,1166810256,153800,2,0.98608,-0.25781,0.13525,-1.412,0.115,1.137
2026-05-20 13:21:14.893,1166814349,156893,1,0.98853,-0.08496,0.46021,3.366,0.13,0.603
2026-05-20 13:21:14.893,1166814349,156893,2,0.99951,-0.29419,0.09448,4.489,12.893,-3.641
2026-05-20 13:21:14.893,1166814349,156893,2,0.99951,-0.29419,0.09448,4.489,12.893,-3.641
2026-05-20 13:21:19.013,1166818469,162013,1,1.03809,-0.23218,1.13892,20.656,55.931,-4.771
2026-05-20 13:21:19.013,1166818469,162013,2,0.90405,-0.08472,0.34058,-18.008,10.878,27.786
2026-05-20 13:21:22.067,1166821523,165067,1,0.7937,-0.09644,0.93115,-32.817,35.603,-5.053
2026-05-20 13:21:22.067,1166821523,165067,2,0.89746,0.09375,0.49316,-33.527,27.397,-9.176
2026-05-20 13:21:22.267,1166821723,165267,1,0.63965,-0.26782,0.9248,-10.595,6.084,4.695
2026-05-20 13:21:22.267,1166821723,165267,2,0.81592,-0.12183,0.302,12.893,1.931,4.336
2026-05-20 13:21:22.467,1166821923,165467,1,0.81641,-0.09424,0.74365,16.939,-17.954,-0.656
2026-05-20 13:21:22.467,1166821923,165467,2,0.9624,-0.11035,0.29224,-5.748,-8.817,15.962
2026-05-20 13:21:22.693,1166822149,165693,1,0.78638,-0.12964,0.75439,6.985,-19.053,-1.603
2026-05-20 13:21:22.693,1166822149,165693,2,1.01904,-0.08105,0.25488,-2.359,-18.183,15.366
2026-05-20 13:21:23.893,1166823349,165893,1,0.88232,-0.08691,0.68384,-11.183,-11.939,-23.038
2026-05-20 13:21:23.893,1166823349,165893,2,1.03662,-0.1228,0.23071,-11.519,-7.969,-0.649
2026-05-20 13:21:23.093,1166822549,166093,1,0.86353,-0.00415,0.64355,22.328,-1.847,-3.092
2026-05-20 13:21:23.093,1166822549,166093,2,0.98438,-0.09644,0.12769,14.588,-10.321,-5.809
2026-05-20 13:21:23.293,1166822749,166293,1,0.91016,0.03271,0.63599,-5.763,10.244,-1.107
2026-05-20 13:21:23.293,1166822749,166293,2,1.03687,-0.13501,0.22876,0.046,41.237,-15.504
2026-05-20 13:21:23.493,1166822949,166493,1,1.24561,0.01587,0.76929,23.939,80.794,26.229
2026-05-20 13:21:23.493,1166822949,166493,2,1.40991,0.14917,0.40356,31.443,117.344,-75.511
2026-05-20 13:21:23.693,1166823149,166693,1,0.20508,-0.09985,1.25,1.931,86.496,-0.275
2026-05-20 13:21:23.693,1166823149,166693,2,0.55396,0.15527,0.45093,-8.069,43.893,-33.687
2026-05-20 13:21:24.893,1166824349,166893,1,0.28345,0.01001,1.16772,-1.26,-40.847,3.183
2026-05-20 13:21:24.893,1166824349,166893,2,0.64575,0.19116,0.67822,-0.756,-29.878,23.519
2026-05-20 13:21:24.093,1166823549,167093,1,0.78296,-0.29053,-0.00488,11.206,-34.55,1.198
2026-05-20 13:21:24.093,1166823549,167093,2,0.97632,-0.11353,0.21924,-118.046,-42.466,-14.145
2026-05-20 13:21:27.163,1166826619,170163,1,0.71362,-0.21631,0.64063,-76.878,-15.176,-70.565
2026-05-20 13:21:27.163,1166826619,170163,2,0.94727,-0.2356,0.15479,-109.977,-30.947,2.534
2026-05-20 13:21:27.363,1166826819,170363,1,0.9126,-0.24463,0.54517,-70.611,-12.115,-66.176
2026-05-20 13:21:27.363,1166826819,170363,2,0.97534,-0.30518,0.24536,-88.641,-6.695,-13.214
2026-05-20 13:21:27.563,1166827019,170563,1,0.94189,-0.15527,0.55176,-22.519,-5.87,-31.947
2026-05-20 13:21:27.563,1166827019,170563,2,1.00342,-0.16797,0.22803,-65.237,-7.504,-28.252
2026-05-20 13:21:27.563,1166827019,170563,2,1.00342,-0.16797,0.22803,-65.237,-7.504,-28.252
2026-05-20 13:21:32.661,1166832117,175661,1,0.94629,-0.16455,0.59521,16.053,8.511,-1.214
2026-05-20 13:21:32.661,1166832117,175661,2,1.03931,-0.19165,0.18896,6.489,9.908,-17.977
2026-05-20 13:21:33.861,1166833317,175861,1,0.76758,-0.14722,0.69312,24.13,49.733,-4.565
2026-05-20 13:21:33.861,1166833317,175861,1,0.76758,-0.14722,0.69312,24.13,49.733,-4.565
2026-05-20 13:21:33.861,1166833317,175861,2,1.16309,-0.17432,0.07935,-1.725,-7.573,13.954
2026-05-20 13:21:40.767,1166840223,183766,1,1.06348,-0.16479,0.5061,13.023,-11.817,2.145
2026-05-20 13:21:40.767,1166840223,183766,2,0.74658,0.21094,0.16699,11.489,54.015,-81.29
2026-05-20 13:21:41.201,1166840657,184201,1,0.26245,0.13745,0.88965,-2.252,78.305,-33.122
2026-05-20 13:21:41.201,1166840657,184201,2,0.44385,0.35742,0.27612,-9.023,15.595,-56.366
2026-05-20 13:21:41.401,1166840857,184401,1,0.37061,0.0293,0.86523,-12.702,15.053,-27.008
2026-05-20 13:21:41.401,1166840857,184401,2,0.56201,0.30371,0.28687,-23.069,13.534,-43.718
2026-05-20 13:21:41.601,1166841057,184601,1,0.30713,-0.03906,1.03467,-11.687,-21.847,-14.733
2026-05-20 13:21:41.601,1166841057,184601,2,0.67163,0.14746,0.41846,-13.229,-32.626,7.885
2026-05-20 13:21:41.601,1166841057,184601,2,0.67163,0.14746,0.41846,-13.229,-32.626,7.885
2026-05-20 13:21:46.707,1166846163,189707,1,1.12695,-0.26001,0.20825,28.076,53.198,-6.802
2026-05-20 13:21:46.707,1166846163,189707,2,0.90869,0.16968,0.22974,-27.618,53.832,-58.557
2026-05-20 13:21:47.067,1166846523,190066,1,0.38477,0.11255,1.00903,7.046,136.061,-31.71
2026-05-20 13:21:47.067,1166846523,190066,2,0.79517,0.66675,0.82788,-30.13,68.962,-66.214
2026-05-20 13:21:47.266,1166846722,190266,1,0.17383,0.0415,1.33887,9.176,75.298,-19.542
2026-05-20 13:21:47.266,1166846722,190266,2,0.67456,0.39063,0.70776,-19.076,25.16,-20.916
2026-05-20 13:21:47.528,1166846984,190528,1,0.07813,0.10205,1.12476,4.779,-27.664,-0.443
2026-05-20 13:21:47.528,1166846984,190528,2,0.57275,0.37085,0.73535,1.817,-14.962,17.015
2026-05-20 13:21:47.728,1166847184,190728,1,0.11792,0.09985,1.06934,-22.092,-39.71,-21.405
2026-05-20 13:21:47.728,1166847184,190728,2,0.65454,0.27222,0.68433,-5.298,-33.863,27.046
2026-05-20 13:21:48.928,1166848384,190928,1,0.29663,0.02637,1.05835,-19.435,-28.053,-5.847
2026-05-20 13:21:48.928,1166848384,190928,2,0.77124,0.2019,0.60278,1.473,-22.366,12.046
2026-05-20 13:21:48.128,1166847584,191128,1,0.35181,-0.03857,0.99854,-14.466,-24.947,-10.702
2026-05-20 13:21:48.128,1166847584,191128,2,0.85571,0.12646,0.50854,-6.756,-21.542,15.168
2026-05-20 13:21:48.328,1166847784,191328,1,0.55664,-0.00513,0.90479,-0.718,-13.969,1.405
2026-05-20 13:21:48.328,1166847784,191328,2,0.86328,0.13062,0.50342,-1.42,5.901,1.489
2026-05-20 13:21:48.528,1166847984,191528,1,0.49658,-0.13428,0.83984,-14.985,15.695,0.634
2026-05-20 13:21:48.528,1166847984,191528,2,0.78613,-0.11597,0.66992,-0.099,31.794,-22.275
2026-05-20 13:21:48.728,1166848184,191728,1,0.15259,0.07739,0.7915,18.092,27.962,9.802
2026-05-20 13:21:48.728,1166848184,191728,2,0.55859,0.10474,0.31177,-7.855,20.786,-12.55
2026-05-20 13:21:49.928,1166849384,191928,1,0.20093,0.03442,1.06274,17.038,-0.901,3.718
2026-05-20 13:21:49.928,1166849384,191928,2,1.85669,-0.11279,0.54272,-0.656,-9.359,8.344
2026-05-20 13:21:49.394,1166848850,192394,1,0.7373,-0.11719,0.77441,-23.084,-31.595,-3.87
2026-05-20 13:21:49.394,1166848850,192394,2,0.5813,-0.08569,0.03198,17.992,-10.481,5.053
2026-05-20 13:21:49.594,1166849050,192594,1,0.95605,-0.06055,0.71729,-28.656,-38.053,-27.015
2026-05-20 13:21:49.594,1166849050,192594,2,1.05396,-0.16895,0.02637,20.115,-29.26,-18.137
2026-05-20 13:21:52.445,1166851901,195444,1,0.91309,-0.11304,0.61963,25.275,0.275,9.229
2026-05-20 13:21:52.445,1166851901,195444,2,0.9873,-0.19897,0.18994,-1.099,4.008,-2.832
2026-05-20 13:21:55.514,1166854970,198514,1,0.91943,-0.11523,0.58862,-8.145,3.939,-3.962
2026-05-20 13:21:55.514,1166854970,198514,2,0.96362,-0.19971,0.19092,5.26,-4.763,-0.405
2026-05-20 13:21:55.715,1166855171,198715,1,0.89673,-0.12476,0.59253,7.244,1.687,2.359
2026-05-20 13:21:55.715,1166855171,198715,2,0.99316,-0.19312,0.1936,1.191,-1.084,-1.42
2026-05-20 13:21:56.915,1166856371,198915,1,0.9248,-0.15527,0.61206,,3.298,-1.687
2026-05-20 13:21:56.915,1166856371,198915,2,0.9978,-0.16968,0.20215,4.695,-2.725,-1.71
2026-05-20 13:21:56.115,1166855571,199115,1,0.92456,-0.0752,0.61987,12.053,1.359,5.527
2026-05-20 13:21:56.115,1166855571,199115,2,1.01611,-0.11255,0.09033,7.847,-1.229,0.992
2026-05-20 13:21:59.028,1166858484,202028,1,0.9314,0.021,0.60352,-0.954,1.84,0.809
2026-05-20 13:21:59.028,1166858484,202028,2,0.94629,0.06958,0.34399,-15.733,9.427,5.931
2026-05-20 13:22:02.112,1166861568,205112,1,0.66064,-0.01953,0.94263,-13.023,9.817,-2.809
2026-05-20 13:22:02.112,1166861568,205112,2,0.90942,0.02832,0.35205,5.771,-3.214,5.374
2026-05-20 13:22:02.312,1166861768,205312,1,0.64648,0.0686,0.89526,-5.244,-0.443,10.122
2026-05-20 13:22:02.312,1166861768,205312,2,0.95898,0.06152,0.36157,0.137,-0.969,4.389
2026-05-20 13:22:02.512,1166861968,205512,1,0.6394,-0.0105,0.94385,1.573,1.13,4.794
2026-05-20 13:22:02.512,1166861968,205512,2,0.93481,0.05615,0.34399,-11.939,4.137,-1.16
2026-05-20 13:22:02.712,1166862168,205712,1,0.67944,-0.45483,0.78735,-22.191,-4.168,-11.267
2026-05-20 13:22:02.712,1166862168,205712,2,0.89038,-0.08398,0.49194,-15.099,23.153,-23.214
2026-05-20 13:22:03.912,1166863368,205912,1,0.6604,0.08203,1.02246,26.237,-46.817,29.893
2026-05-20 13:22:03.912,1166863368,205912,2,1.06689,-0.13696,0.5022,81.115,9.076,35.366
2026-05-20 13:22:03.112,1166862568,206112,1,0.53784,0.07373,1.1543,76.351,6.328,81.473
2026-05-20 13:22:03.112,1166862568,206112,2,1.1123,0.27393,0.12646,28.962,-23.038,36.84
2026-05-20 13:22:03.312,1166862768,206312,1,0.74658,0.22925,0.77637,-40.893,-21.344,-52.122
2026-05-20 13:22:03.312,1166862768,206312,2,1.01123,0.08594,0.2832,-53.282,-22.374,-22.992
2026-05-20 13:22:06.131,1166865587,209131,1,0.802,-0.11206,0.7981,-8.099,-3.023,-4.214
2026-05-20 13:22:06.131,1166865587,209131,2,1.01904,-0.11646,0.26807,-4.939,-4.878,0.076
2026-05-20 13:22:06.331,1166865787,209331,1,0.75171,0.00708,0.78906,-3.275,-4.672,-1.992
2026-05-20 13:22:06.331,1166865787,209331,2,1.02734,-0.06934,0.24902,-10.267,5.023,2.511
2026-05-20 13:22:06.531,1166865987,209531,1,0.82446,-0.02954,0.78882,-2.0,8.191,-0.557
2026-05-20 13:22:06.531,1166865987,209531,2,0.72339,-0.3313,0.52051,-48.977,0.229,13.947
2026-05-20 13:22:09.248,1166868704,212247,1,0.67163,-0.67822,0.74072,6.74,-13.298,1.511
2026-05-20 13:22:09.248,1166868704,212247,2,0.97485,-0.08276,0.36255,-2.29,5.015,1.176
2026-05-20 13:22:14.346,1166873802,217346,1,0.72876,-0.05811,0.8335,0.74,2.206,-4.916
2026-05-20 13:22:14.346,1166873802,217346,2,0.98462,-0.04102,0.38232,-3.885,3.374,-4.702
2026-05-20 13:22:17.489,1166876945,220489,1,0.75269,0.01685,0.80371,8.031,11.855,-1.092
2026-05-20 13:22:17.489,1166876945,220489,2,0.96973,-0.00366,0.39404,1.664,12.779,-6.351
2026-05-20 13:22:17.689,1166877145,220689,1,0.63843,0.01563,0.91211,-0.847,-7.969,-5.176
2026-05-20 13:22:17.689,1166877145,220689,2,0.85205,0.08203,0.43481,4.282,7.496,-8.412
2026-05-20 13:22:18.889,1166878345,220889,1,0.70166,-0.01294,0.88892,4.947,11.489,6.42
2026-05-20 13:22:18.889,1166878345,220889,2,0.92334,0.03491,0.47656,4.748,5.198,-6.611
2026-05-20 13:22:18.089,1166877545,221089,1,0.62012,0.05493,0.93506,-0.962,-6.519,-4.336
2026-05-20 13:22:18.089,1166877545,221089,2,0.82959,0.09937,0.48413,0.374,-6.496,3.84
2026-05-20 13:22:18.289,1166877745,221289,1,0.64673,0.05249,0.92603,2.718,-3.55,5.382
2026-05-20 13:22:18.289,1166877745,221289,2,0.88184,0.03906,0.42358,-7.618,-13.069,14.008
2026-05-20 13:22:18.489,1166877945,221489,1,0.73145,0.01294,0.87769,-9.679,-1.504,7.481
2026-05-20 13:22:18.489,1166877945,221489,2,0.94873,0.01465,0.37769,-9.748,-7.214,10.771
2026-05-20 13:22:18.689,1166878145,221689,1,0.74536,-0.0437,0.80811,-8.344,-2.71,-4.664
2026-05-20 13:22:18.689,1166878145,221689,2,0.97046,-0.07324,0.3667,-7.427,-4.756,8.718
2026-05-20 13:22:19.889,1166879345,221889,1,0.72412,-0.06152,0.8291,0.298,1.656,-0.542
2026-05-20 13:22:19.889,1166879345,221889,2,0.96313,-0.07935,0.35303,-9.824,-0.412,0.84
2026-05-20 13:22:19.089,1166878545,222089,1,0.72632,-0.02124,0.85767,-5.221,0.313,2.344
2026-05-20 13:22:19.089,1166878545,222089,2,1.07129,-0.25293,0.09351,-33.786,-21.038,16.756
2026-05-20 13:22:22.997,1166882453,224997,1,1.06665,-0.20044,0.24121,3.763,6.031,8.176
2026-05-20 13:22:22.997,1166882453,224997,2,1.05786,-0.11084,0.04688,14.458,-3.878,-0.763
2026-05-20 13:22:22.197,1166881653,225197,1,1.06909,-0.18335,0.23193,3.664,19.725,-7.13
2026-05-20 13:22:22.197,1166881653,225197,2,1.06396,-0.20874,0.06445,4.527,6.832,-8.267
2026-05-20 13:22:22.397,1166881853,225397,1,1.0083,-0.14038,0.35352,-1.412,27.153,-7.802
2026-05-20 13:22:22.397,1166881853,225397,2,0.95215,-0.11157,0.13452,-12.015,18.863,-15.809
2026-05-20 13:22:22.603,1166882059,225603,1,1.02515,-0.10986,0.53491,-12.29,18.344,-2.26
2026-05-20 13:22:22.603,1166882059,225603,2,0.93213,0.05347,0.39258,-0.244,-3.763,-1.542
2026-05-20 13:22:28.544,1166888000,231544,1,0.73853,0.07007,0.82324,-7.313,2.893,-4.733
2026-05-20 13:22:28.544,1166888000,231544,2,0.92944,0.04077,0.3855,-1.802,-3.527,-2.206
2026-05-20 13:22:28.744,1166888200,231744,1,0.74316,0.06274,0.84644,-6.977,-0.534,-3.55
2026-05-20 13:22:28.744,1166888200,231744,2,0.93335,0.03491,0.39771,1.405,0.305,0.901
2026-05-20 13:22:29.944,1166889400,231944,1,0.77246,0.03516,0.81934,-8.832,6.328,-0.855
2026-05-20 13:22:29.944,1166889400,231944,2,0.96753,0.01367,0.17944,20.191,3.069,18.252
2026-05-20 13:22:31.594,1166891050,234594,1,0.9436,0.00586,0.56128,4.053,11.763,6.359
2026-05-20 13:22:31.594,1166891050,234594,2,1.07617,0.06445,0.16309,8.176,1.252,7.916
2026-05-20 13:22:31.794,1166891250,234794,1,0.76367,0.03345,0.7832,11.313,18.427,0.122
2026-05-20 13:22:31.794,1166891250,234794,2,0.95996,0.03833,0.29126,9.641,12.046,-9.221
2026-05-20 13:22:32.994,1166892450,234994,1,0.8252,-0.08496,0.58838,14.244,40.168,20.099
2026-05-20 13:22:32.994,1166892450,234994,2,0.79004,0.07495,0.33984,83.374,43.405,-20.435
2026-05-20 13:22:32.194,1166891650,235194,1,0.65112,0.10205,0.72974,-20.992,-1.939,-21.969
2026-05-20 13:22:32.194,1166891650,235194,2,0.73267,-0.02808,0.41919,-54.229,12.733,-17.519
2026-05-20 13:22:32.394,1166891850,235394,1,0.5957,-0.11206,0.76758,-12.901,-10.023,5.939
2026-05-20 13:22:32.394,1166891850,235394,2,0.66504,-0.02246,0.39453,-11.603,-14.908,10.634
2026-05-20 13:22:32.594,1166892050,235594,1,0.59717,-0.10718,0.76392,3.397,-50.107,3.16
2026-05-20 13:22:32.594,1166892050,235594,2,0.97754,0.07642,0.29736,-10.649,-53.473,44.099
2026-05-20 13:22:32.794,1166892250,235794,1,1.99994,-0.22461,0.89209,39.397,10.374,-44.153
2026-05-20 13:22:32.794,1166892250,235794,2,1.06104,-0.14087,0.14453,8.176,12.962,-29.115
2026-05-20 13:22:33.994,1166893450,235994,1,0.69116,-0.01196,0.60205,-3.939,35.855,-2.664
2026-05-20 13:22:33.994,1166893450,235994,2,0.83667,0.01758,0.28271,1.672,8.656,17.771
2026-05-20 13:22:33.194,1166892650,236194,1,0.91748,-0.24463,0.76074,-28.511,43.618,-5.832
2026-05-20 13:22:33.194,1166892650,236194,2,1.04102,-0.02026,0.30176,-6.366,6.733,-4.725
2026-05-20 13:22:33.394,1166892850,236394,1,0.75781,-0.05811,0.95923,6.336,32.679,-11.565
2026-05-20 13:22:33.394,1166892850,236394,2,0.89087,0.00122,0.35864,1.42,21.809,-15.046
2026-05-20 13:22:33.594,1166893050,236594,1,0.64624,-0.02393,0.88843,-4.832,16.817,-8.55
2026-05-20 13:22:33.594,1166893050,236594,2,0.84424,0.00342,0.47046,-3.557,3.458,-5.527
2026-05-20 13:22:33.794,1166893250,236794,1,0.53955,0.09668,0.96655,-23.893,-1.542,12.664
2026-05-20 13:22:33.794,1166893250,236794,2,0.89038,0.00732,0.40063,-12.557,-1.153,12.511
2026-05-20 13:22:34.994,1166894450,236994,1,0.65283,-0.13672,0.93286,-23.275,-26.191,12.794
2026-05-20 13:22:34.994,1166894450,236994,2,0.91528,-0.08325,0.44849,-7.489,-1.092,5.107
2026-05-20 13:22:37.256,1166896712,240256,1,0.71191,-0.18018,0.83276,-0.817,1.412,-2.26
2026-05-20 13:22:37.256,1166896712,240256,2,0.91919,-0.12085,0.39575,-6.74,2.344,0.611
2026-05-20 13:22:37.456,1166896912,240456,1,0.68701,-0.17554,0.85132,1.527,1.412,-0.664
2026-05-20 13:22:37.456,1166896912,240456,2,0.92334,-0.09253,0.37866,0.183,-0.229,-0.55
2026-05-20 13:22:37.656,1166897112,240656,1,0.70093,-0.18506,0.86255,-1.634,1.679,-1.145
2026-05-20 13:22:37.656,1166897112,240656,2,0.927,-0.10449,0.38892,-1.855,0.809,0.099
2026-05-20 13:22:38.089,1166897545,241089,1,0.69678,-0.18384,0.84814,-2.489,0.794,-0.046
2026-05-20 13:22:38.089,1166897545,241089,2,0.92188,-0.09888,0.39551,-2.634,0.267,0.168
2026-05-20 13:22:38.289,1166897745,241289,1,0.70044,-0.1853,0.8501,1.954,2.916,-0.954
2026-05-20 13:22:38.289,1166897745,241289,2,0.93335,-0.10962,0.38477,-6.603,0.595,0.794
2026-05-20 13:22:38.489,1166897945,241489,1,0.69263,-0.18066,0.84253,-0.206,2.237,-1.237
2026-05-20 13:22:38.489,1166897945,241489,2,0.91675,-0.11694,0.38867,-5.229,-0.756,-0.183
2026-05-20 13:22:38.689,1166898145,241689,1,0.72168,-0.19873,0.854,-0.031,-1.924,1.29
2026-05-20 13:22:38.689,1166898145,241689,2,0.85693,-0.17358,0.34741,53.435,0.901,-2.198
2026-05-20 13:22:39.889,1166899345,241889,1,0.74292,-0.2478,0.65698,105.641,-24.832,30.061
2026-05-20 13:22:39.889,1166899345,241889,2,0.80713,0.12134,0.31299,87.29,9.832,-50.282
2026-05-20 13:22:39.089,1166898545,242089,1,0.77881,0.07422,0.98364,-19.885,35.641,-30.863
2026-05-20 13:22:39.089,1166898545,242089,2,0.94067,0.13599,0.46167,-24.466,0.687,7.244
2026-05-20 13:22:39.289,1166898745,242289,1,0.64038,-0.09766,0.89258,-37.496,13.351,-5.275
2026-05-20 13:22:39.289,1166898745,242289,2,0.948,0.03442,0.48047,-6.557,1.817,15.58
2026-05-20 13:22:39.489,1166898945,242489,1,0.76807,-0.04321,0.81323,-17.878,-8.206,2.214
2026-05-20 13:22:39.489,1166898945,242489,2,0.8584,0.02466,0.46924,-12.725,12.191,6.519
2026-05-20 13:22:39.689,1166899145,242689,1,0.6936,-0.22021,0.91919,4.344,9.939,17.26
2026-05-20 13:22:39.689,1166899145,242689,2,0.93799,-0.08716,0.49536,-8.763,-10.695,9.023
2026-05-20 13:22:40.889,1166900345,242889,1,0.80737,-0.16235,0.75952,-8.45,3.16,6.45
2026-05-20 13:22:40.889,1166900345,242889,2,0.94727,-0.08496,0.37012,-13.496,-3.962,5.382
2026-05-20 13:22:46.844,1166906300,248844,1,0.69751,-0.08008,0.78662,16.0,61.985,-9.344
2026-05-20 13:22:46.844,1166906300,248844,2,0.78638,0.43555,0.66406,-59.389,55.122,-57.061
2026-05-20 13:22:46.044,1166905500,249044,1,0.4292,-0.21118,0.80493,4.061,33.137,36.679
2026-05-20 13:22:46.044,1166905500,249044,2,0.27954,0.12427,0.54419,76.626,106.473,23.191
2026-05-20 13:22:46.244,1166905700,249244,1,0.30566,-0.05249,0.96582,-15.71,-8.588,7.824
2026-05-20 13:22:46.244,1166905700,249244,2,0.46875,0.28223,0.68066,-50.901,-50.809,30.626
2026-05-20 13:22:46.444,1166905900,249444,1,0.52417,-0.16919,0.87134,-1.847,-54.389,-17.786
2026-05-20 13:22:46.444,1166905900,249444,2,1.99994,0.40918,1.55566,-120.718,-96.962,83.656
2026-05-20 13:22:46.706,1166906162,249706,1,1.99994,-0.20337,0.86255,-11.733,31.947,-31.038
2026-05-20 13:22:46.706,1166906162,249706,2,1.55322,-0.14673,0.67041,53.168,31.145,-6.099
2026-05-20 13:22:47.906,1166907362,249906,1,0.53418,-0.05688,0.70386,-2.061,18.74,-11.412
2026-05-20 13:22:47.906,1166907362,249906,2,0.74951,0.10962,0.29639,-14.061,-15.084,7.534
2026-05-20 13:22:47.106,1166906562,250106,1,0.97363,-0.11646,0.73047,-7.74,18.382,-4.099
2026-05-20 13:22:47.106,1166906562,250106,2,0.81519,-0.07739,0.4519,-8.42,3.26,6.023
2026-05-20 13:22:47.306,1166906762,250306,1,0.77246,-0.00293,0.80981,7.031,5.344,2.573
2026-05-20 13:22:47.306,1166906762,250306,2,0.99536,0.13257,0.48877,-1.053,5.565,-0.985
2026-05-20 13:22:47.506,1166906962,250506,1,0.67383,-0.0647,0.89893,-6.634,11.405,-0.809
2026-05-20 13:22:47.506,1166906962,250506,2,0.82764,0.0979,0.41797,-14.542,-4.168,-2.412
2026-05-20 13:22:47.706,1166907162,250706,1,0.75952,-0.0708,0.82324,-12.107,-1.145,-4.802
2026-05-20 13:22:47.706,1166907162,250706,2,0.92236,0.03857,0.479,2.679,-1.237,6.45
2026-05-20 13:22:48.906,1166908362,250906,1,0.75513,-0.07153,0.79126,-0.947,-2.473,4.702
2026-05-20 13:22:48.906,1166908362,250906,2,0.92017,0.03442,0.43457,-3.824,1.168,1.786
2026-05-20 13:22:51.127,1166910583,254127,1,0.72388,-0.05493,0.87305,-1.557,5.718,2.511
2026-05-20 13:22:51.127,1166910583,254127,2,0.91309,0.08032,0.48511,-1.542,2.977,2.809
2026-05-20 13:22:51.327,1166910783,254327,1,0.71997,-0.05151,0.82153,2.611,0.092,1.405
2026-05-20 13:22:51.327,1166910783,254327,2,0.87476,0.07397,0.4375,-0.969,1.176,3.252
2026-05-20 13:22:51.527,1166910983,254527,1,0.72998,-0.11377,0.83203,-0.504,1.267,1.389
2026-05-20 13:22:51.527,1166910983,254527,2,0.91309,0.07959,0.48828,-4.931,0.58,-0.168
2026-05-20 13:22:52.840,1166912296,254840,1,0.83911,-0.09839,0.83667,7.687,10.511,1.069
2026-05-20 13:22:52.840,1166912296,254840,2,0.97876,0.06812,0.53589,21.969,16.183,-14.611
2026-05-20 13:22:52.040,1166911496,255040,1,0.58594,-0.00122,0.87329,1.191,4.74,-1.344
2026-05-20 13:22:52.040,1166911496,255040,2,0.79663,0.15503,0.40381,-10.679,-2.534,0.817
2026-05-20 13:22:52.240,1166911696,255240,1,1.04492,-0.09326,0.9248,8.863,32.427,-4.641
2026-05-20 13:22:52.240,1166911696,255240,2,1.5752,0.07715,0.87012,42.977,54.145,-48.092
2026-05-20 13:22:52.611,1166912067,255611,1,0.29126,0.07568,1.01929,30.55,42.916,6.046
2026-05-20 13:22:52.611,1166912067,255611,2,0.41699,0.32129,0.65234,-5.863,49.176,-30.198
2026-05-20 13:22:52.811,1166912267,255811,1,0.13745,0.12744,1.03638,-2.107,45.595,-12.786
2026-05-20 13:22:52.811,1166912267,255811,2,0.2561,0.40063,0.6665,1.336,29.023,-14.947
2026-05-20 13:22:53.011,1166912467,256011,1,0.10376,0.13354,1.1228,-0.679,13.252,-5.977
2026-05-20 13:22:53.011,1166912467,256011,2,0.26489,0.42603,0.78516,4.786,-10.977,6.313
2026-05-20 13:22:53.211,1166912667,256211,1,0.08936,0.14331,1.12988,1.336,15.664,-7.809
2026-05-20 13:22:53.211,1166912667,256211,2,0.271,0.48169,0.82007,-3.817,-3.519,-0.137
2026-05-20 13:22:53.411,1166912867,256411,1,0.00806,0.12915,1.11792,0.878,0.466,-2.931
2026-05-20 13:22:53.411,1166912867,256411,2,0.22021,0.53296,0.88232,-2.229,-5.985,3.687
2026-05-20 13:22:53.611,1166913067,256611,1,-0.02075,0.13818,1.47729,-2.84,-16.107,-5.573
2026-05-20 13:22:53.611,1166913067,256611,2,0.38696,0.60693,0.77905,-4.443,-38.824,23.565
2026-05-20 13:22:53.811,1166913267,256811,1,0.12402,0.18921,1.28516,11.015,-74.908,11.702
2026-05-20 13:22:53.811,1166913267,256811,2,0.61157,0.16968,0.2312,1.336,25.023,-14.336
2026-05-20 13:22:56.698,1166916154,259697,1,0.45728,0.03296,0.71973,-6.611,17.527,-6.473
2026-05-20 13:22:56.698,1166916154,259697,2,0.82642,0.17285,0.47632,-7.84,4.45,3.397
2026-05-20 13:22:59.763,1166919219,262763,1,0.56323,-0.01245,0.95801,-10.313,2.573,0.557
2026-05-20 13:22:59.763,1166919219,262763,2,0.32886,0.58569,0.7522,48.023,-0.954,-4.137
2026-05-20 13:23:02.224,1166921680,265224,1,0.33545,0.30908,1.38013,-6.061,1.733,-1.313
2026-05-20 13:23:02.224,1166921680,265224,2,0.43237,0.48242,0.7854,-2.702,-15.756,18.855
2026-05-20 13:23:02.424,1166921880,265424,1,0.31348,0.11694,1.16724,-5.099,-90.13,16.412
2026-05-20 13:23:02.424,1166921880,265424,2,0.68896,0.1377,0.46948,-25.809,-100.656,80.244
2026-05-20 13:23:02.624,1166922080,265624,1,0.57642,0.05664,0.48633,-26.473,-111.84,19.229
2026-05-20 13:23:02.624,1166922080,265624,2,0.64795,0.44067,0.51563,32.695,-56.443,45.084
2026-05-20 13:23:05.259,1166924715,268259,1,0.31641,0.02075,1.08716,0.351,-104.496,0.672
2026-05-20 13:23:05.259,1166924715,268259,2,0.84009,0.37842,0.2688,-69.824,-83.015,75.168
2026-05-20 13:23:05.459,1166924915,268459,1,1.99994,-0.32983,1.27563,-51.214,18.634,-55.168
2026-05-20 13:23:05.459,1166924915,268459,2,0.93091,-0.05151,0.36816,-1.962,0.328,0.237
2026-05-20 13:23:10.547,1166930003,273547,1,0.65942,-0.06982,0.88208,-0.748,1.527,-0.351
2026-05-20 13:23:10.547,1166930003,273547,1,0.65942,-0.06982,0.88208,-0.748,1.527,-0.351
2026-05-20 13:23:10.547,1166930003,273547,2,0.90869,-0.08423,0.41968,-3.679,-0.733,-0.405
2026-05-20 13:23:15.644,1166935100,278644,1,0.61401,-0.02783,0.92383,1.618,2.0,-0.336
2026-05-20 13:23:15.644,1166935100,278644,2,0.91797,-0.09204,0.39697,0.252,0.504,1.092
2026-05-20 13:23:16.844,1166936300,278844,1,0.59839,-0.03564,0.9314,0.275,2.069,2.229
2026-05-20 13:23:16.844,1166936300,278844,2,0.91064,-0.07715,0.42896,-5.16,0.168,0.412
2026-05-20 13:23:18.510,1166937966,281509,1,0.61206,-0.05884,0.9375,-0.183,2.557,-0.748
2026-05-20 13:23:18.510,1166937966,281509,2,0.90967,-0.07837,0.41797,-4.252,-0.061,0.198
2026-05-20 13:23:18.709,1166938165,281709,1,0.61084,-0.04248,0.93604,0.527,2.687,0.115
2026-05-20 13:23:18.709,1166938165,281709,2,0.99121,0.20532,0.2002,13.489,-9.053,-11.924
2026-05-20 13:23:26.807,1166946263,289807,1,0.66748,0.13989,0.88965,30.176,6.824,-13.71
2026-05-20 13:23:26.807,1166946263,289807,2,1.01025,0.1814,0.18335,0.603,-6.13,-1.908
2026-05-20 13:23:27.007,1166946463,290007,1,0.67603,0.15356,0.85864,3.748,-0.198,-7.679
2026-05-20 13:23:27.007,1166946463,290007,2,0.96924,0.19116,0.1748,-0.824,-2.038,-1.45
2026-05-20 13:23:27.207,1166946663,290207,1,0.74854,0.14233,0.80347,3.695,-8.382,-7.847
2026-05-20 13:23:27.207,1166946663,290207,2,1.02734,0.13208,0.22998,0.519,14.496,3.847
2026-05-20 13:23:27.407,1166946863,290407,1,0.71484,0.12329,0.8269,7.092,20.87,3.489
2026-05-20 13:23:27.407,1166946863,290407,2,1.02246,0.14795,0.23804,15.076,4.557,0.237
2026-05-20 13:23:27.761,1166947217,290761,1,0.5979,0.23267,0.71094,-14.214,29.618,-6.84
2026-05-20 13:23:27.761,1166947217,290761,2,0.9231,0.22339,0.27612,-3.244,6.565,-10.733
2026-05-20 13:23:28.961,1166948417,290961,1,0.53198,0.25024,0.98877,-4.321,1.74,1.382
2026-05-20 13:23:28.961,1166948417,290961,2,0.94092,0.25488,0.22998,0.878,2.435,6.053
2026-05-20 13:23:28.161,1166947617,291161,1,0.60767,0.23657,0.90625,-3.718,-2.046,0.565
2026-05-20 13:23:28.161,1166947617,291161,2,0.93994,0.25244,0.28516,-5.168,-0.328,0.191
2026-05-20 13:23:31.876,1166951332,293876,1,0.53271,0.18604,0.95532,0.878,2.221,-0.817
2026-05-20 13:23:31.876,1166951332,293876,2,0.92749,0.25049,0.27881,-5.031,-0.359,0.122
2026-05-20 13:23:31.076,1166950532,294076,1,0.5354,0.18726,0.9563,0.275,2.771,-0.313
2026-05-20 13:23:31.076,1166950532,294076,2,0.92896,0.19238,0.31812,5.267,1.359,3.817
2026-05-20 13:23:34.223,1166953679,297223,1,0.48779,0.16846,1.01416,4.557,4.58,3.16
2026-05-20 13:23:34.223,1166953679,297223,2,0.91797,0.18433,0.34937,1.473,0.031,4.84
2026-05-20 13:23:34.423,1166953879,297423,1,0.48926,0.1814,0.96558,6.107,4.191,3.092
2026-05-20 13:23:34.423,1166953879,297423,2,0.93823,0.22729,0.31714,1.542,-0.962,0.198
2026-05-20 13:23:34.623,1166954079,297623,1,0.4812,0.21191,0.98511,10.137,5.053,-1.107
2026-05-20 13:23:34.623,1166954079,297623,2,0.9436,0.21997,0.30322,4.382,-4.351,-8.099
2026-05-20 13:23:37.573,1166957029,300573,1,0.52515,0.177,0.92529,-7.389,-92.985,33.084
2026-05-20 13:23:37.573,1166957029,300573,2,0.61108,-0.02832,0.33521,-8.588,0.344,-17.641
2026-05-20 13:23:40.681,1166960137,303681,1,0.58838,-0.09302,0.75024,27.534,1.916,-1.893
2026-05-20 13:23:40.681,1166960137,303681,2,1.00537,0.2207,0.56104,36.962,-15.954,1.809
2026-05-20 13:23:41.881,1166961337,303881,1,0.96289,-0.01001,0.86255,-9.878,5.847,-3.863
2026-05-20 13:23:41.881,1166961337,303881,2,0.91504,0.20386,0.53638,-31.534,35.901,-25.397
2026-05-20 13:23:41.081,1166960537,304081,1,0.63184,-0.03125,0.89478,41.176,-9.847,-27.496
2026-05-20 13:23:41.081,1166960537,304081,2,0.83252,0.17725,0.47217,3.893,-10.038,4.855
2026-05-20 13:23:41.281,1166960737,304281,1,0.70923,0.05322,0.87939,23.603,-0.557,6.244
2026-05-20 13:23:41.281,1166960737,304281,2,0.86475,0.2627,0.41382,33.817,-8.58,-3.237
2026-05-20 13:23:41.486,1166960942,304485,1,0.73755,0.02808,0.82739,-10.542,3.947,6.489
2026-05-20 13:23:41.486,1166960942,304485,2,0.89697,0.24707,0.43042,-11.71,4.427,9.534
2026-05-20 13:23:41.685,1166961141,304685,1,0.71167,0.00684,0.82275,-33.855,4.237,-5.687
2026-05-20 13:23:41.685,1166961141,304685,2,0.81592,0.17603,0.50024,-23.412,9.786,5.389
2026-05-20 13:23:42.885,1166962341,304885,1,0.69067,-0.01538,0.83057,7.817,4.817,-1.939
2026-05-20 13:23:42.885,1166962341,304885,2,0.84888,0.14893,0.48511,-15.099,-0.969,2.153
2026-05-20 13:23:44.706,1166964162,307705,1,1.05103,-0.01343,0.18628,-29.229,-152.237,23.908
2026-05-20 13:23:44.706,1166964162,307705,2,1.00513,-0.18433,0.19019,-7.542,-34.382,61.099
2026-05-20 13:23:45.905,1166965361,307905,1,1.09375,-0.33569,0.14087,-36.389,-47.786,-1.229
2026-05-20 13:23:45.905,1166965361,307905,2,0.20068,0.25806,0.61523,-11.305,-124.107,52.748
2026-05-20 13:23:47.790,1166967246,310790,1,-0.2749,0.17822,0.97021,-13.74,-154.542,-6.931
2026-05-20 13:23:47.790,1166967246,310790,2,0.76147,0.21704,0.4812,-6.405,-172.733,68.282
2026-05-20 13:23:48.088,1166967544,311088,1,0.78979,-0.05371,0.77124,-24.656,14.115,-25.802
2026-05-20 13:23:48.088,1166967544,311088,2,0.5603,-0.07397,0.23364,24.954,29.649,-38.588
2026-05-20 13:23:48.288,1166967744,311288,1,0.48901,0.0835,0.8186,-17.397,-35.496,-4.786
2026-05-20 13:23:48.288,1166967744,311288,2,1.00684,0.11426,0.48145,-0.649,-38.885,32.466
2026-05-20 13:23:48.488,1166967944,311488,1,0.73047,-0.1333,0.86621,-22.641,-4.313,17.641
2026-05-20 13:23:48.488,1166967944,311488,2,0.8877,0.02612,0.4668,-23.359,-4.122,-3.45
2026-05-20 13:23:48.756,1166968212,311756,1,0.64087,0.01172,0.96045,11.588,3.84,-7.679
2026-05-20 13:23:48.756,1166968212,311756,2,0.94336,0.01294,0.51343,-2.855,-1.725,-4.153
2026-05-20 13:23:49.956,1166969412,311956,1,0.5896,-0.04492,0.91968,-23.031,-5.374,16.824
2026-05-20 13:23:49.956,1166969412,311956,2,0.90625,0.09521,0.41504,4.786,0.237,-1.969
2026-05-20 13:23:49.156,1166968612,312156,1,0.69385,-0.1333,0.83374,-32.198,-20.229,-44.763
2026-05-20 13:23:49.156,1166968612,312156,2,0.79395,0.03247,0.58838,-7.893,19.985,-17.908
2026-05-20 13:23:49.356,1166968812,312356,1,0.62402,0.11328,0.94165,14.824,5.214,-15.0
2026-05-20 13:23:49.356,1166968812,312356,2,0.88574,0.10645,0.50293,20.969,-17.908,6.885
2026-05-20 13:23:49.556,1166969012,312556,1,0.73511,0.02393,0.83179,3.565,-9.565,23.443
2026-05-20 13:23:49.556,1166969012,312556,2,0.93018,0.21875,0.38745,18.374,-2.275,13.664
2026-05-20 13:23:49.756,1166969212,312756,1,0.72217,0.11768,0.79541,15.962,-1.443,1.267
2026-05-20 13:23:49.756,1166969212,312756,2,0.90479,0.22192,0.36572,2.275,1.344,-8.031
2026-05-20 13:23:50.956,1166970412,312956,1,0.68799,-0.02954,0.86328,-18.16,13.527,-0.214
2026-05-20 13:23:50.956,1166970412,312956,2,1.03247,0.2395,0.47095,-1.573,23.16,-11.229
2026-05-20 13:23:50.156,1166969612,313156,1,1.03564,0.10474,1.03125,-17.427,38.435,-0.687
2026-05-20 13:23:50.156,1166969612,313156,2,1.1023,0.56006,0.38135,20.557,-37.832,37.466
2026-05-20 13:23:53.009,1166972465,316008,1,1.66675,0.07349,0.82617,26.374,-20.901,-15.656
2026-05-20 13:23:53.009,1166972465,316008,2,1.30151,-0.08838,0.34106,-1.405,-24.412,27.29
2026-05-20 13:23:56.084,1166975540,319084,1,0.98193,-0.28271,0.32642,13.0,20.603,-21.42
2026-05-20 13:23:56.084,1166975540,319084,2,0.9856,-0.31372,0.16089,-1.557,-6.153,-2.344
2026-05-20 13:23:56.284,1166975740,319284,1,1.05884,-0.15479,0.39038,36.824,14.733,9.42
2026-05-20 13:23:56.284,1166975740,319284,2,0.9126,-0.1084,0.14648,52.855,0.733,-14.336
2026-05-20 13:23:56.484,1166975940,319484,1,1.05908,-0.16431,0.36963,29.053,3.13,17.664
2026-05-20 13:23:56.484,1166975940,319484,2,0.99829,-0.16235,0.19238,54.145,6.687,-5.42
2026-05-20 13:23:56.684,1166976140,319684,1,0.94287,-0.11353,0.49585,14.076,16.756,5.481
2026-05-20 13:23:56.684,1166976140,319684,2,0.96997,-0.07275,0.22266,5.733,-0.038,4.084
2026-05-20 13:23:57.884,1166977340,319884,1,0.95166,-0.1106,0.49658,21.359,-1.916,9.534
2026-05-20 13:23:57.884,1166977340,319884,2,0.96313,-0.06738,0.20874,14.481,-5.397,4.656
2026-05-20 13:23:57.084,1166976540,320084,1,1.0022,-0.14087,0.45801,1.008,-0.695,-2.656
2026-05-20 13:23:57.084,1166976540,320084,2,0.95605,-0.03076,0.22437,-4.458,2.771,-5.397
2026-05-20 13:23:57.284,1166976740,320284,1,0.95361,-0.16626,0.50977,-12.786,9.412,-2.527
2026-05-20 13:23:57.284,1166976740,320284,2,0.97461,-0.0813,0.25366,-6.725,0.733,-2.336
2026-05-20 13:23:57.484,1166976940,320484,1,1.00391,-0.19727,0.41528,-0.618,36.229,-1.863
2026-05-20 13:23:57.484,1166976940,320484,2,0.92822,,0.13574,4.649,22.718,-14.702
2026-05-20 13:23:57.684,1166977140,320684,1,0.84131,-0.16113,0.5542,21.252,65.855,3.725
2026-05-20 13:23:57.684,1166977140,320684,2,0.91528,0.08862,0.28418,34.679,37.679,-30.74
2026-05-20 13:23:58.884,1166978340,320884,1,0.4707,-0.01611,0.60938,-1.153,36.618,-18.069
2026-05-20 13:23:58.884,1166978340,320884,2,0.46997,0.05713,0.10522,-46.351,34.374,-54.405
2026-05-20 13:23:58.084,1166977540,321084,1,0.71509,0.11914,0.8999,45.496,20.687,-18.26
2026-05-20 13:23:58.084,1166977540,321084,2,0.6311,0.63428,0.53174,19.885,-115.87,91.771
2026-05-20 13:24:01.135,1166980591,324135,1,0.60156,-0.15771,1.14014,-29.733,-141.389,-19.863
2026-05-20 13:24:01.135,1166980591,324135,2,0.75757,0.30469,0.36768,-120.328,-61.794,53.26
2026-05-20 13:24:01.335,1166980791,324335,1,0.73364,0.03687,0.28662,-59.275,-61.939,-9.198
2026-05-20 13:24:01.335,1166980791,324335,2,1.03198,-0.00171,0.42627,-75.573,-43.802,45.748
2026-05-20 13:24:01.535,1166980991,324535,1,1.06885,-0.21533,0.2688,-35.924,-70.244,0.489
2026-05-20 13:24:01.535,1166980991,324535,2,0.98804,-0.17285,0.2417,-29.023,-17.634,6.076
2026-05-20 13:24:01.735,1166981191,324735,1,1.1084,-0.24072,0.23242,0.168,-19.779,1.779
2026-05-20 13:24:01.735,1166981191,324735,2,0.98145,-0.17065,0.23267,-5.992,-0.618,-6.168
2026-05-20 13:24:07.153,1166986609,330153,1,0.10034,-0.05688,1.28271,-21.275,-35.725,-15.542
2026-05-20 13:24:07.153,1166986609,330153,2,0.52808,0.28833,0.68481,-7.473,-48.748,33.313
2026-05-20 13:24:07.353,1166986809,330353,1,0.33496,-0.04639,1.08569,-15.954,-81.405,-4.817
2026-05-20 13:24:07.353,1166986809,330353,2,0.8689,0.05957,0.49414,-20.824,-82.084,55.275
2026-05-20 13:24:07.553,1166987009,330553,1,0.4939,-0.01904,0.60327,-9.366,-95.656,17.137
2026-05-20 13:24:07.553,1166987009,330553,2,0.86597,-0.06665,0.28174,-5.71,3.168,-4.603
2026-05-20 13:24:08.036,1166987492,331036,1,0.97803,-0.17554,0.51245,11.382,1.779,5.603
2026-05-20 13:24:08.036,1166987492,331036,2,1.11353,-0.06348,0.18311,18.237,-9.0,-0.557
2026-05-20 13:24:08.236,1166987692,331236,1,0.85254,-0.01245,0.65723,2.832,6.756,0.55
2026-05-20 13:24:08.236,1166987692,331236,2,1.02173,0.00098,0.20459,-0.947,0.466,0.16
2026-05-20 13:24:01.735,1166981191,324735,2,0.98145,-0.17065,0.23267,-5.992,-0.618,-6.168
2026-05-20 13:24:08.436,1166987892,331436,1,0.93042,-0.1106,0.60938,-11.672,6.069,-2.885
2026-05-20 13:24:08.436,1166987892,331436,2,1.03735,-0.10596,0.48755,31.817,9.611,13.87
2026-05-20 13:24:11.472,1166990928,334472,1,0.61938,0.02441,0.84888,-0.191,11.45,8.718
2026-05-20 13:24:11.472,1166990928,334472,2,0.76733,0.0979,0.36255,-12.053,7.351,-0.229
2026-05-20 13:24:11.672,1166991128,334672,1,0.67358,0.01416,0.9375,-10.55,-0.931,-9.74
2026-05-20 13:24:11.672,1166991128,334672,2,0.99365,-0.00708,0.55444,-3.947,-12.076,-0.573
2026-05-20 13:24:12.872,1166992328,334872,1,0.57202,0.02417,0.89551,-4.397,4.252,-5.29
2026-05-20 13:24:12.872,1166992328,334872,2,0.76318,0.08228,0.64429,3.351,-11.229,46.977
2026-05-20 13:24:13.138,1166992594,336137,1,0.26831,-0.2395,1.17261,-32.198,-35.695,10.687
2026-05-20 13:24:13.138,1166992594,336137,2,0.80518,0.11084,0.54785,-4.763,-32.855,27.924
2026-05-20 13:24:13.337,1166992793,336337,1,0.37061,-0.24023,0.93481,-4.969,-106.092,-4.084
2026-05-20 13:24:13.337,1166992793,336337,2,0.83545,-0.01611,0.29736,67.931,-73.618,44.191
2026-05-20 13:24:13.537,1166992993,336537,1,0.47461,-0.13794,0.50488,20.969,-132.702,-17.977
2026-05-20 13:24:13.537,1166992993,336537,2,0.98169,0.02441,0.20752,-36.855,-18.122,13.962
2026-05-20 13:24:13.737,1166993193,336737,1,1.1145,-0.16943,0.32324,-36.786,-17.45,-4.672
2026-05-20 13:24:13.737,1166993193,336737,2,0.97046,0.05908,0.31714,1.443,14.038,0.901
2026-05-20 13:24:14.937,1166994393,336937,1,0.9502,-0.12744,0.49487,-22.626,17.969,-19.145
2026-05-20 13:24:14.937,1166994393,336937,2,0.99536,-0.146,0.19556,-15.092,7.305,-8.863
2026-05-20 13:24:14.269,1166993725,337269,1,0.96484,-0.16357,0.49878,5.29,-4.473,5.916
2026-05-20 13:24:14.269,1166993725,337269,2,0.99634,-0.09424,0.2229,8.771,-6.458,4.198
2026-05-20 13:24:14.469,1166993925,337469,1,0.91895,-0.19434,0.51758,-21.275,16.29,-28.466
2026-05-20 13:24:14.469,1166993925,337469,2,1.00171,-0.13306,0.20605,-26.061,2.13,-4.481
2026-05-20 13:24:14.669,1166994125,337669,1,0.98633,-0.11426,0.47363,5.809,9.13,-12.435
2026-05-20 13:24:14.669,1166994125,337669,2,1.00659,-0.15137,0.21069,-9.321,4.786,-2.198
2026-05-20 13:24:15.869,1166995325,337869,1,0.91724,-0.02222,0.57349,4.252,-0.55,-2.718
2026-05-20 13:24:15.869,1166995325,337869,2,1.02124,-0.11084,0.23608,5.824,2.985,-3.878
2026-05-20 13:24:15.069,1166994525,338069,1,0.96533,-0.01709,0.51343,7.74,4.611,8.191
2026-05-20 13:24:15.069,1166994525,338069,2,0.97607,-0.11304,0.22485,6.916,9.809,-5.489
2026-05-20 13:24:15.269,1166994725,338269,1,0.81226,-0.04395,0.62329,10.557,30.031,10.206
2026-05-20 13:24:15.269,1166994725,338269,2,0.8938,-0.01245,0.24463,10.733,24.702,-26.046
2026-05-20 13:24:15.469,1166994925,338469,1,0.4585,0.021,0.57422,46.908,86.145,-2.275
2026-05-20 13:24:15.469,1166994925,338469,2,0.43091,0.08667,0.16187,26.473,46.053,-46.962
2026-05-20 13:24:15.669,1166995125,338669,1,0.5625,0.01758,0.8103,7.382,32.069,0.992
2026-05-20 13:24:15.669,1166995125,338669,2,0.8894,0.19824,0.44995,4.076,8.244,0.878
2026-05-20 13:24:18.704,1166998160,341704,1,0.50269,0.02002,1.0083,-8.977,4.74,-7.244
2026-05-20 13:24:18.704,1166998160,341704,2,0.86157,0.19971,0.44946,2.176,7.748,1.511
2026-05-20 13:24:19.904,1166999360,341904,1,0.49536,0.00928,1.00073,-7.191,5.74,-4.275
2026-05-20 13:24:19.904,1166999360,341904,2,0.85205,0.21313,0.45581,0.779,5.519,-2.29
2026-05-20 13:24:19.104,1166998560,342104,1,0.47119,0.00195,1.00757,-6.809,6.267,-5.802
2026-05-20 13:24:19.104,1166998560,342104,2,0.86475,0.17896,0.47046,-6.924,5.55,-3.389
2026-05-20 13:24:19.304,1166998760,342304,1,0.42603,-0.00928,1.03125,-3.977,7.153,-4.832
2026-05-20 13:24:19.304,1166998760,342304,2,0.8208,0.19067,0.50342,-4.656,2.885,-1.328
2026-05-20 13:24:19.504,1166998960,342504,1,0.42993,-0.02246,0.99243,3.244,6.733,8.687
2026-05-20 13:24:19.504,1166998960,342504,2,0.81396,0.21631,0.51147,2.695,-0.702,-8.733
2026-05-20 13:24:19.704,1166999160,342704,1,0.43335,-0.01416,1.06982,-4.84,10.74,-4.076
2026-05-20 13:24:19.704,1166999160,342704,2,0.82446,0.19727,0.50928,-10.901,6.794,-3.13
2026-05-20 13:24:20.904,1167000360,342904,1,0.41504,0.00269,1.02173,-3.489,1.481,0.115
2026-05-20 13:24:20.904,1167000360,342904,2,0.07617,0.53296,0.80078,12.412,43.153,-1.863
2026-05-20 13:24:22.693,1167002149,345693,1,-0.28149,0.23975,1.4873,-10.122,-6.397,27.321
2026-05-20 13:24:22.693,1167002149,345693,2,0.11792,0.62378,0.64771,11.122,-22.962,46.328
2026-05-20 13:24:23.893,1167003349,345893,1,-0.10083,0.1687,1.12866,-30.718,-119.969,25.427
2026-05-20 13:24:23.893,1167003349,345893,2,0.78076,0.17358,0.32983,-6.893,-137.626,111.153
2026-05-20 13:24:23.111,1167002567,346111,1,0.20337,0.1123,0.64771,-61.504,-155.87,2.588
2026-05-20 13:24:23.111,1167002567,346111,2,0.78027,0.09131,0.27197,-33.336,-96.389,89.496
2026-05-20 13:24:23.311,1167002767,346311,1,0.80591,-0.125,0.17847,-14.901,-89.405,-13.87
2026-05-20 13:24:23.311,1167002767,346311,2,1.02637,-0.04541,0.25342,-30.511,-61.496,47.336
2026-05-20 13:24:23.511,1167002967,346511,1,1.19727,-0.14624,0.17334,-14.71,-43.29,-6.153
2026-05-20 13:24:23.511,1167002967,346511,2,1.11401,-0.28101,0.04248,-0.137,-12.954,5.351
2026-05-20 13:24:24.970,1167004426,346970,1,1.0376,-0.12695,0.28345,-9.511,18.267,-6.855
2026-05-20 13:24:24.970,1167004426,346970,2,1.02002,-0.23486,0.05591,-4.58,10.718,-4.786
2026-05-20 13:24:24.170,1167003626,347170,1,1.08228,-0.14355,0.31348,1.275,21.183,0.656
2026-05-20 13:24:24.170,1167003626,347170,2,1.00195,-0.1958,0.14941,12.13,24.29,-10.656
2026-05-20 13:24:24.370,1167003826,347370,1,1.00806,-0.14087,0.37671,20.183,36.443,10.267
2026-05-20 13:24:24.370,1167003826,347370,2,0.97461,-0.08716,0.26392,46.328,29.496,-20.511
2026-05-20 13:24:24.570,1167004026,347570,1,0.88379,-0.10986,0.3042,25.092,90.351,4.061
2026-05-20 13:24:24.570,1167004026,347570,2,0.85767,-0.00366,0.32666,66.863,83.313,-64.107
2026-05-20 13:24:24.770,1167004226,347770,1,0.2937,0.09448,0.76855,39.42,138.87,35.313
2026-05-20 13:24:24.770,1167004226,347770,2,0.7439,0.30127,0.56323,14.015,92.885,-72.924
2026-05-20 13:24:25.970,1167005426,347970,1,-0.01099,-0.00024,0.98022,2.351,130.542,34.0
2026-05-20 13:24:25.970,1167005426,347970,2,0.10449,0.34253,0.56152,9.802,134.893,-69.718
2026-05-20 13:24:25.170,1167004626,348170,1,-0.65674,0.15259,1.23071,54.0,147.702,5.313
2026-05-20 13:24:25.170,1167004626,348170,2,0.57568,0.08179,0.45239,-65.603,-9.42,9.038
2026-05-20 13:24:25.370,1167004826,348370,1,-0.70703,0.0874,1.09204,-5.282,-98.45,-17.115
2026-05-20 13:24:25.370,1167004826,348370,2,0.12305,0.37598,0.78369,1.374,-117.145,35.664
2026-05-20 13:24:25.570,1167005026,348570,1,-0.20313,0.17896,0.96509,-8.42,-123.595,-12.42
2026-05-20 13:24:25.570,1167005026,348570,2,0.48071,0.27441,0.49512,-38.733,-141.504,54.366
2026-05-20 13:24:25.770,1167005226,348770,1,0.47729,0.13745,1.00586,-51.656,-154.794,-36.351
2026-05-20 13:24:25.770,1167005226,348770,2,0.89771,0.09253,0.42432,-11.229,-2.183,1.412
2026-05-20 13:24:32.913,1167012369,354913,1,0.74731,0.13843,0.77759,-16.84,1.832,0.137
2026-05-20 13:24:32.913,1167012369,354913,2,0.89941,0.14893,0.41113,-7.985,3.443,-1.626
2026-05-20 13:24:32.113,1167011569,355113,1,0.69263,0.05005,0.88672,6.954,7.244,-2.962
2026-05-20 13:24:32.113,1167011569,355113,2,0.89673,0.16943,0.42285,-1.13,-1.786,0.817
2026-05-20 13:24:32.313,1167011769,355313,1,0.69165,0.06006,0.88721,0.076,7.985,-1.611
2026-05-20 13:24:32.313,1167011769,355313,2,1.12305,-0.17871,-0.04053,-39.26,-11.29,21.015
2026-05-20 13:24:35.991,1167015447,357990,1,1.17896,-0.14355,0.0835,-31.908,-3.153,-14.71
2026-05-20 13:24:35.991,1167015447,357990,2,1.03296,-0.24512,0.03882,-36.504,-1.603,12.489
2026-05-20 13:24:35.190,1167014646,358190,1,1.16553,-0.09839,0.09741,-15.084,20.947,-3.855
2026-05-20 13:24:35.190,1167014646,358190,2,1.05176,-0.31055,0.00024,-10.038,26.595,-2.695
2026-05-20 13:24:38.992,1167018448,360991,1,0.62769,0.02588,0.91479,6.099,-2.756,2.214
2026-05-20 13:24:38.992,1167018448,360991,2,0.92554,0.1416,0.55298,-0.511,-0.176,1.565
2026-05-20 13:24:38.191,1167017647,361191,1,0.6543,0.09155,0.90527,4.718,-17.885,-21.214
2026-05-20 13:24:38.191,1167017647,361191,2,0.88843,0.1543,0.52368,32.267,12.069,-24.763
2026-05-20 13:24:38.391,1167017847,361391,1,0.96313,0.19385,1.04688,42.832,-21.374,-1.252
2026-05-20 13:24:38.391,1167017847,361391,2,0.76245,0.35815,0.61206,-40.969,56.481,14.885
2026-05-20 13:24:38.591,1167018047,361591,1,0.52734,0.104,0.96826,-3.252,5.656,11.588
2026-05-20 13:24:38.591,1167018047,361591,2,0.52246,0.07153,0.47852,4.588,-17.305,-1.076
2026-05-20 13:24:38.791,1167018247,361791,1,0.74414,0.06885,0.99976,-37.45,-25.046,26.832
2026-05-20 13:24:38.791,1167018247,361791,2,0.66455,0.17041,0.41602,9.145,-32.267,58.71
2026-05-20 13:24:39.991,1167019447,361991,1,0.71753,-0.16382,0.69116,-93.412,-96.863,17.061
2026-05-20 13:24:39.991,1167019447,361991,2,0.66479,0.33789,0.49121,-70.504,-75.435,116.206
2026-05-20 13:24:42.241,1167021697,365241,1,0.37085,0.1416,1.15332,-71.924,-133.695,25.252
2026-05-20 13:24:42.241,1167021697,365241,2,1.89258,0.34106,1.53198,-174.756,-74.504,77.084
2026-05-20 13:24:42.441,1167021897,365441,1,0.23828,-0.15527,0.55542,-67.366,38.809,-45.099
2026-05-20 13:24:42.441,1167021897,365441,2,0.36133,-0.13574,0.32324,-82.901,32.298,-14.206
2026-05-20 13:24:42.641,1167022097,365641,1,0.58374,-0.07739,1.20508,18.908,-15.962,-23.763
2026-05-20 13:24:42.641,1167022097,365641,2,1.22754,-0.31958,0.81323,-25.298,-50.198,17.237
2026-05-20 13:24:43.980,1167023436,365980,1,0.49805,-0.15869,0.9856,17.221,-20.122,30.29
2026-05-20 13:24:43.980,1167023436,365980,2,0.96802,-0.17212,0.50098,15.069,-34.756,16.466
2026-05-20 13:24:43.180,1167022636,366180,1,0.55981,-0.11694,0.93188,2.397,0.359,-2.733
2026-05-20 13:24:43.180,1167022636,366180,2,0.80273,-0.16797,0.39282,7.145,-15.687,-6.679
2026-05-20 13:24:43.380,1167022836,366380,1,0.56714,0.00244,0.98535,9.634,-8.687,0.214
2026-05-20 13:24:43.380,1167022836,366380,2,0.71802,-0.44409,0.35474,16.672,-5.885,-2.84
2026-05-20 13:24:46.816,1167026272,368816,1,0.72729,-0.33081,0.72021,17.916,-5.191,3.397
2026-05-20 13:24:46.816,1167026272,368816,2,0.75439,-0.48145,0.35547,-1.763,3.656,5.931
2026-05-20 13:24:46.016,1167025472,369016,1,0.74463,-0.36792,0.73096,9.42,-1.26,7.947
2026-05-20 13:24:46.016,1167025472,369016,2,0.80615,-0.48584,0.33765,1.656,-8.084,-0.466
2026-05-20 13:24:46.216,1167025672,369216,1,0.76807,-0.32739,0.72803,2.87,-7.008,-9.405
2026-05-20 13:24:46.216,1167025672,369216,2,0.9248,0.01807,0.27466,-76.412,1.847,-20.046
2026-05-20 13:24:49.903,1167029359,371903,1,0.76611,0.06934,0.75732,-20.817,-3.802,-36.092
2026-05-20 13:24:49.903,1167029359,371903,2,0.9375,-0.08325,0.40845,-49.71,3.115,-15.038
2026-05-20 13:24:49.103,1167028559,372103,1,0.7168,-0.06079,0.78906,-10.908,15.809,13.496
2026-05-20 13:24:49.103,1167028559,372103,2,0.95142,0.07251,0.38818,9.206,2.481,-0.305
2026-05-20 13:24:49.319,1167028775,372319,1,0.69873,-0.0708,0.90576,0.275,15.214,3.626
2026-05-20 13:24:49.319,1167028775,372319,2,0.90967,0.07861,0.38892,-7.092,10.008,-12.031
2026-05-20 13:24:49.519,1167028975,372519,1,0.64844,-0.03662,0.91235,-0.954,15.908,-9.489
2026-05-20 13:24:49.519,1167028975,372519,2,0.89502,0.03564,0.45581,-12.206,5.336,-5.046
2026-05-20 13:24:49.719,1167029175,372719,1,0.57935,-0.0603,0.94653,-2.389,5.786,2.466
2026-05-20 13:24:49.719,1167029175,372719,2,0.85718,0.06909,0.46094,-5.13,1.634,-0.153
2026-05-20 13:24:50.919,1167030375,372919,1,0.61011,-0.04907,0.93384,1.305,0.634,1.328
2026-05-20 13:24:50.919,1167030375,372919,2,0.89282,0.0498,0.45044,3.206,-1.863,2.687
2026-05-20 13:24:50.919,1167030375,372919,2,0.89282,0.0498,0.45044,3.206,-1.863,2.687
2026-05-20 13:24:58.058,1167037514,381058,1,0.70947,-0.00708,0.85767,-0.893,1.702,-0.687
2026-05-20 13:24:58.058,1167037514,381058,2,0.93945,-0.00122,0.34229,-5.0,-0.084,0.893
2026-05-20 13:24:58.258,1167037714,381258,1,0.73975,-0.04248,0.82788,-2.718,2.389,1.916
2026-05-20 13:24:58.258,1167037714,381258,2,0.95386,-0.01074,0.34131,-1.443,3.153,-1.053
2026-05-20 13:24:58.458,1167037914,381458,1,0.69629,-0.0083,0.84741,1.092,-1.046,1.702
2026-05-20 13:24:58.458,1167037914,381458,2,0.9353,-0.00464,0.35107,-4.069,0.672,0.809
2026-05-20 13:24:58.658,1167038114,381658,1,0.70313,-0.02661,0.8457,0.473,3.969,1.015
2026-05-20 13:24:58.658,1167038114,381658,2,0.93945,-0.01953,0.35034,0.87,1.42,0.176
2026-05-20 13:24:59.858,1167039314,381858,1,0.70654,-0.02002,0.85425,-0.779,1.023,0.038
2026-05-20 13:24:59.858,1167039314,381858,2,0.93164,-0.00146,0.36426,7.038,-0.809,2.26
2026-05-20 13:25:01.654,1167041110,384654,1,0.75049,-0.02368,0.82593,-1.58,1.458,0.191
2026-05-20 13:25:01.654,1167041110,384654,2,0.94287,0.01855,0.3479,-1.206,0.382,0.244
2026-05-20 13:25:04.686,1167044142,387686,1,0.73071,-0.0271,0.84009,-0.481,2.305,-0.702
2026-05-20 13:25:04.686,1167044142,387686,2,0.94946,0.01514,0.35449,-2.626,0.351,0.534
2026-05-20 13:25:05.886,1167045342,387886,1,0.72388,-0.02222,0.84302,-0.679,1.733,-0.115
2026-05-20 13:25:05.886,1167045342,387886,2,0.93774,0.01147,0.36328,-2.466,-0.038,0.664
2026-05-20 13:25:05.086,1167044542,388086,1,0.73413,-0.02612,0.83228,-0.458,1.947,-0.366
2026-05-20 13:25:05.086,1167044542,388086,2,0.9436,0.01196,0.35791,-1.076,0.649,0.489
2026-05-20 13:25:05.286,1167044742,388286,1,0.7207,-0.02783,0.84888,-0.832,1.496,-0.389
2026-05-20 13:25:05.286,1167044742,388286,2,0.94873,0.01367,0.35718,-1.771,0.29,0.748
2026-05-20 13:25:05.486,1167044942,388486,1,0.72974,-0.0249,0.83984,-0.779,1.107,-0.458
2026-05-20 13:25:05.486,1167044942,388486,2,0.94043,0.01685,0.34326,-0.26,0.397,0.718
2026-05-20 13:25:05.686,1167045142,388686,1,0.73096,-0.02734,0.84229,-0.313,2.282,-0.244
2026-05-20 13:25:05.686,1167045142,388686,2,0.94702,0.01416,0.36157,-1.206,0.328,0.618
2026-05-20 13:25:06.886,1167046342,388886,1,0.71851,-0.03564,0.84814,0.275,2.168,-1.031
2026-05-20 13:25:06.886,1167046342,388886,2,0.94189,0.01953,0.35352,-0.13,0.611,0.908
2026-05-20 13:25:06.086,1167045542,389086,1,0.72461,-0.03125,0.83911,-0.725,1.168,-0.16
2026-05-20 13:25:06.086,1167045542,389086,2,0.95068,0.00977,0.35669,-2.679,0.824,-0.374
2026-05-20 13:25:06.286,1167045742,389286,1,0.77197,-0.02734,0.87012,1.252,-1.786,-1.336
2026-05-20 13:25:06.286,1167045742,389286,2,0.94629,-0.00391,0.34253,3.137,2.832,-4.351
2026-05-20 13:25:06.486,1167045942,389486,1,0.72754,-0.00879,0.83252,-0.924,3.183,-1.252
2026-05-20 13:25:06.486,1167045942,389486,2,0.95825,0.09229,0.39355,27.305,4.649,-10.496
2026-05-20 13:25:06.686,1167046142,389686,1,0.70337,0.04834,0.84009,4.282,-5.855,7.931
2026-05-20 13:25:06.686,1167046142,389686,2,0.96216,0.08911,0.35181,-11.718,-2.366,3.634
2026-05-20 13:25:07.911,1167047367,389911,1,0.75537,-0.02954,0.79248,-7.206,-6.305,4.756
2026-05-20 13:25:07.911,1167047367,389911,2,0.9353,0.1123,0.36963,-13.847,0.321,-0.366
2026-05-20 13:25:07.111,1167046567,390111,1,0.73315,0.00171,0.8667,1.435,14.267,1.305
2026-05-20 13:25:07.111,1167046567,390111,2,0.94556,0.07568,0.35229,-5.885,14.603,-5.473
2026-05-20 13:25:07.311,1167046767,390311,1,0.67651,0.02222,0.85303,2.885,4.985,3.863
2026-05-20 13:25:07.311,1167046767,390311,2,0.86572,0.11963,0.42847,-0.832,6.725,-0.237
2026-05-20 13:25:10.362,1167049818,393362,1,0.72241,-0.03564,0.84448,-0.008,3.16,-1.893
2026-05-20 13:25:10.362,1167049818,393362,2,0.95459,0.00513,0.30615,-5.664,1.076,-0.137
2026-05-20 13:25:10.562,1167050018,393562,1,0.72656,-0.04785,0.84473,2.076,3.176,0.282
2026-05-20 13:25:10.562,1167050018,393562,2,0.95947,-0.0188,0.31494,-5.908,1.321,0.863
2026-05-20 13:25:10.762,1167050218,393762,1,0.72095,-0.05151,0.85278,1.702,2.702,-0.412
2026-05-20 13:25:10.762,1167050218,393762,2,0.95605,-0.0144,0.30396,-11.786,1.031,-0.405
2026-05-20 13:25:11.962,1167051418,393962,1,0.70898,-0.03345,0.85474,1.137,1.076,-1.145
2026-05-20 13:25:11.962,1167051418,393962,2,0.96387,-0.02417,0.31274,3.191,-0.137,0.305
2026-05-20 13:25:16.059,1167055515,399058,1,0.66504,-0.02148,0.89258,1.794,2.336,-0.893
2026-05-20 13:25:16.059,1167055515,399058,2,0.95239,0.00269,0.33325,-10.267,0.366,-0.076
2026-05-20 13:25:19.035,1167058491,402035,1,0.58765,-0.05347,0.94604,1.947,0.412,-1.58
2026-05-20 13:25:19.035,1167058491,402035,2,0.89575,0.09448,0.43286,-0.649,-0.183,1.153
2026-05-20 13:25:22.304,1167061760,405304,1,0.60083,-0.03076,0.93799,-1.069,1.29,-0.504
2026-05-20 13:25:22.304,1167061760,405304,2,0.9021,0.08911,0.42261,-1.366,0.626,0.443
2026-05-20 13:25:22.504,1167061960,405504,1,0.59766,-0.03198,0.93823,0.275,1.878,-0.107
2026-05-20 13:25:22.504,1167061960,405504,2,0.89917,0.09082,0.43262,-2.939,0.13,0.473
2026-05-20 13:25:22.704,1167062160,405704,1,0.59302,-0.02539,0.93945,0.244,1.679,-0.519
2026-05-20 13:25:22.704,1167062160,405704,2,0.90161,0.08398,0.41821,-0.969,0.26,0.748
2026-05-20 13:25:26.948,1167066404,408947,1,0.59033,-0.01855,0.94531,-0.496,1.107,-0.107
2026-05-20 13:25:26.948,1167066404,408947,2,0.91382,0.08545,0.42212,-0.763,0.389,0.847
2026-05-20 13:25:26.147,1167065603,409147,1,0.58911,-0.01318,0.93921,-1.092,1.336,-0.466
2026-05-20 13:25:26.147,1167065603,409147,2,0.90674,0.08862,0.41724,-2.527,0.298,0.489
2026-05-20 13:25:26.347,1167065803,409347,1,0.58643,-0.02344,0.94824,-0.29,0.771,-0.305
2026-05-20 13:25:26.347,1167065803,409347,2,0.90649,0.08496,0.40356,-5.427,-0.511,0.58
2026-05-20 13:25:26.547,1167066003,409547,1,0.5918,-0.00464,0.94751,0.443,2.076,-0.595
2026-05-20 13:25:26.547,1167066003,409547,2,0.91406,0.08765,0.40308,-10.107,0.298,0.496
2026-05-20 13:25:29.364,1167068820,412364,1,0.58374,-0.02197,0.94189,1.069,2.718,-1.481
2026-05-20 13:25:29.364,1167068820,412364,2,0.91431,0.0144,0.36841,-1.084,-3.878,-9.687
2026-05-20 13:25:34.768,1167074224,417768,1,0.70581,0.03149,0.88574,7.969,-5.626,-25.145
2026-05-20 13:25:34.768,1167074224,417768,2,0.87231,0.00854,0.37476,5.786,-15.046,0.435
2026-05-20 13:25:35.968,1167075424,417968,1,0.82129,0.26172,0.77588,0.16,-39.137,1.534
2026-05-20 13:25:35.968,1167075424,417968,2,0.93945,0.12329,0.26929,17.733,-12.351,14.656
2026-05-20 13:25:35.404,1167074860,418403,1,0.75366,0.04297,0.74292,8.603,-7.16,1.389
2026-05-20 13:25:35.404,1167074860,418403,2,0.93921,0.03174,0.30811,10.87,0.107,1.557
2026-05-20 13:25:35.603,1167075059,418603,1,0.80396,0.05786,0.7688,-6.496,9.153,1.076
2026-05-20 13:25:35.603,1167075059,418603,2,0.96289,0.02808,0.30859,3.374,4.565,-4.489
2026-05-20 13:25:35.803,1167075259,418803,1,0.81885,0.15088,0.73193,1.779,0.802,5.45
2026-05-20 13:25:35.803,1167075259,418803,2,0.9104,0.08643,0.32202,12.534,9.74,-2.992
2026-05-20 13:25:29.364,1167068820,412364,1,0.58374,-0.02197,0.94189,1.069,2.718,-1.481
2026-05-20 13:25:36.003,1167075459,419003,1,0.72656,0.08032,0.79077,-10.855,6.168,12.473
2026-05-20 13:25:36.003,1167075459,419003,2,0.83228,0.03931,0.28955,33.229,3.504,-10.664
2026-05-20 13:25:39.025,1167078481,422025,1,0.7644,0.09326,0.94092,4.634,10.916,-5.237
2026-05-20 13:25:39.025,1167078481,422025,2,0.97559,0.19653,0.28394,-0.344,-1.947,14.779
2026-05-20 13:25:39.225,1167078681,422225,1,0.73462,-0.20313,0.6106,-7.099,14.008,-30.847
2026-05-20 13:25:39.225,1167078681,422225,2,0.7627,-0.06348,0.3479,-47.649,-0.832,-20.794
2026-05-20 13:25:39.425,1167078881,422425,1,0.89624,-0.06274,0.79321,0.84,-7.282,11.55
2026-05-20 13:25:39.425,1167078881,422425,2,1.00366,-0.15356,0.43213,26.237,4.603,13.496
2026-05-20 13:25:42.548,1167082004,425548,1,1.99994,-0.10449,1.29712,-36.069,-47.107,-3.656
2026-05-20 13:25:42.548,1167082004,425548,2,0.39819,-0.11719,0.04785,-16.534,1.137,6.412
2026-05-20 13:25:43.827,1167083283,425827,1,0.49927,-0.02759,0.78662,-12.718,-23.267,11.84
2026-05-20 13:25:43.827,1167083283,425827,2,1.24268,0.03638,0.74951,-6.817,-54.466,36.252
2026-05-20 13:25:43.027,1167082483,426027,1,0.57104,0.01563,0.72192,2.107,31.0,-0.099
2026-05-20 13:25:43.027,1167082483,426027,2,0.59326,0.10986,0.23877,32.954,14.26,-20.275
2026-05-20 13:25:43.227,1167082683,426227,1,0.85522,0.0376,0.95923,-4.046,-16.443,-2.847
2026-05-20 13:25:43.227,1167082683,426227,2,0.8562,0.09424,0.49341,-10.664,-0.962,0.885
2026-05-20 13:25:46.303,1167085759,429303,1,0.64771,-0.02808,0.90869,1.718,1.229,0.038
2026-05-20 13:25:46.303,1167085759,429303,2,0.85791,0.08765,0.50879,-4.282,-1.527,0.924
2026-05-20 13:25:46.503,1167085959,429503,1,0.63672,0.00977,0.86572,1.191,7.389,-2.229
2026-05-20 13:25:46.503,1167085959,429503,2,0.83936,0.12915,0.47632,-7.382,5.206,-7.504
2026-05-20 13:25:46.703,1167086159,429703,1,0.71973,-0.09375,0.90649,-12.305,-14.374,10.099
2026-05-20 13:25:46.703,1167086159,429703,2,0.85425,0.00806,0.59961,-1.481,11.061,2.679
2026-05-20 13:25:47.977,1167087433,429977,1,0.68066,-0.1228,0.87158,8.42,3.916,-2.763
2026-05-20 13:25:47.977,1167087433,429977,2,0.71558,0.22241,0.4939,64.496,64.695,-36.405
2026-05-20 13:25:50.832,1167090288,432832,1,0.70337,-0.04199,0.78564,28.137,96.954,25.87
2026-05-20 13:25:50.832,1167090288,432832,2,0.89746,0.10767,0.40015,2.374,-1.595,2.206
2026-05-20 13:25:53.894,1167093350,435894,1,0.72217,-0.03076,0.85913,1.618,1.939,-0.046
2026-05-20 13:25:53.894,1167093350,435894,2,0.93774,0.12012,0.39868,1.588,-0.267,1.374
2026-05-20 13:25:53.094,1167092550,436094,1,0.71069,-0.0354,0.84692,-0.267,2.672,-0.595
2026-05-20 13:25:53.094,1167092550,436094,2,0.91992,0.11206,0.37402,1.626,0.191,-0.366
2026-05-20 13:25:53.294,1167092750,436294,1,0.73071,-0.02734,0.84473,-1.824,2.565,-0.595
2026-05-20 13:25:53.294,1167092750,436294,2,0.9563,0.17236,0.40649,13.382,9.985,-6.061
2026-05-20 13:25:58.391,1167097847,441391,1,1.17993,-0.30127,0.85083,-119.153,-34.947,90.924
2026-05-20 13:25:58.391,1167097847,441391,2,0.83594,-0.3562,0.09521,44.344,51.756,21.565
2026-05-20 13:25:58.591,1167098047,441591,1,0.88574,-0.47339,0.58276,-74.053,8.29,-10.221
2026-05-20 13:25:58.591,1167098047,441591,2,0.74121,-0.62598,0.34692,-13.756,16.389,-4.153
2026-05-20 13:25:59.820,1167099276,441820,1,0.82153,-0.41479,0.62671,-10.008,8.084,3.55
2026-05-20 13:25:59.820,1167099276,441820,2,0.7334,-0.58398,0.35693,16.298,3.664,-1.893
2026-05-20 13:25:59.020,1167098476,442020,1,0.8252,-0.34302,0.68481,16.534,4.656,1.74
2026-05-20 13:25:59.020,1167098476,442020,2,0.81812,-0.45728,0.33691,24.252,-10.481,-7.618
2026-05-20 13:25:59.220,1167098676,442220,1,0.81226,-0.31079,0.69995,-2.29,1.55,-8.26
2026-05-20 13:25:59.220,1167098676,442220,2,0.73218,-0.65088,0.30981,21.435,-10.13,-2.893
2026-05-20 13:26:05.181,1167104637,448181,1,0.83398,-0.37646,0.60303,4.221,-15.145,8.992
2026-05-20 13:26:05.181,1167104637,448181,2,0.82642,-0.53564,0.28809,-8.527,-1.527,8.237
2026-05-20 13:26:08.267,1167107723,451267,1,0.90527,-0.49854,0.37842,-1.061,-1.664,1.344
2026-05-20 13:26:08.267,1167107723,451267,2,0.77441,-0.59058,0.24854,2.084,1.038,0.725
2026-05-20 13:26:08.467,1167107923,451467,1,0.8916,-0.50146,0.36646,-0.282,4.702,-3.153
2026-05-20 13:26:08.467,1167107923,451467,2,0.78247,-0.59814,0.26929,-6.275,5.29,0.87
2026-05-20 13:26:08.667,1167108123,451667,1,0.89844,-0.4939,0.40137,4.542,1.947,-0.641
2026-05-20 13:26:08.667,1167108123,451667,2,0.78003,-0.59424,0.24854,0.557,-2.26,0.427
2026-05-20 13:26:11.788,1167111244,454788,1,0.88403,-0.46851,0.43311,-14.252,-1.908,0.794
2026-05-20 13:26:11.788,1167111244,454788,2,0.77612,-0.58813,0.2749,-5.802,9.458,1.672
2026-05-20 13:26:14.343,1167113799,457343,1,0.88818,-0.45972,0.46338,-4.511,3.664,-1.198
2026-05-20 13:26:14.343,1167113799,457343,2,0.76978,-0.59888,0.2522,-4.847,3.023,1.176
2026-05-20 13:26:14.543,1167113999,457543,1,0.87988,-0.46851,0.42529,1.641,-0.122,1.908
2026-05-20 13:26:14.543,1167113999,457543,2,0.78247,-0.60083,0.25562,-0.382,1.985,0.168
2026-05-20 13:26:14.743,1167114199,457743,1,0.88086,-0.45044,0.47217,2.061,1.794,-4.542
2026-05-20 13:26:14.743,1167114199,457743,2,0.77417,-0.58911,0.28345,-3.885,-0.008,2.603
2026-05-20 13:26:15.943,1167115399,457943,1,0.87036,-0.45288,0.45654,1.893,-2.153,-1.954
2026-05-20 13:26:15.943,1167115399,457943,2,0.77026,-0.59399,0.24927,0.87,-2.344,1.443
2026-05-20 13:26:15.143,1167114599,458143,1,0.90308,-0.44043,0.42725,-3.328,0.557,-2.878
2026-05-20 13:26:15.143,1167114599,458143,2,0.77808,-0.604,0.23193,-0.252,-0.29,0.679
2026-05-20 13:26:15.343,1167114799,458343,1,0.90601,-0.44531,0.42603,3.305,2.542,-1.519
2026-05-20 13:26:15.343,1167114799,458343,2,0.77637,-0.59277,0.24854,-0.962,3.29,-0.519
2026-05-20 13:26:15.543,1167114999,458543,1,0.90552,-0.42822,0.44531,3.908,1.603,-2.397
2026-05-20 13:26:15.543,1167114999,458543,2,0.77637,-0.59546,0.24487,-0.557,2.031,-4.198
2026-05-20 13:26:15.743,1167115199,458743,1,0.91846,-0.38184,0.5105,3.153,-3.13,3.84
2026-05-20 13:26:15.743,1167115199,458743,2,0.77759,-0.57813,0.25439,-8.557,3.641,-7.405
2026-05-20 13:26:16.943,1167116399,458943,1,0.90601,-0.41846,0.45776,5.443,1.672,2.397
2026-05-20 13:26:16.943,1167116399,458943,2,0.80664,-0.57129,0.26147,-1.924,-0.527,-1.649
2026-05-20 13:26:16.195,1167115651,459195,1,0.90356,-0.42065,0.47534,16.069,7.603,-1.069
2026-05-20 13:26:16.195,1167115651,459195,2,0.79907,-0.57373,0.24268,0.557,0.87,-1.58
2026-05-20 13:26:16.395,1167115851,459395,1,0.86108,-0.34375,0.56348,19.626,8.282,-1.885
2026-05-20 13:26:16.395,1167115851,459395,2,0.80884,-0.53052,0.27271,17.954,0.733,2.153
2026-05-20 13:26:16.595,1167116051,459595,1,0.88062,-0.3623,0.56201,4.115,1.534,-0.565
2026-05-20 13:26:16.595,1167116051,459595,2,0.77783,-0.57153,0.28955,2.328,-2.26,1.008
2026-05-20 13:26:16.795,1167116251,459795,1,0.87817,-0.3728,0.55396,-0.611,0.374,-0.298
2026-05-20 13:26:16.795,1167116251,459795,2,0.80591,-0.55811,0.26978,4.595,-7.42,-1.328
2026-05-20 13:26:17.995,1167117451,459995,1,0.87476,-0.36011,0.53271,1.893,3.542,2.977
2026-05-20 13:26:17.995,1167117451,459995,2,0.83643,-0.52881,0.22754,-1.252,-1.191,-4.282
2026-05-20 13:26:17.196,1167116652,460196,1,0.86401,-0.33423,0.57813,-0.832,3.084,1.389
2026-05-20 13:26:17.196,1167116652,460196,2,0.83862,-0.52563,0.23682,-1.985,0.672,-0.534
2026-05-20 13:26:17.396,1167116852,460396,1,0.86084,-0.33643,0.58838,-6.618,0.74,-1.802
2026-05-20 13:26:17.396,1167116852,460396,2,0.82666,-0.54248,0.24805,-5.519,3.443,3.481
2026-05-20 13:26:17.596,1167117052,460596,1,0.86621,-0.39502,0.52783,-25.878,-3.389,-5.198
2026-05-20 13:26:17.596,1167117052,460596,2,0.8042,-0.52979,0.24243,-7.351,7.763,7.87
2026-05-20 13:26:17.796,1167117252,460796,1,0.8938,-0.5127,0.39258,-36.534,-4.687,-5.527
2026-05-20 13:26:17.796,1167117252,460796,2,0.79126,-0.60156,0.2478,13.328,1.244,1.992
2026-05-20 13:26:18.996,1167118452,460996,1,0.87451,-0.43481,0.48438,7.282,2.511,-4.58
2026-05-20 13:26:18.996,1167118452,460996,2,0.77686,-0.56519,0.26514,0.198,0.321,2.282
2026-05-20 13:26:18.196,1167117652,461196,1,0.8689,-0.43042,0.50903,3.0,-0.74,-7.0
2026-05-20 13:26:18.196,1167117652,461196,2,0.80835,-0.57227,0.21729,-2.29,-1.191,-0.504
2026-05-20 13:26:21.997,1167121453,463997,1,0.91919,-0.37231,0.46118,7.45,3.13,0.893
2026-05-20 13:26:21.997,1167121453,463997,2,0.81543,-0.57104,0.2041,-1.015,-2.382,-1.45
2026-05-20 13:26:21.197,1167120653,464197,1,0.90137,-0.35742,0.48242,2.634,3.275,1.305
2026-05-20 13:26:21.197,1167120653,464197,2,0.8147,-0.54883,0.1853,-7.557,1.611,-1.176
2026-05-20 13:26:21.407,1167120863,464407,1,0.90674,-0.37988,0.49292,1.015,1.626,-1.489
2026-05-20 13:26:21.407,1167120863,464407,2,0.81641,-0.57275,0.20068,-1.565,2.053,0.412
2026-05-20 13:26:21.607,1167121063,464607,1,0.91064,-0.35449,0.49121,-1.779,1.397,-3.397
2026-05-20 13:26:21.607,1167121063,464607,2,0.81323,-0.57227,0.1936,-3.244,1.565,1.794
2026-05-20 13:26:21.807,1167121263,464807,1,0.92432,-0.34937,0.48486,-1.641,-1.16,-3.176
2026-05-20 13:26:21.807,1167121263,464807,2,0.8186,-0.59399,0.19214,-2.84,1.71,1.618
2026-05-20 14:15:05.287,1170044743,8287,1,-0.30811,0.53418,-0.67163,-0.458,1.298,-0.382
2026-05-20 14:15:05.287,1170044743,8287,2,0.45996,0.43896,-0.85303,-0.954,1.046,0.443
2026-05-20 14:15:05.487,1170044943,8487,1,-0.31274,0.54004,-0.67261,-0.389,1.198,-0.328
2026-05-20 14:15:05.487,1170044943,8487,2,0.46094,0.4248,-0.86304,-1.695,0.321,0.229
2026-05-20 14:15:05.687,1170045143,8687,1,-0.31421,0.54199,-0.66919,-0.344,1.366,-0.313
2026-05-20 14:15:05.687,1170045143,8687,2,0.46069,0.43652,-0.85596,-1.374,0.237,0.565
2026-05-20 14:15:06.887,1170046343,8887,1,-0.31177,0.54321,-0.66772,-0.389,1.389,-0.321
2026-05-20 14:15:06.887,1170046343,8887,2,0.46606,0.4292,-0.85352,-1.145,0.55,0.466
2026-05-20 14:15:06.087,1170045543,9087,1,-0.31689,0.54028,-0.67017,-0.13,1.145,-0.435
2026-05-20 14:15:06.087,1170045543,9087,2,0.46704,0.43677,-0.85571,-0.679,0.924,0.534
2026-05-20 14:15:06.287,1170045743,9287,1,-0.31177,0.54297,-0.67627,-0.473,1.183,-0.389
2026-05-20 14:15:06.287,1170045743,9287,2,0.45703,0.43359,-0.86377,-1.748,0.076,0.382
2026-05-20 14:15:06.487,1170045943,9487,1,-0.31372,0.53809,-0.66748,-0.145,1.145,-0.374
2026-05-20 14:15:06.487,1170045943,9487,2,0.46313,0.43506,-0.85352,-1.0,0.489,0.534
2026-05-20 14:15:06.687,1170046143,9687,1,-0.3147,0.54224,-0.6709,-0.137,1.061,-0.282
2026-05-20 14:15:06.687,1170046143,9687,2,0.45898,0.42944,-0.85107,-1.863,0.046,0.29
2026-05-20 14:15:07.887,1170047343,9887,1,-0.3103,0.53784,-0.66919,-0.267,1.153,-0.496
2026-05-20 14:15:07.887,1170047343,9887,2,0.46094,0.43286,-0.8501,-1.74,0.084,0.511
2026-05-20 14:15:07.087,1170046543,10087,1,-0.33057,0.56055,-0.66406,2.695,-3.298,-1.183
2026-05-20 14:15:07.087,1170046543,10087,2,0.45581,0.42944,-0.84033,-0.389,1.305,0.908
2026-05-20 14:15:07.306,1170046762,10306,1,-0.31348,0.5271,-0.68066,-1.359,1.763,-0.183
2026-05-20 14:15:07.306,1170046762,10306,2,0.45947,0.42578,-0.85571,0.344,1.489,1.336
2026-05-20 14:22:31.744,1170491200,6744,1,0.85767,-0.23389,0.49243,35.13,-8.321,22.618
2026-05-20 14:22:31.744,1170491200,6744,2,1.19043,0.04248,0.02197,55.336,-19.084,-24.458
2026-05-20 14:22:31.944,1170491400,6944,1,0.87573,0.06738,0.50024,27.176,43.527,-6.344
2026-05-20 14:22:31.944,1170491400,6944,2,1.24805,-0.00806,0.10181,-0.901,-7.137,45.015
2026-05-20 14:22:31.148,1170490604,7148,1,0.93286,-0.14722,0.53833,-0.42,25.076,6.603
2026-05-20 14:22:31.148,1170490604,7148,2,1.07813,-0.08887,0.04761,20.443,-16.046,-16.71
2026-05-20 14:22:31.348,1170490804,7348,1,0.81445,-0.13159,0.58008,33.817,6.954,12.908
2026-05-20 14:22:31.348,1170490804,7348,2,0.96753,-0.04468,-0.06445,-6.321,-30.71,-15.832
2026-05-20 14:22:31.548,1170491004,7548,1,0.94751,0.00586,0.57275,5.466,-10.16,-24.695
2026-05-20 14:22:31.548,1170491004,7548,2,1.03784,-0.03247,0.09521,-10.16,5.336,-0.076
2026-05-20 14:22:32.754,1170492210,7754,1,0.89844,-0.10693,0.573,-7.099,3.168,-6.031
2026-05-20 14:22:32.754,1170492210,7754,2,1.02002,-0.06128,-0.07617,-14.168,-27.656,-19.504
2026-05-20 14:22:32.954,1170492410,7954,1,0.95605,0.03638,0.5083,-12.916,2.611,-58.046
2026-05-20 14:22:32.954,1170492410,7954,2,1.12524,0.05688,-0.06348,-36.031,-45.45,-19.832
2026-05-20 14:22:32.154,1170491610,8154,1,0.8645,0.18726,0.52734,-42.588,-1.26,-42.344
2026-05-20 14:22:32.154,1170491610,8154,2,0.98804,0.07056,-0.05371,-40.137,-0.13,4.206
2026-05-20 14:22:32.354,1170491810,8354,1,0.91016,0.16797,0.56006,-25.305,-4.298,-13.16
2026-05-20 14:22:32.354,1170491810,8354,2,1.05029,0.0293,-0.11255,-1.924,9.275,15.45
2026-05-20 14:22:32.554,1170492010,8554,1,0.9458,0.25366,0.53076,7.237,-1.672,12.206
2026-05-20 14:22:32.554,1170492010,8554,2,1.00562,0.0625,-0.11377,7.985,4.336,14.321
2026-05-20 14:22:33.754,1170493210,8754,1,0.90308,0.16943,0.53003,2.359,-1.863,10.046
2026-05-20 14:22:33.754,1170493210,8754,2,1.13208,-0.05322,0.02148,0.718,-13.565,6.229
2026-05-20 14:22:33.968,1170493424,8967,1,0.89282,0.04785,0.47632,22.046,8.748,19.015
2026-05-20 14:22:33.968,1170493424,8967,2,1.06274,-0.04297,-0.14551,-3.267,-27.481,-19.458
2026-05-20 14:22:33.167,1170492623,9167,1,1.01074,0.1272,0.4646,16.847,-4.145,-5.214
2026-05-20 14:22:33.167,1170492623,9167,2,1.02002,-0.03931,-0.04565,23.771,8.786,16.817
2026-05-20 14:22:33.367,1170492823,9367,1,0.92334,0.07764,0.44775,4.664,-0.214,22.687
2026-05-20 14:22:33.367,1170492823,9367,2,1.36157,0.02954,-0.08447,2.176,-11.145,3.725
2026-05-20 14:22:33.567,1170493023,9567,1,1.00659,-0.09009,0.44922,-13.969,50.191,7.519
2026-05-20 14:22:33.567,1170493023,9567,2,0.88867,-0.28857,-0.01416,22.962,45.382,-6.863
2026-05-20 14:22:34.861,1170494317,9861,1,0.83472,-0.19897,0.59863,109.137,-19.855,77.878
2026-05-20 14:22:34.861,1170494317,9861,2,0.98901,-0.05469,-0.03882,215.664,25.435,47.16
2026-05-20 14:22:34.061,1170493517,10061,1,1.07324,-0.03271,0.58179,102.168,-23.107,74.221
2026-05-20 14:22:34.061,1170493517,10061,2,1.09302,-0.18726,0.06812,47.847,24.328,-95.092
2026-05-20 14:22:34.288,1170493744,10288,1,1.14502,-0.09131,0.49341,-16.053,15.794,-23.183
2026-05-20 14:22:34.288,1170493744,10288,2,1.12061,0.02051,-0.05103,-53.496,-11.534,-13.504
2026-05-20 14:22:34.488,1170493944,10488,1,0.90405,0.13916,0.47925,-58.16,24.412,-40.473
2026-05-20 14:22:34.488,1170493944,10488,2,0.95801,0.07275,-0.09229,-86.588,35.931,-15.832
2026-05-20 14:22:34.688,1170494144,10688,1,1.28491,-0.21118,0.41675,-102.237,25.626,-86.733
2026-05-20 14:22:34.688,1170494144,10688,2,1.00171,0.06738,-0.0686,-136.466,-4.649,18.756
2026-05-20 14:22:35.902,1170495358,10902,1,0.96631,-0.31934,0.48657,-164.71,22.634,-68.374
2026-05-20 14:22:35.902,1170495358,10902,2,1.12207,-0.43213,-0.15015,-250.137,-14.802,-22.809
2026-05-20 14:22:35.102,1170494558,11102,1,0.90356,-0.41211,0.46069,-69.679,14.931,-39.611
2026-05-20 14:22:35.102,1170494558,11102,2,0.96899,-0.479,-0.07129,-46.458,19.664,26.282
2026-05-20 14:22:35.302,1170494758,11302,1,0.9248,-0.41479,0.44336,-24.153,-8.321,-11.405
2026-05-20 14:22:35.302,1170494758,11302,2,1.01807,-0.31885,-0.03662,-45.366,-2.214,-14.344
2026-05-20 14:22:35.502,1170494958,11502,1,1.1582,-0.41064,0.48584,-28.183,-6.473,-13.519
2026-05-20 14:22:35.502,1170494958,11502,2,0.94775,-0.1355,0.04395,22.137,32.55,-21.115
2026-05-20 14:22:35.702,1170495158,11702,1,0.92139,-0.23682,0.52026,-11.519,-6.29,-9.42
2026-05-20 14:22:35.702,1170495158,11702,2,1.05688,-0.15845,0.11816,-4.237,-19.595,8.198
2026-05-20 14:22:41.807,1170501263,16806,1,1.03223,-0.08594,0.25513,21.298,38.221,2.985
2026-05-20 14:22:41.807,1170501263,16806,2,1.00708,-0.27441,-0.14844,26.573,1.252,-10.015
2026-05-20 14:22:41.006,1170500462,17006,1,0.89795,-0.104,0.43628,-1.542,22.626,2.748
2026-05-20 14:22:41.006,1170500462,17006,2,0.99341,-0.19556,-0.11279,-7.405,5.878,-11.0
2026-05-20 14:22:41.282,1170500738,17282,1,1.09204,-0.12964,0.35474,-8.008,-6.504,-1.977
2026-05-20 14:22:41.282,1170500738,17282,2,1.13647,-0.16968,-0.04736,-6.405,-20.328,-0.214
2026-05-20 14:22:41.482,1170500938,17482,1,1.02539,-0.16846,0.43677,8.023,48.573,6.244
2026-05-20 14:22:41.482,1170500938,17482,2,0.99536,-0.15259,-0.03931,1.817,47.275,-41.557
2026-05-20 14:22:41.682,1170501138,17682,1,0.67334,-0.13013,0.75439,38.595,24.985,22.71
2026-05-20 14:22:41.682,1170501138,17682,2,1.01318,-0.01392,0.00464,31.664,-14.901,0.863
2026-05-20 14:22:42.070,1170501526,18070,1,0.99512,-0.09204,0.49487,-8.29,-29.176,-16.183
2026-05-20 14:22:42.070,1170501526,18070,2,1.03491,-0.07935,-0.03345,-26.412,-20.71,3.069
2026-05-20 14:22:42.270,1170501726,18270,1,1.05908,-0.06445,0.42822,-4.504,-2.038,-0.756
2026-05-20 14:22:42.270,1170501726,18270,2,1.03711,-0.11353,-0.06519,-2.397,-21.916,19.359
2026-05-20 14:22:42.470,1170501926,18470,1,1.01196,-0.12231,0.41333,-6.527,-2.115,1.595
2026-05-20 14:22:42.470,1170501926,18470,2,1.04395,-0.14014,-0.07617,26.588,2.359,-9.641
2026-05-20 14:22:42.672,1170502128,18672,1,0.91162,-0.09863,0.47559,-4.481,13.252,-1.061
2026-05-20 14:22:42.672,1170502128,18672,2,1.02148,-0.13672,-0.12671,-12.878,4.687,2.557
2026-05-20 14:22:43.872,1170503328,18872,1,1.01709,-0.1167,0.45972,-14.641,1.023,-4.756
2026-05-20 14:22:43.872,1170503328,18872,2,1.04321,-0.10718,-0.09863,-7.618,-9.672,1.466
2026-05-20 14:22:43.072,1170502528,19072,1,0.96777,-0.10596,0.44971,-2.313,-6.137,-3.504
2026-05-20 14:22:43.072,1170502528,19072,2,1.01953,-0.13965,-0.10327,-0.359,-2.031,-0.221
2026-05-20 14:22:43.272,1170502728,19272,1,1.01099,-0.10864,0.42334,0.038,-1.885,-3.405
2026-05-20 14:22:43.272,1170502728,19272,2,1.03638,-0.13062,-0.05933,-0.878,4.504,2.924
2026-05-20 14:22:43.501,1170502957,19501,1,1.01172,-0.06763,0.45337,0.527,5.634,-3.992
2026-05-20 14:22:43.501,1170502957,19501,2,1.03027,-0.06836,-0.0791,-14.916,-1.397,-2.695
2026-05-20 14:22:43.701,1170503157,19701,1,1.01123,0.01514,0.40576,-19.992,18.748,-8.473
2026-05-20 14:22:43.701,1170503157,19701,2,1.03662,-0.1145,-0.19971,-58.038,-18.618,3.435
2026-05-20 14:22:44.901,1170504357,19901,1,0.97876,-0.13818,0.44092,-30.947,-12.649,-6.527
2026-05-20 14:22:44.901,1170504357,19901,2,1.02344,-0.19385,-0.09253,-11.786,-3.664,25.71
2026-05-20 14:22:44.101,1170503557,20101,1,0.9812,-0.17554,0.43164,4.176,-2.565,8.626
2026-05-20 14:22:44.101,1170503557,20101,2,1.03638,-0.20386,-0.11011,12.351,-1.534,-0.237
2026-05-20 14:22:44.301,1170503757,20301,1,0.95361,-0.14404,0.45557,11.504,8.267,3.16
2026-05-20 14:22:44.301,1170503757,20301,2,0.99316,-0.16455,-0.1167,1.313,8.893,-3.74
2026-05-20 14:22:44.501,1170503957,20501,1,0.98633,-0.0874,0.51416,-2.763,18.023,-12.168
2026-05-20 14:22:44.501,1170503957,20501,2,1.02466,-0.18042,-0.11084,8.145,-7.13,-1.191
2026-05-20 14:22:44.701,1170504157,20701,1,0.96216,-0.05981,0.50537,8.115,0.206,3.076
2026-05-20 14:22:44.701,1170504157,20701,2,1.01343,-0.1499,-0.13208,4.565,-8.656,11.351
2026-05-20 14:22:45.901,1170505357,20901,1,0.98706,-0.0769,0.5127,-8.275,8.565,-2.229
2026-05-20 14:22:45.901,1170505357,20901,2,1.02612,-0.19409,-0.05884,-7.038,14.58,-1.832
2026-05-20 14:22:45.101,1170504557,21101,1,0.96265,-0.14819,0.49438,-11.992,18.305,-3.214
2026-05-20 14:22:45.101,1170504557,21101,2,0.99756,-0.20703,-0.10522,-1.198,18.252,-16.969
2026-05-20 14:22:45.301,1170504757,21301,1,0.90796,-0.22021,0.63867,1.679,23.725,-2.412
2026-05-20 14:22:45.301,1170504757,21301,2,0.98853,-0.19727,-0.06445,0.519,19.977,-15.802
2026-05-20 14:22:45.501,1170504957,21501,1,0.93091,-0.25732,0.7002,-20.695,-18.756,0.145
2026-05-20 14:22:45.501,1170504957,21501,2,0.98315,-0.14111,-0.04736,27.893,23.023,-0.29
2026-05-20 14:22:45.701,1170505157,21701,1,0.97437,-0.05518,0.55542,10.336,-12.542,1.588
2026-05-20 14:22:45.701,1170505157,21701,2,1.05469,-0.13599,0.02051,18.282,-6.771,11.87
2026-05-20 14:22:46.901,1170506357,21901,1,0.93774,-0.09814,0.55811,18.328,5.679,4.756
2026-05-20 14:22:46.901,1170506357,21901,2,1.02441,-0.14453,-0.07129,17.107,1.679,-6.855
2026-05-20 14:22:46.101,1170505557,22101,1,0.94141,-0.03394,0.56958,19.756,3.412,6.336
2026-05-20 14:22:46.101,1170505557,22101,2,1.02637,-0.12598,-0.06055,19.786,4.824,-2.565
2026-05-20 14:22:46.301,1170505757,22301,1,0.92627,-0.03735,0.5752,8.618,1.641,-0.107
2026-05-20 14:22:46.301,1170505757,22301,2,1.01953,-0.13037,-0.06689,2.954,-0.176,-0.099
2026-05-20 14:22:46.501,1170505957,22501,1,0.93579,-0.03882,0.56934,-2.366,-0.947,-0.771
2026-05-20 14:22:46.501,1170505957,22501,2,1.02295,-0.12134,-0.07104,-6.0,-7.756,7.153
2026-05-20 14:22:46.731,1170506187,22731,1,0.94067,-0.0603,0.56958,-5.191,-5.931,-1.244
2026-05-20 14:22:46.731,1170506187,22731,2,1.0144,-0.14404,-0.07471,-12.282,-3.847,5.908
2026-05-20 14:22:47.931,1170507387,22931,1,0.94067,-0.04932,0.51953,-13.878,-7.672,-5.366
2026-05-20 14:22:47.931,1170507387,22931,2,1.00049,-0.14941,-0.0791,-24.0,4.275,3.992
2026-05-20 14:22:47.131,1170506587,23131,1,0.98267,-0.052,0.4873,-30.374,-9.443,-15.573
2026-05-20 14:22:47.131,1170506587,23131,2,1.06152,-0.15894,-0.052,-48.336,9.275,-5.679
2026-05-20 14:22:47.331,1170506787,23331,1,0.97119,-0.09399,0.46094,-50.046,-0.725,-22.031
2026-05-20 14:22:47.331,1170506787,23331,2,1.00757,-0.23828,-0.09229,-28.916,-1.824,13.504
2026-05-20 14:22:47.531,1170506987,23531,1,1.00269,-0.12549,0.45288,-14.504,-0.733,-3.672
2026-05-20 14:22:47.531,1170506987,23531,2,1.00879,-0.24487,-0.07495,-5.832,0.718,4.374
2026-05-20 14:22:47.731,1170507187,23731,1,0.99243,-0.11157,0.45117,7.298,3.748,8.832
2026-05-20 14:22:47.731,1170507187,23731,2,1.0083,-0.23779,-0.09009,16.382,-1.29,-0.969
2026-05-20 14:22:48.931,1170508387,23931,1,0.96973,-0.12085,0.4729,15.863,5.221,11.962
2026-05-20 14:22:48.931,1170508387,23931,2,1.02026,-0.23315,-0.07227,8.962,8.053,-8.137
2026-05-20 14:22:48.131,1170507587,24131,1,0.96875,-0.13135,0.48218,14.443,3.366,9.191
2026-05-20 14:22:48.131,1170507587,24131,2,1.02319,-0.19165,-0.08691,9.58,-3.145,-2.71
2026-05-20 14:22:48.331,1170507787,24331,1,0.96509,-0.1189,0.48657,6.031,1.191,2.817
2026-05-20 14:22:48.331,1170507787,24331,2,1.01367,-0.19653,-0.09277,2.267,-2.733,2.099
2026-05-20 14:22:48.531,1170507987,24531,1,0.96558,-0.12744,0.49731,-4.725,2.084,-2.328
2026-05-20 14:22:48.531,1170507987,24531,2,1.01367,-0.20825,-0.07373,-9.863,-4.573,1.29
2026-05-20 14:22:48.731,1170508187,24731,1,0.96436,-0.15015,0.49097,-5.076,2.863,-3.145
2026-05-20 14:22:48.731,1170508187,24731,2,1.00488,-0.22119,-0.07861,-1.817,0.557,1.481
2026-05-20 14:22:49.931,1170509387,24931,1,1.05615,-0.18555,0.38696,-17.305,-7.527,-2.389
2026-05-20 14:22:49.931,1170509387,24931,2,1.02026,-0.24414,-0.17236,-3.794,1.489,1.336
2026-05-20 14:22:49.131,1170508587,25131,1,0.97729,-0.1814,0.47803,18.389,11.649,9.107
2026-05-20 14:22:49.131,1170508587,25131,2,1.02368,-0.16016,-0.06177,22.427,-2.908,-2.214
2026-05-20 14:22:49.351,1170508807,25351,1,0.90234,-0.14258,0.56274,11.397,12.344,-5.023
2026-05-20 14:22:49.351,1170508807,25351,2,0.98218,-0.18628,-0.00488,2.069,0.534,-6.542
2026-05-20 14:22:49.554,1170509010,25554,1,0.927,-0.19482,0.54126,1.939,-3.611,0.649
2026-05-20 14:22:49.554,1170509010,25554,2,0.98022,-0.26904,-0.12793,14.031,3.092,5.519
2026-05-20 14:22:50.754,1170510210,25754,1,0.94434,-0.06982,0.51343,23.42,-3.489,1.527
2026-05-20 14:22:50.754,1170510210,25754,2,1.0415,-0.15552,-0.1167,21.351,21.511,6.321
2026-05-20 14:22:50.954,1170510410,25954,1,0.98145,-0.06836,0.4436,7.443,-10.122,3.198
2026-05-20 14:22:50.954,1170510410,25954,2,1.0481,-0.16187,-0.10986,22.145,17.824,2.489
2026-05-20 14:22:50.154,1170509610,26154,1,0.98242,-0.06738,0.46973,6.878,2.977,1.298
2026-05-20 14:22:50.154,1170509610,26154,2,1.01636,-0.16577,-0.07251,6.557,-19.427,2.076
2026-05-20 14:22:50.354,1170509810,26354,1,1.02393,0.02393,0.41138,0.053,5.954,9.473
2026-05-20 14:22:50.354,1170509810,26354,2,1.12817,-0.05933,-0.17749,22.679,60.527,-19.794
2026-05-20 14:22:50.554,1170510010,26554,1,0.87695,-0.10327,0.52832,-4.038,0.557,-7.183
2026-05-20 14:22:50.554,1170510010,26554,2,0.99243,-0.08838,0.09326,-11.344,9.649,-6.863
2026-05-20 14:22:51.754,1170511210,26754,1,0.87085,-0.14624,0.4458,7.595,-2.473,7.168
2026-05-20 14:22:51.754,1170511210,26754,2,1.15918,-0.0293,0.01001,-18.939,0.695,-24.122
2026-05-20 14:22:51.954,1170511410,26954,1,0.88599,-0.17896,0.4436,-15.824,7.168,-14.092
2026-05-20 14:22:51.954,1170511410,26954,2,1.08716,-0.07471,-0.05396,-1.847,5.0,-0.931
2026-05-20 14:22:51.193,1170510649,27193,1,0.95801,-0.16357,0.46411,11.191,-5.092,-10.076
2026-05-20 14:22:51.193,1170510649,27193,2,1.06567,-0.12549,-0.01978,25.191,3.13,-3.641
2026-05-20 14:22:51.393,1170510849,27393,1,0.91748,-0.06104,0.46997,-5.13,8.328,-7.252
2026-05-20 14:22:51.393,1170510849,27393,2,1.0498,-0.07324,-0.02832,13.84,6.092,-1.366
2026-05-20 14:22:51.593,1170511049,27593,1,0.88721,-0.06885,0.55737,5.0,9.641,4.87
2026-05-20 14:22:51.593,1170511049,27593,2,1.02026,-0.05371,0.01343,-0.855,-6.954,3.695
2026-05-20 14:22:52.793,1170512249,27793,1,1.02197,-0.09814,0.46753,20.634,-3.565,10.809
2026-05-20 14:22:52.793,1170512249,27793,2,1.04736,-0.11304,-0.00488,-19.26,-12.237,22.832
2026-05-20 14:22:52.004,1170511460,28004,1,0.97046,-0.10352,0.39697,-62.603,-36.313,-22.771
2026-05-20 14:22:52.004,1170511460,28004,2,0.96533,-0.24048,-0.10913,-28.565,-13.779,8.321
2026-05-20 14:22:52.204,1170511660,28204,1,0.98047,-0.0957,0.37939,-21.931,-14.893,8.901
2026-05-20 14:22:52.204,1170511660,28204,2,1.00879,-0.23193,-0.13159,-21.214,2.702,11.473
2026-05-20 14:22:52.404,1170511860,28404,1,1.03369,-0.10718,0.36353,-12.511,2.328,-5.115
2026-05-20 14:22:52.404,1170511860,28404,2,1.00488,-0.24878,-0.1106,-13.473,-0.924,-0.053
2026-05-20 14:22:52.607,1170512063,28607,1,1.02417,-0.10474,0.35596,-3.992,-1.427,-1.603
2026-05-20 14:22:52.607,1170512063,28607,2,0.99463,-0.26611,-0.13599,-3.099,-0.42,2.809
2026-05-20 14:22:53.879,1170513335,28878,1,1.04492,-0.1062,0.35059,1.305,3.786,-0.534
2026-05-20 14:22:53.879,1170513335,28878,2,0.98877,-0.25806,-0.14551,-8.107,4.008,0.916
2026-05-20 14:22:53.125,1170512581,29125,1,1.02734,-0.10425,0.35962,-4.969,-0.718,-2.855
2026-05-20 14:22:53.125,1170512581,29125,2,0.98633,-0.26489,-0.14014,0.267,1.885,2.26
2026-05-20 14:22:53.614,1170513070,29614,1,1.00879,-0.10791,0.36987,1.015,-3.595,2.557
2026-05-20 14:22:53.614,1170513070,29614,2,0.99878,-0.25439,-0.11206,-3.794,0.481,3.122
2026-05-20 14:22:54.814,1170514270,29814,1,1.01636,-0.09668,0.36426,0.557,3.611,-1.626
2026-05-20 14:22:54.814,1170514270,29814,2,0.99756,-0.27612,-0.12109,-2.282,1.115,0.305
2026-05-20 14:22:54.014,1170513470,30014,1,1.02148,-0.10352,0.37012,-0.443,-1.061,-0.099
2026-05-20 14:22:54.014,1170513470,30014,2,0.99194,-0.26831,-0.11157,-0.374,-0.42,0.466
2026-05-20 14:22:54.214,1170513670,30214,1,1.02344,-0.10132,0.3728,1.229,1.252,1.756
2026-05-20 14:22:54.214,1170513670,30214,2,0.99341,-0.26099,-0.11353,-1.504,-0.153,0.702
2026-05-20 14:22:54.414,1170513870,30414,1,1.01733,-0.09814,0.35669,-1.794,1.183,0.168
2026-05-20 14:22:54.414,1170513870,30414,2,0.99097,-0.2749,-0.13452,-4.603,1.412,2.107
2026-05-20 14:22:54.614,1170514070,30614,1,1.01611,-0.10938,0.37451,-3.275,2.458,-0.931
2026-05-20 14:22:54.614,1170514070,30614,2,0.99536,-0.2749,-0.12427,-4.351,1.511,2.13
2026-05-20 14:22:55.839,1170515295,30839,1,1.01709,-0.10669,0.36743,-3.588,1.977,-0.718
2026-05-20 14:22:55.839,1170515295,30839,2,0.99829,-0.26514,-0.11084,6.023,-0.748,0.496
2026-05-20 14:22:55.096,1170514552,31096,1,1.0144,-0.11694,0.37622,-3.069,1.71,-2.649
2026-05-20 14:22:55.096,1170514552,31096,2,0.9917,-0.30762,-0.12964,4.244,2.977,-2.29
2026-05-20 14:22:55.296,1170514752,31296,1,1.00464,-0.10571,0.39771,0.878,3.458,0.053
2026-05-20 14:22:55.296,1170514752,31296,2,0.98462,-0.26904,-0.1311,2.389,1.786,0.466
2026-05-20 14:22:55.496,1170514952,31496,1,1.01563,-0.11646,0.39355,1.13,-1.298,1.527
2026-05-20 14:22:55.496,1170514952,31496,2,0.99854,-0.26538,-0.15137,-1.763,2.008,-0.107
2026-05-20 14:22:56.765,1170516221,31765,1,1.0144,-0.12231,0.37378,-2.916,-5.191,0.076
2026-05-20 14:22:56.765,1170516221,31765,2,0.99512,-0.27222,-0.12305,-0.267,0.26,-3.405
2026-05-20 14:22:56.965,1170516421,31965,1,1.01978,-0.12085,0.354,-3.076,1.794,1.954
2026-05-20 14:22:56.965,1170516421,31965,2,0.99194,-0.25928,-0.14331,-2.252,0.511,0.771
2026-05-20 14:22:56.165,1170515621,32165,1,1.02051,-0.125,0.36426,-1.038,4.45,-0.321
2026-05-20 14:22:56.165,1170515621,32165,2,0.98853,-0.27051,-0.14111,-3.29,-0.924,1.618
2026-05-20 14:22:56.365,1170515821,32365,1,1.00317,-0.14575,0.37695,0.038,4.763,2.16
2026-05-20 14:22:56.365,1170515821,32365,2,0.99268,-0.26807,-0.15552,0.168,0.87,-1.153
2026-05-20 14:22:56.565,1170516021,32565,1,0.99756,-0.146,0.38745,3.55,-0.176,1.221
2026-05-20 14:22:56.565,1170516021,32565,2,0.9895,-0.25342,-0.12769,1.359,0.756,-2.0
2026-05-20 14:22:57.765,1170517221,32765,1,0.99731,-0.14307,0.3916,4.374,2.298,1.527
2026-05-20 14:22:57.765,1170517221,32765,2,0.99097,-0.23755,-0.13672,0.702,-0.298,-0.809
2026-05-20 14:22:57.965,1170517421,32965,1,1.00488,-0.14014,0.38721,1.786,0.733,1.26
2026-05-20 14:22:57.965,1170517421,32965,2,1.00171,-0.25562,-0.12964,0.588,-1.611,0.298
2026-05-20 14:22:57.165,1170516621,33165,1,1.00098,-0.14819,0.38306,2.557,2.908,0.061
2026-05-20 14:22:57.165,1170516621,33165,2,0.99438,-0.25537,-0.16626,-3.237,2.634,0.664
2026-05-20 14:22:57.365,1170516821,33365,1,0.99878,-0.14917,0.37964,-0.328,-1.313,-0.954
2026-05-20 14:22:57.365,1170516821,33365,2,1.00977,-0.25537,-0.16357,-6.473,1.198,-1.824
2026-05-20 14:22:57.618,1170517074,33618,1,1.0376,-0.12427,0.34766,-3.305,-0.534,-5.962
2026-05-20 14:22:57.618,1170517074,33618,2,0.99609,-0.24414,-0.1582,-6.725,9.939,3.023
2026-05-20 14:22:58.818,1170518274,33818,1,1.02881,-0.17261,0.40039,-0.321,33.557,-6.427
2026-05-20 14:22:58.818,1170518274,33818,2,1.06104,-0.25342,-0.10498,1.969,1.664,-13.214
2026-05-20 14:22:58.018,1170517474,34018,1,0.93921,-0.18481,0.51318,1.16,15.756,1.916
2026-05-20 14:22:58.018,1170517474,34018,2,1.01196,-0.27417,-0.14624,5.061,,-5.489
2026-05-20 14:22:58.218,1170517674,34218,1,0.9895,-0.09668,0.50098,-3.534,1.695,-7.511
2026-05-20 14:22:58.218,1170517674,34218,2,0.99341,-0.19971,-0.13013,13.939,4.008,-0.244
2026-05-20 14:22:58.418,1170517874,34418,1,0.9353,-0.08569,0.53735,12.13,-0.099,5.092
2026-05-20 14:22:58.418,1170517874,34418,2,1.01465,-0.16797,-0.04395,-0.84,-3.71,0.42
2026-05-20 14:22:58.618,1170518074,34618,1,0.97754,-0.10352,0.49951,-1.947,1.458,-2.924
2026-05-20 14:22:58.618,1170518074,34618,2,1.02002,-0.17334,-0.05322,-11.55,0.878,-4.58
2026-05-20 14:22:59.014,1170518470,35014,1,0.94849,-0.09058,0.51953,-6.916,-3.458,-3.015
2026-05-20 14:22:59.014,1170518470,35014,2,1.02734,-0.18286,-0.05322,-10.649,-7.336,2.595
2026-05-20 14:22:59.242,1170518698,35242,1,1.00293,-0.10181,0.45825,-7.198,-6.817,7.107
2026-05-20 14:22:59.242,1170518698,35242,2,1.02612,-0.15991,-0.05444,0.023,-1.198,8.962
2026-05-20 14:22:59.442,1170518898,35442,1,0.95605,-0.12891,0.45947,-19.817,8.496,0.069
2026-05-20 14:22:59.442,1170518898,35442,2,1.02393,-0.18555,-0.07446,-6.893,-1.366,14.405
2026-05-20 14:22:59.642,1170519098,35642,1,0.96143,-0.14917,0.48364,-18.481,4.916,-9.275
2026-05-20 14:22:59.642,1170519098,35642,2,0.99829,-0.2251,-0.06689,-24.519,1.45,-1.687
2026-05-20 14:23:00.842,1170520298,35842,1,0.95435,-0.13574,0.49268,-20.076,1.901,-8.504
2026-05-20 14:23:00.842,1170520298,35842,2,0.99878,-0.23779,-0.08301,-16.305,3.084,7.557
2026-05-20 14:23:00.042,1170519498,36042,1,0.95654,-0.1604,0.46387,-15.763,-10.573,-2.336
2026-05-20 14:23:00.042,1170519498,36042,2,1.00488,-0.27466,-0.05859,-18.595,-0.924,2.626
2026-05-20 14:23:00.242,1170519698,36242,1,0.98975,-0.18872,0.41113,-2.557,0.412,2.046
2026-05-20 14:23:00.242,1170519698,36242,2,0.9895,-0.26514,-0.0979,-1.794,3.794,0.687
2026-05-20 14:23:00.442,1170519898,36442,1,0.99219,-0.17456,0.4231,1.603,-4.672,4.42
2026-05-20 14:23:00.442,1170519898,36442,2,0.99365,-0.25684,-0.07813,3.366,0.305,4.29
2026-05-20 14:23:00.642,1170520098,36642,1,1.00024,-0.18848,0.39624,5.916,-2.504,1.229
2026-05-20 14:23:00.642,1170520098,36642,2,1.02393,-0.27271,-0.08667,5.977,4.611,-2.947
2026-05-20 14:23:01.842,1170521298,36842,1,0.99463,-0.17383,0.42651,0.405,2.802,0.908
2026-05-20 14:23:01.842,1170521298,36842,2,0.99707,-0.25269,-0.06543,0.534,-3.145,2.427
2026-05-20 14:23:01.042,1170520498,37042,1,0.98438,-0.21143,0.42139,2.916,3.969,2.71
2026-05-20 14:23:01.042,1170520498,37042,2,0.98511,-0.28174,-0.10059,6.221,-3.412,1.206
2026-05-20 14:23:01.242,1170520698,37242,1,0.97241,-0.21167,0.39868,14.137,-3.595,4.74
2026-05-20 14:23:01.242,1170520698,37242,2,1.01147,-0.26025,-0.11182,13.603,3.618,-4.061
2026-05-20 14:23:01.442,1170520898,37442,1,1.01099,-0.23975,0.3877,21.29,-6.397,-3.725
