datetime,epoch_ms,ts_millis,mpu_id,ax,ay,az,gx,gy,gz
2026-06-02 15:25:21.279,2297460735,905279,1,0.82324,-0.2312,0.40869,-9.718,10.702,-5.702
2026-06-02 15:25:21.279,2297460735,905279,2,0.97119,-0.12476,0.65308,-14.084,1.237,-1.641
2026-06-02 15:25:21.550,2297461006,905550,1,0.70337,-0.32178,0.4165,-5.069,3.802,-25.023
2026-06-02 15:25:21.550,2297461006,905550,2,0.90723,0.20996,0.76929,-82.466,-4.107,-22.076
2026-06-02 15:25:22.274,2297461730,906274,1,0.83008,0.04346,0.50317,-0.786,-2.382,10.679
2026-06-02 15:25:22.274,2297461730,906274,2,0.85913,0.17236,0.57178,17.252,-2.84,20.878
2026-06-02 15:25:22.646,2297462102,906646,1,0.91895,-0.1377,0.56128,5.534,-17.626,38.87
2026-06-02 15:25:22.646,2297462102,906646,2,0.82764,0.11475,0.70532,-49.511,-8.176,-0.046
2026-06-02 15:25:22.984,2297462440,906984,1,0.73413,-0.35596,0.53857,-26.359,19.405,5.466
2026-06-02 15:25:22.984,2297462440,906984,2,0.93066,-0.07568,0.71924,-18.786,6.092,12.802
2026-06-02 15:25:23.184,2297462640,907184,1,0.74219,-0.42871,0.4729,-7.267,15.298,-1.481
2026-06-02 15:25:23.184,2297462640,907184,2,0.88501,-0.06592,0.69727,-16.366,2.13,-9.603
2026-06-02 15:25:23.407,2297462863,907407,1,0.78198,-0.31763,0.54199,11.29,-8.099,-19.893
2026-06-02 15:25:23.407,2297462863,907407,2,0.90894,0.1228,0.70142,48.656,-3.626,11.153
2026-06-02 15:25:23.868,2297463324,907868,1,0.83301,0.01318,0.46802,-3.878,-4.756,1.069
2026-06-02 15:25:23.868,2297463324,907868,2,0.91016,0.17383,0.61646,-3.252,-1.802,4.756
2026-06-02 15:25:24.281,2297463737,908281,1,0.90405,-0.1001,0.44507,-5.634,4.229,-0.87
2026-06-02 15:25:24.281,2297463737,908281,2,0.96973,0.18677,0.56323,13.336,10.176,0.641
2026-06-02 15:25:24.660,2297464116,908660,1,0.88916,-0.0752,0.52368,6.916,17.405,31.221
2026-06-02 15:25:24.660,2297464116,908660,2,0.90332,0.25684,0.55103,29.053,10.015,4.756
2026-06-02 15:25:25.152,2297464608,909152,1,0.80566,-0.20898,0.46118,13.015,3.527,27.962
2026-06-02 15:25:25.152,2297464608,909152,2,0.91626,0.05225,0.79102,15.359,2.527,11.641
2026-06-02 15:25:25.429,2297464885,909429,1,0.75366,-0.24951,0.52661,-0.985,-0.061,5.519
2026-06-02 15:25:25.429,2297464885,909429,2,0.91479,-0.0061,0.73462,-8.053,-0.908,16.359
2026-06-02 15:25:25.669,2297465125,909669,1,0.79102,-0.35205,0.47559,9.992,2.344,8.924
2026-06-02 15:25:25.669,2297465125,909669,2,0.90503,0.03516,0.71167,24.412,9.511,-6.344
2026-06-02 15:25:25.917,2297465373,909917,1,0.7417,-0.25854,0.52173,35.794,-12.16,0.908
2026-06-02 15:25:25.917,2297465373,909917,2,0.87891,0.26074,0.65942,3.176,-12.069,-10.038
2026-06-02 15:25:26.223,2297465679,910223,1,0.74805,-0.04614,0.48584,-3.046,-13.992,-21.481
2026-06-02 15:25:26.223,2297465679,910223,2,0.94922,0.28467,0.68872,7.29,2.992,-5.634
2026-06-02 15:25:26.510,2297465966,910510,1,0.82349,0.05664,0.44995,-12.305,-16.817,-17.87
2026-06-02 15:25:26.510,2297465966,910510,2,0.94897,0.16797,0.72583,-18.252,-12.397,8.45
2026-06-02 15:25:26.738,2297466194,910738,1,0.90625,0.05908,0.3999,-37.344,-9.252,-4.916
2026-06-02 15:25:26.738,2297466194,910738,2,0.96216,0.22949,0.50464,-22.099,-9.42,9.45
2026-06-02 15:25:26.971,2297466427,910971,1,1.03296,-0.04248,0.39697,-26.718,-6.489,-18.183
2026-06-02 15:25:26.971,2297466427,910971,2,0.97754,0.11011,0.58691,-36.84,1.565,-7.824
2026-06-02 15:25:27.186,2297466642,911186,1,0.83862,-0.13794,0.29224,-31.076,27.534,-4.939
2026-06-02 15:25:27.186,2297466642,911186,2,1.00342,0.11646,0.61841,-81.771,23.405,-60.214
2026-06-02 15:25:27.410,2297466866,911410,1,0.78027,-0.12549,0.39551,-33.038,33.924,-22.061
2026-06-02 15:25:27.410,2297466866,911410,2,0.92383,0.07471,0.65747,-5.878,30.092,17.84
2026-06-02 15:25:27.702,2297467158,911702,1,0.57397,-0.31982,0.62842,-37.481,16.076,-40.443
2026-06-02 15:25:27.702,2297467158,911702,2,0.84204,0.03467,0.76514,-7.267,-20.954,-15.45
2026-06-02 15:25:28.030,2297467486,912030,1,0.70825,-0.24561,0.55225,-52.977,1.878,-64.756
2026-06-02 15:25:28.030,2297467486,912030,2,0.91284,0.15479,0.79077,-69.168,-34.26,-22.84
2026-06-02 15:25:28.230,2297467686,912230,1,0.91333,0.02393,0.4751,-51.328,2.832,-68.893
2026-06-02 15:25:28.230,2297467686,912230,2,0.92065,0.35522,0.46875,-14.382,-10.687,-23.321
2026-06-02 15:25:28.593,2297468049,912592,1,0.90161,0.12085,0.448,-43.229,3.038,-28.275
2026-06-02 15:25:28.593,2297468049,912592,2,0.83813,0.1582,0.51489,-137.137,-17.542,-5.267
2026-06-02 15:25:28.942,2297468398,912942,1,0.77905,-0.35303,0.55322,-87.962,22.672,-34.588
2026-06-02 15:25:28.942,2297468398,912942,2,0.76758,-0.12988,0.78052,-223.924,-18.435,-64.641
2026-06-02 15:25:29.179,2297468635,913179,1,0.64722,-0.35083,0.54663,-63.573,24.26,-55.153
2026-06-02 15:25:29.179,2297468635,913179,2,0.8833,-0.13843,0.66138,-2.557,-9.985,-9.115
2026-06-02 15:25:29.533,2297468989,913533,1,0.71558,-0.43774,0.59302,-76.198,-41.397,-122.313
2026-06-02 15:25:29.533,2297468989,913533,2,0.9375,-0.05859,0.68408,-146.794,-46.496,-41.87
2026-06-02 15:25:29.753,2297469209,913753,1,1.07031,0.08008,0.44043,-110.58,-4.282,-91.046
2026-06-02 15:25:29.753,2297469209,913753,2,0.98975,0.31812,0.37378,-84.237,16.061,-78.26
2026-06-02 15:25:29.953,2297469409,913953,1,0.90039,0.1062,0.18701,-111.702,9.863,-78.336
2026-06-02 15:25:29.953,2297469409,913953,2,0.80664,0.09448,0.41187,-117.206,-9.702,-14.824
2026-06-02 15:25:30.248,2297469704,914248,1,1.13892,-0.04321,0.38623,-13.573,-9.534,18.183
2026-06-02 15:25:30.248,2297469704,914248,2,0.95972,-0.05811,0.60742,26.282,43.817,19.725
2026-06-02 15:25:30.662,2297470118,914662,1,0.67725,-0.22607,0.31274,-11.664,23.061,12.985
2026-06-02 15:25:30.662,2297470118,914662,2,0.8208,0.06885,0.8999,-1.702,-27.489,-17.702
2026-06-02 15:25:30.927,2297470383,914927,1,0.80469,0.05786,0.81689,-31.275,4.817,-33.198
2026-06-02 15:25:30.927,2297470383,914927,2,0.9043,0.24219,0.87207,-66.603,-23.725,-43.191
2026-06-02 15:25:31.127,2297470583,915127,1,0.65234,0.00146,0.43481,-43.237,2.489,-59.313
2026-06-02 15:25:31.127,2297470583,915127,2,0.64331,0.23193,0.68213,-41.626,-22.305,-28.267
2026-06-02 15:25:31.327,2297470783,915327,1,0.94336,0.17749,0.51294,-37.786,-0.679,-36.519
2026-06-02 15:25:31.327,2297470783,915327,2,0.82349,0.33813,0.65845,-14.389,-3.076,4.634
2026-06-02 15:25:31.527,2297470983,915527,1,0.80249,0.19922,0.43066,-23.069,18.992,-21.275
2026-06-02 15:25:31.527,2297470983,915527,2,0.79712,0.34692,0.56885,-62.534,1.511,-6.504
2026-06-02 15:25:31.727,2297471183,915727,1,0.78027,0.20825,0.42236,-27.481,-4.656,-14.573
2026-06-02 15:25:31.727,2297471183,915727,2,1.01245,0.29736,0.68579,-38.458,-2.405,4.015
2026-06-02 15:25:31.927,2297471383,915927,1,0.92627,-0.30737,0.6604,-28.519,35.977,29.374
2026-06-02 15:25:31.927,2297471383,915927,2,0.96777,0.08276,0.78125,-53.832,40.802,-43.687
2026-06-02 15:25:32.127,2297471583,916127,1,0.60522,-0.32788,0.46582,-35.992,36.214,-22.573
2026-06-02 15:25:32.127,2297471583,916127,2,0.81006,-0.02148,0.73193,-66.115,13.237,-35.794
2026-06-02 15:25:32.327,2297471783,916327,1,0.66479,-0.3457,0.60449,5.901,-0.038,-33.061
2026-06-02 15:25:32.327,2297471783,916327,2,0.7561,0.16699,0.85864,26.916,4.015,-35.878
2026-06-02 15:25:32.527,2297471983,916527,1,0.59497,0.15161,0.68677,-4.962,21.656,-40.641
2026-06-02 15:25:32.527,2297471983,916527,2,0.9021,0.49854,0.85938,-51.832,0.595,-22.0
2026-06-02 15:25:32.727,2297472183,916727,1,0.57153,0.08667,0.67383,-79.031,36.443,-48.275
2026-06-02 15:25:32.727,2297472183,916727,2,0.7168,0.29224,0.8811,-123.015,1.511,-28.344
2026-06-02 15:25:32.927,2297472383,916927,1,0.4834,-0.18506,0.66919,-86.153,31.985,-53.504
2026-06-02 15:25:32.927,2297472383,916927,2,0.86841,0.2019,0.93823,-106.641,-1.962,-27.916
2026-06-02 15:25:33.127,2297472583,917127,1,0.38818,-0.58716,0.65869,-48.985,43.489,-21.748
2026-06-02 15:25:33.127,2297472583,917127,2,0.74292,-0.19409,1.06641,-36.435,25.29,-17.206
2026-06-02 15:25:33.327,2297472783,917327,1,0.20703,-0.42358,0.72314,-7.427,32.374,-1.13
2026-06-02 15:25:33.327,2297472783,917327,2,0.60547,-0.01343,1.08594,-45.779,5.031,-10.969
2026-06-02 15:25:33.547,2297473003,917547,1,0.2395,-0.58691,0.69604,-42.328,8.702,-43.16
2026-06-02 15:25:33.547,2297473003,917547,2,0.65894,-0.22388,1.03052,-45.206,-14.023,-11.565
2026-06-02 15:25:33.747,2297473203,917747,1,0.30957,-0.63037,0.58252,-31.565,-9.053,-44.183
2026-06-02 15:25:33.747,2297473203,917747,2,0.8186,-0.28589,0.97778,-34.718,-23.45,-19.046
2026-06-02 15:25:33.947,2297473403,917947,1,0.43237,-0.52441,0.54224,-16.756,-7.237,-33.244
2026-06-02 15:25:33.947,2297473403,917947,2,0.83374,-0.24194,0.90527,-19.618,-7.672,-21.649
2026-06-02 15:25:34.183,2297473639,918183,1,0.50879,-0.51782,0.51978,-10.534,-2.267,-21.779
2026-06-02 15:25:34.183,2297473639,918183,2,0.88257,-0.21167,0.86816,-6.122,-4.679,-1.427
2026-06-02 15:25:34.526,2297473982,918526,1,0.5918,-0.53906,0.51709,35.992,-17.885,-2.015
2026-06-02 15:25:34.526,2297473982,918526,2,0.72192,-0.0498,0.81616,25.191,-24.16,-14.725
2026-06-02 15:25:34.787,2297474243,918787,1,0.66382,-0.2749,0.51343,43.779,-28.412,-16.221
2026-06-02 15:25:34.787,2297474243,918787,2,0.9082,-0.00732,0.72803,37.748,-31.626,9.321
2026-06-02 15:25:35.132,2297474588,919132,1,0.88062,-0.15918,0.44214,27.847,-22.878,15.198
2026-06-02 15:25:35.132,2297474588,919132,2,0.91089,0.03101,0.59766,26.725,-5.115,0.687
2026-06-02 15:25:35.445,2297474901,919445,1,0.91577,-0.09033,0.40649,13.489,-11.626,4.786
2026-06-02 15:25:35.445,2297474901,919445,2,0.94116,0.07373,0.60132,16.298,-4.382,3.214
2026-06-02 15:25:35.645,2297475101,919645,1,0.92139,-0.0647,0.3938,4.901,-7.382,-2.198
2026-06-02 15:25:35.645,2297475101,919645,2,0.96094,0.04639,0.58374,19.183,-5.405,8.115
2026-06-02 15:25:35.887,2297475343,919887,1,0.93066,-0.073,0.38477,22.443,1.305,13.282
2026-06-02 15:25:35.887,2297475343,919887,2,0.95605,0.01807,0.56787,23.947,2.0,6.611
2026-06-02 15:25:36.087,2297475543,920087,1,0.88184,-0.12158,0.39697,34.427,10.649,37.412
2026-06-02 15:25:36.087,2297475543,920087,2,0.93774,0.0791,0.5498,51.053,6.115,13.412
2026-06-02 15:25:36.331,2297475787,920331,1,0.93213,-0.14868,0.42383,40.038,-5.519,38.359
2026-06-02 15:25:36.331,2297475787,920331,2,0.95703,0.07007,0.55347,43.092,-1.29,9.252
2026-06-02 15:25:36.563,2297476019,920562,1,0.86279,-0.15039,0.41309,28.046,-2.954,18.092
2026-06-02 15:25:36.563,2297476019,920562,2,0.94556,0.06641,0.60449,19.779,0.557,-0.069
2026-06-02 15:25:36.762,2297476218,920762,1,0.89331,-0.10742,0.41479,7.115,-4.374,-0.58
2026-06-02 15:25:36.762,2297476218,920762,2,0.97192,0.08936,0.57422,-16.489,-7.282,-4.023
2026-06-02 15:25:36.962,2297476418,920962,1,0.89087,-0.1001,0.38623,-24.511,-4.237,-15.305
2026-06-02 15:25:36.962,2297476418,920962,2,0.9856,0.05835,0.54126,-40.985,-6.267,-5.84
2026-06-02 15:25:37.184,2297476640,921184,1,0.92529,-0.14014,0.35718,-31.855,9.405,-28.71
2026-06-02 15:25:37.184,2297476640,921184,2,0.99731,0.02051,0.55127,-32.038,7.214,-10.84
2026-06-02 15:25:37.384,2297476840,921384,1,0.86743,-0.06934,0.46045,-20.71,23.305,-19.672
2026-06-02 15:25:37.384,2297476840,921384,2,0.93506,0.05371,0.64209,-24.634,16.382,-5.252
2026-06-02 15:25:37.584,2297477040,921584,1,0.83228,-0.09692,0.45972,-18.817,25.122,-2.962
2026-06-02 15:25:37.584,2297477040,921584,2,0.93018,0.04272,0.68481,-20.305,30.427,3.565
2026-06-02 15:25:37.836,2297477292,921836,1,0.73389,-0.27246,0.66187,-20.595,20.473,1.443
2026-06-02 15:25:37.836,2297477292,921836,2,0.81958,0.12109,0.74951,-56.168,-6.603,-32.649
2026-06-02 15:25:38.183,2297477639,922183,1,0.73462,-0.18994,0.74463,2.985,5.771,6.321
2026-06-02 15:25:38.183,2297477639,922183,2,0.85962,0.1355,0.73804,-25.954,-19.588,-2.817
2026-06-02 15:25:38.402,2297477858,922402,1,0.73022,-0.19019,0.41626,-22.595,-20.664,12.046
2026-06-02 15:25:38.402,2297477858,922402,2,1.11328,0.12036,0.6936,43.695,15.748,25.214
2026-06-02 15:25:38.609,2297478065,922609,1,0.70703,-0.16064,0.37012,-43.954,8.137,10.458
2026-06-02 15:25:38.609,2297478065,922609,2,0.85205,0.07275,0.64648,11.649,21.763,29.954
2026-06-02 15:25:38.809,2297478265,922809,1,0.76685,-0.49292,0.23389,-70.71,2.641,-2.763
2026-06-02 15:25:38.809,2297478265,922809,2,0.85352,-0.28027,0.63647,-23.16,23.84,20.908
2026-06-02 15:25:38.011,2297477467,923011,1,0.71143,-0.65308,0.35693,-32.397,0.542,7.45
2026-06-02 15:25:38.011,2297477467,923011,2,0.9126,-0.38501,0.65869,-7.389,7.985,7.45
2026-06-02 15:25:39.211,2297478667,923211,1,0.75415,-0.62109,0.37915,2.504,8.931,1.924
2026-06-02 15:25:39.211,2297478667,923211,2,0.87671,-0.29614,0.7168,21.443,9.412,-5.13
2026-06-02 15:25:39.418,2297478874,923418,1,0.71289,-0.56982,0.47363,23.763,8.214,-8.267
2026-06-02 15:25:39.418,2297478874,923418,2,0.90552,-0.18457,0.76074,8.603,-4.328,-32.588
2026-06-02 15:25:39.731,2297479187,923731,1,0.79321,-0.26685,0.40771,41.634,-11.565,-20.45
2026-06-02 15:25:39.731,2297479187,923731,2,0.92871,-0.02368,0.66211,28.473,-11.855,-15.931
2026-06-02 15:25:39.931,2297479387,923931,1,0.79712,-0.14111,0.50098,1.275,-19.893,-16.573
2026-06-02 15:25:39.931,2297479387,923931,2,1.05933,-0.00122,0.51831,23.71,-1.061,-15.145
2026-06-02 15:25:40.131,2297479587,924131,1,0.75854,-0.07983,0.49854,4.748,-5.511,-7.832
2026-06-02 15:25:40.131,2297479587,924131,2,0.95093,0.08496,0.65869,-2.275,-3.389,-14.069
2026-06-02 15:25:40.331,2297479787,924331,1,0.92651,-0.13965,0.41479,11.534,11.969,-0.046
2026-06-02 15:25:40.331,2297479787,924331,2,0.95996,0.0835,0.61133,3.664,16.702,-7.664
2026-06-02 15:25:40.531,2297479987,924531,1,0.8335,-0.16333,0.46875,5.061,12.71,8.092
2026-06-02 15:25:40.531,2297479987,924531,2,0.92188,0.12964,0.65942,13.74,22.038,2.038
2026-06-02 15:25:40.731,2297480187,924731,1,0.80322,-0.15503,0.48511,18.542,16.733,4.611
2026-06-02 15:25:40.731,2297480187,924731,2,0.90015,0.16895,0.69385,14.511,15.962,-11.763
2026-06-02 15:25:40.964,2297480420,924964,1,0.72607,-0.02588,0.57666,14.542,8.985,6.573
2026-06-02 15:25:40.964,2297480420,924964,2,0.85571,0.22852,0.7627,21.26,6.427,-0.481
2026-06-02 15:25:41.164,2297480620,925164,1,0.73047,0.00098,0.62061,15.015,6.527,4.71
2026-06-02 15:25:41.164,2297480620,925164,2,0.87891,0.25342,0.77539,-16.542,-1.969,-6.015
2026-06-02 15:25:41.364,2297480820,925364,1,0.6853,-0.0332,0.62549,-7.252,-0.748,-0.779
2026-06-02 15:25:41.364,2297480820,925364,2,0.87207,0.21631,0.75732,-9.527,-2.183,7.038
2026-06-02 15:25:41.564,2297481020,925564,1,0.77759,-0.11133,0.60474,-4.137,-9.519,2.916
2026-06-02 15:25:41.564,2297481020,925564,2,0.9397,0.07104,0.75977,10.305,-3.908,17.298
2026-06-02 15:25:41.794,2297481250,925794,1,0.75757,-0.12817,0.52637,26.893,-14.855,58.771
2026-06-02 15:25:41.794,2297481250,925794,2,0.88647,0.07275,0.66846,56.282,3.267,57.412
2026-06-02 15:25:41.994,2297481450,925994,1,0.80615,-0.42578,0.40479,40.496,-15.374,60.443
2026-06-02 15:25:41.994,2297481450,925994,2,0.93945,-0.11523,0.73633,92.649,18.29,19.489
2026-06-02 15:25:42.194,2297481650,926194,1,0.66699,-0.37769,0.48193,80.779,22.137,53.664
2026-06-02 15:25:42.194,2297481650,926194,2,0.91357,0.54883,0.26514,206.55,73.832,42.42
2026-06-02 15:25:42.449,2297481905,926449,1,0.76514,0.04004,0.48901,64.733,-22.557,53.695
2026-06-02 15:25:42.449,2297481905,926449,2,0.68506,0.11108,1.15283,31.977,30.008,7.031
2026-06-02 15:25:45.609,2297485065,929609,1,0.07373,-0.18237,0.81812,26.061,22.13,23.634
2026-06-02 15:25:45.609,2297485065,929609,2,0.57349,0.21069,1.20239,19.405,17.748,0.344
2026-06-02 15:25:45.837,2297485293,929836,1,0.01343,-0.08667,0.87476,-0.679,5.282,6.237
2026-06-02 15:25:45.837,2297485293,929836,2,0.5127,0.17944,1.23853,4.038,0.672,-0.763
2026-06-02 15:25:46.056,2297485512,930055,1,0.05078,-0.06274,0.81323,6.176,0.725,-0.038
2026-06-02 15:25:46.056,2297485512,930055,2,0.50977,0.21924,1.24219,-0.008,0.107,-2.0
2026-06-02 15:25:46.302,2297485758,930302,1,0.03638,-0.04834,0.8479,1.313,-1.412,-4.634
2026-06-02 15:25:46.302,2297485758,930302,2,0.51074,0.22021,1.22437,1.282,-2.031,-3.336
2026-06-02 15:25:46.556,2297486012,930556,1,0.05811,-0.00171,0.84033,-0.779,-1.947,-2.031
2026-06-02 15:25:46.556,2297486012,930556,2,0.50879,0.26147,1.22485,-1.763,0.565,0.832
2026-06-02 15:25:46.763,2297486219,930763,1,0.10327,-0.01367,0.80786,-3.298,1.672,-1.855
2026-06-02 15:25:46.763,2297486219,930763,2,0.50366,0.24243,1.21655,-0.397,6.176,0.679
2026-06-02 15:25:46.981,2297486437,930981,1,0.05103,-0.0293,0.84351,-0.649,7.763,-1.405
2026-06-02 15:25:46.981,2297486437,930981,2,0.48804,0.24023,1.23706,-2.733,5.237,0.092
2026-06-02 15:25:47.241,2297486697,931241,1,0.03418,-0.01709,0.83057,2.389,10.847,-1.008
2026-06-02 15:25:47.241,2297486697,931241,2,0.46069,0.26538,1.25098,-1.336,9.992,-0.351
2026-06-02 15:25:47.524,2297486980,931524,1,-0.04028,-0.0354,0.87915,-0.015,4.244,-0.954
2026-06-02 15:25:47.524,2297486980,931524,2,0.44116,0.271,1.28394,-2.893,-7.58,4.038
2026-06-02 15:25:47.791,2297487247,931791,1,0.0564,-0.00806,0.82788,5.267,-12.565,7.466
2026-06-02 15:25:47.791,2297487247,931791,2,0.49219,0.23975,1.23169,-2.107,-11.985,1.641
2026-06-02 15:25:48.033,2297487489,932033,1,-0.00977,0.02026,0.88965,-3.664,-13.557,-1.046
2026-06-02 15:25:48.033,2297487489,932033,2,0.53149,0.24438,1.1936,-4.252,-18.908,2.145
2026-06-02 15:25:48.375,2297487831,932375,1,0.14429,-0.01172,0.86035,-7.275,-32.183,1.275
2026-06-02 15:25:48.375,2297487831,932375,2,0.63599,0.22803,1.11255,-0.366,-32.099,7.0
2026-06-02 15:25:48.624,2297488080,932624,1,0.36816,-0.03003,0.7771,-12.634,-38.863,-3.794
2026-06-02 15:25:48.624,2297488080,932624,2,0.74292,0.20288,0.99609,-6.099,-26.443,4.718
2026-06-02 15:25:48.020,2297487476,933019,1,0.55103,-0.09204,0.69165,-7.168,-16.901,-6.45
2026-06-02 15:25:48.020,2297487476,933019,2,0.81616,0.15234,0.89746,-6.893,-15.649,-0.336
2026-06-02 15:25:49.275,2297488731,933274,1,0.61938,-0.0874,0.67529,-7.397,-19.046,-4.656
2026-06-02 15:25:49.275,2297488731,933274,2,0.87744,0.16602,0.85425,-8.481,-13.443,0.344
2026-06-02 15:25:49.482,2297488938,933481,1,0.70679,-0.0896,0.59009,-2.313,-7.328,0.947
2026-06-02 15:25:49.482,2297488938,933481,2,0.87549,0.15967,0.83521,1.573,1.87,0.656
2026-06-02 15:25:49.724,2297489180,933724,1,0.6731,-0.10571,0.63159,6.412,2.321,1.496
2026-06-02 15:25:49.724,2297489180,933724,2,0.87769,0.17456,0.83423,1.244,1.611,1.534
2026-06-02 15:25:49.960,2297489416,933960,1,0.67188,-0.07349,0.63403,-6.053,-0.534,-1.13
2026-06-02 15:25:49.960,2297489416,933960,2,0.84717,0.1792,0.82983,-3.122,-1.153,2.939
2026-06-02 15:25:50.160,2297489616,934160,1,0.68188,-0.12622,0.63818,-5.214,-3.389,-0.931
2026-06-02 15:25:50.160,2297489616,934160,2,0.88696,0.17017,0.82153,-1.221,-2.023,1.351
2026-06-02 15:25:50.360,2297489816,934360,1,0.72729,-0.09375,0.57764,-1.298,-0.771,0.969
2026-06-02 15:25:50.360,2297489816,934360,2,0.87622,0.16479,0.80811,-3.137,0.397,0.252
2026-06-02 15:25:50.570,2297490026,934570,1,0.70435,-0.09717,0.61206,-0.695,0.359,0.412
2026-06-02 15:25:50.570,2297490026,934570,2,0.88281,0.17749,0.79517,5.756,1.382,3.557
2026-06-02 15:25:50.784,2297490240,934784,1,0.71118,-0.08667,0.5957,-1.824,5.282,4.718
2026-06-02 15:25:50.784,2297490240,934784,2,0.87402,0.15332,0.82837,1.893,7.824,2.931
2026-06-02 15:25:50.984,2297490440,934984,1,0.67261,-0.07886,0.62793,7.611,10.802,10.55
2026-06-02 15:25:50.984,2297490440,934984,2,0.84375,0.19067,0.8584,4.458,11.061,1.191
2026-06-02 15:25:51.206,2297490662,935206,1,0.63403,-0.09399,0.65381,1.573,9.985,0.405
2026-06-02 15:25:51.206,2297490662,935206,2,0.85913,0.18774,0.84473,-8.252,7.061,-1.427
2026-06-02 15:25:51.503,2297490959,935503,1,0.61157,-0.0332,0.66797,0.168,12.42,1.122
2026-06-02 15:25:51.503,2297490959,935503,2,0.82275,0.2019,0.9165,1.427,15.282,-0.183
2026-06-02 15:25:51.703,2297491159,935703,1,0.54761,-0.07178,0.66919,7.71,32.29,-6.756
2026-06-02 15:25:51.703,2297491159,935703,2,0.77563,0.22607,0.95313,-4.74,27.153,-9.305
2026-06-02 15:25:51.913,2297491369,935913,1,0.39844,-0.0332,0.78711,7.901,32.191,-7.153
2026-06-02 15:25:51.913,2297491369,935913,2,0.72925,0.2085,1.03027,-4.84,28.962,-9.534
2026-06-02 15:25:52.113,2297491569,936113,1,0.31445,-0.01367,0.80493,0.237,34.214,0.878
2026-06-02 15:25:52.113,2297491569,936113,2,0.6377,0.23755,1.13135,-3.0,26.763,-2.153
2026-06-02 15:25:52.339,2297491795,936338,1,0.15015,-0.02124,0.84351,-2.359,28.55,-3.153
2026-06-02 15:25:52.339,2297491795,936338,2,0.5603,0.24194,1.20557,1.931,23.74,-4.237
2026-06-02 15:25:52.538,2297491994,936538,1,0.10034,-0.01563,0.80273,1.076,26.71,-7.542
2026-06-02 15:25:52.538,2297491994,936538,2,0.50464,0.25854,1.23486,-7.832,23.672,-11.336
2026-06-02 15:25:52.738,2297492194,936738,1,-0.03833,0.04053,0.83276,3.214,29.817,-11.0
2026-06-02 15:25:52.738,2297492194,936738,2,0.39282,0.33545,1.3103,-5.031,14.153,-10.008
2026-06-02 15:25:52.938,2297492394,936938,1,-0.06616,0.06226,0.82446,1.58,12.573,-8.008
2026-06-02 15:25:52.938,2297492394,936938,2,0.36523,0.35742,1.24487,-2.641,11.832,-6.435
2026-06-02 15:25:53.138,2297492594,937138,1,-0.12573,0.03296,0.75,-1.489,25.641,-7.962
2026-06-02 15:25:53.138,2297492594,937138,2,0.24951,0.29321,1.27051,-16.305,27.389,-8.763
2026-06-02 15:25:53.361,2297492817,937361,1,-0.26831,-0.00684,0.71606,-7.412,25.641,-10.321
2026-06-02 15:25:53.361,2297492817,937361,2,0.23291,0.15063,1.32202,-2.336,21.328,-2.282
2026-06-02 15:25:53.561,2297493017,937561,1,-0.30078,0.04907,0.74707,8.145,42.901,7.656
2026-06-02 15:25:53.561,2297493017,937561,2,0.14746,0.28003,1.41553,-4.023,48.13,-2.885
2026-06-02 15:25:53.761,2297493217,937761,1,-0.55566,0.05396,0.68066,0.061,47.328,1.893
2026-06-02 15:25:53.761,2297493217,937761,2,-0.09375,0.26709,1.42578,-6.481,39.565,-1.802
2026-06-02 15:25:53.961,2297493417,937961,1,-0.66382,0.02881,0.61548,-5.557,19.153,-4.16
2026-06-02 15:25:53.961,2297493417,937961,2,-0.16528,0.20923,1.41895,-12.145,11.389,2.489
2026-06-02 15:25:54.161,2297493617,938161,1,-0.67627,-0.01221,0.58862,-4.611,5.817,-1.939
2026-06-02 15:25:54.161,2297493617,938161,2,-0.15381,0.20581,1.37085,0.458,4.405,0.939
2026-06-02 15:25:54.361,2297493817,938361,1,-0.60962,0.05737,0.50171,-2.71,3.611,-0.267
2026-06-02 15:25:54.361,2297493817,938361,2,-0.17041,0.21973,1.37134,-2.412,10.015,3.267
2026-06-02 15:25:54.561,2297494017,938561,1,-0.66113,0.00708,0.53564,4.817,10.611,3.397
2026-06-02 15:25:54.561,2297494017,938561,2,-0.23267,0.24438,1.36768,1.26,11.519,0.672
2026-06-02 15:25:54.761,2297494217,938761,1,-0.74121,0.06445,0.55371,-0.733,3.542,2.313
2026-06-02 15:25:54.761,2297494217,938761,2,-0.31616,0.25293,1.4165,1.336,0.924,7.275
2026-06-02 15:25:54.961,2297494417,938961,1,-0.71289,0.03809,0.5564,0.344,-14.939,5.183
2026-06-02 15:25:54.961,2297494417,938961,2,-0.19678,0.28809,1.33521,1.0,-9.893,9.603
2026-06-02 15:25:55.161,2297494617,939161,1,-0.70557,-0.00732,0.62329,-8.069,-19.42,2.809
2026-06-02 15:25:55.161,2297494617,939161,2,-0.198,0.2439,1.43506,0.969,-26.153,7.0
2026-06-02 15:25:55.361,2297494817,939361,1,-0.65698,0.02026,0.73926,-5.26,-52.511,4.725
2026-06-02 15:25:55.361,2297494817,939361,2,-0.02344,0.24023,1.40356,2.305,-52.496,11.427
2026-06-02 15:25:55.561,2297495017,939561,1,-0.40308,0.03125,0.76099,-3.74,-70.565,-0.466
2026-06-02 15:25:55.561,2297495017,939561,2,0.19849,0.26636,1.33057,5.573,-69.855,17.939
2026-06-02 15:25:55.761,2297495217,939761,1,-0.12476,-0.02075,0.76245,-4.656,-74.313,-0.962
2026-06-02 15:25:55.761,2297495217,939761,2,0.47144,0.2334,1.17676,1.183,-74.443,16.634
2026-06-02 15:25:55.961,2297495417,939961,1,0.14966,-0.00562,0.72314,-7.298,-77.603,0.779
2026-06-02 15:25:55.961,2297495417,939961,2,0.6626,0.2417,1.00439,-2.557,-60.244,8.71
2026-06-02 15:25:56.175,2297495631,940175,1,0.43091,0.00146,0.69873,0.45,-59.206,3.527
2026-06-02 15:25:56.175,2297495631,940175,2,0.81543,0.23218,0.91699,34.695,-35.641,17.656
2026-06-02 15:25:56.384,2297495840,940383,1,0.63477,0.01025,0.6106,-5.809,-42.374,-6.504
2026-06-02 15:25:56.384,2297495840,940383,2,0.86353,0.16309,0.82056,11.168,-30.588,8.84
2026-06-02 15:25:56.583,2297496039,940583,1,0.74536,-0.02197,0.56641,1.916,-21.634,7.076
2026-06-02 15:25:56.583,2297496039,940583,2,0.91357,0.18848,0.74268,6.359,-2.099,8.931
2026-06-02 15:25:56.848,2297496304,940848,1,0.73975,-0.0708,0.58691,-4.427,-4.893,0.947
2026-06-02 15:25:56.848,2297496304,940848,2,0.89209,0.17212,0.79248,-1.305,-1.626,2.641
2026-06-02 15:25:57.048,2297496504,941048,1,0.71582,-0.04053,0.59058,0.107,-7.061,2.084
2026-06-02 15:25:57.048,2297496504,941048,2,0.90161,0.20044,0.76709,5.931,-0.275,3.046
2026-06-02 15:25:57.381,2297496837,941381,1,0.77783,-0.04102,0.52881,-6.588,20.771,-1.702
2026-06-02 15:25:57.381,2297496837,941381,2,0.86743,0.18481,0.79663,-6.16,28.374,-7.183
2026-06-02 15:25:57.831,2297497287,941831,1,0.4541,-0.06519,0.71216,-0.901,48.534,-1.031
2026-06-02 15:25:57.831,2297497287,941831,2,0.71143,0.21436,1.03955,-13.145,43.313,-13.603
2026-06-02 15:25:58.071,2297497527,942071,1,0.18457,-0.04004,0.74683,4.42,69.092,-0.191
2026-06-02 15:25:58.071,2297497527,942071,2,0.53003,0.229,1.15771,-5.977,62.313,-11.748
2026-06-02 15:25:58.337,2297497793,942337,1,-0.08594,-0.03101,0.7981,-0.374,64.374,2.122
2026-06-02 15:25:58.337,2297497793,942337,2,0.30005,0.28003,1.28247,-2.046,59.687,-10.824
2026-06-02 15:25:58.545,2297498001,942545,1,-0.34521,-0.0437,0.82617,3.977,54.237,3.824
2026-06-02 15:25:58.545,2297498001,942545,2,0.10034,0.2583,1.31274,-2.542,49.275,-8.023
2026-06-02 15:25:58.765,2297498221,942764,1,-0.46191,-0.01221,0.63428,-2.947,42.015,-0.427
2026-06-02 15:25:58.765,2297498221,942764,2,0.02197,0.2207,1.3855,-10.74,27.763,-11.962
2026-06-02 15:25:58.964,2297498420,942964,1,-0.58276,-0.00293,0.71167,1.298,20.198,4.038
2026-06-02 15:25:58.964,2297498420,942964,2,-0.09009,0.22095,1.4104,-6.115,21.092,-3.389
2026-06-02 15:25:59.198,2297498654,943198,1,-0.6228,-0.02515,0.62061,-2.275,18.588,-1.137
2026-06-02 15:25:59.198,2297498654,943198,2,-0.18555,0.23926,1.41602,-1.847,18.015,-5.748
2026-06-02 15:25:59.444,2297498900,943444,1,-0.60327,0.01196,0.51587,7.504,8.107,-1.847
2026-06-02 15:25:59.444,2297498900,943444,2,-0.25708,0.21362,1.35376,1.832,5.076,0.565
2026-06-02 15:25:59.644,2297499100,943644,1,-0.6958,0.01636,0.57617,-0.183,-0.557,-0.046
2026-06-02 15:25:59.644,2297499100,943644,2,-0.26563,0.22095,1.47705,2.336,-2.626,3.13
2026-06-02 15:25:59.861,2297499317,943861,1,-0.6416,0.06006,0.57715,-11.282,-20.29,2.954
2026-06-02 15:25:59.861,2297499317,943861,2,-0.22046,0.25293,1.52026,1.588,-25.359,11.718
2026-06-02 15:26:00.061,2297499517,944061,1,-0.74268,0.00195,0.80005,-9.908,-59.29,3.58
2026-06-02 15:26:00.061,2297499517,944061,2,0.24194,0.25562,1.2749,5.908,-93.321,23.947
2026-06-02 15:26:00.366,2297499822,944365,1,-0.14209,-0.04663,0.69824,-9.061,-96.931,-6.321
2026-06-02 15:26:00.366,2297499822,944365,2,0.47119,0.22095,1.12427,9.221,-92.13,20.55
2026-06-02 15:26:00.601,2297500057,944601,1,0.21118,-0.04321,0.72534,-5.588,-78.947,-6.603
2026-06-02 15:26:00.601,2297500057,944601,2,0.70996,0.23706,0.98169,1.58,-83.473,8.534
2026-06-02 15:26:00.801,2297500257,944801,1,0.5,-0.04761,0.68018,-2.351,-58.58,-4.985
2026-06-02 15:26:00.801,2297500257,944801,2,0.84033,0.16406,0.8728,2.786,-34.489,5.756
2026-06-02 15:26:01.046,2297500502,945046,1,0.69287,-0.04175,0.56396,-5.191,-36.893,-0.16
2026-06-02 15:26:01.046,2297500502,945046,2,0.90454,0.15625,0.77734,1.611,-22.664,11.74
2026-06-02 15:26:01.251,2297500707,945251,1,0.80005,-0.07983,0.51221,-3.939,-19.115,2.412
2026-06-02 15:26:01.251,2297500707,945251,2,0.92847,0.14917,0.72119,10.557,-8.351,5.695
2026-06-02 15:26:01.453,2297500909,945453,1,0.80566,-0.06714,0.50806,1.13,-8.794,2.771
2026-06-02 15:26:01.453,2297500909,945453,2,0.94482,0.1626,0.70166,4.992,4.55,1.313
2026-06-02 15:26:01.807,2297501263,945807,1,0.79712,-0.05859,0.5188,0.595,15.985,0.244
2026-06-02 15:26:01.807,2297501263,945807,2,0.92139,0.19312,0.7439,-1.809,22.13,-2.481
2026-06-02 15:26:01.025,2297500481,946025,1,0.74316,-0.03857,0.52979,1.458,53.855,-1.588
2026-06-02 15:26:01.025,2297500481,946025,2,0.86719,0.19458,0.73486,-13.74,54.977,-15.702
2026-06-02 15:26:02.225,2297501681,946225,1,0.45483,-0.08228,0.5791,-0.542,85.099,2.58
2026-06-02 15:26:02.225,2297501681,946225,2,0.72363,0.18262,1.03711,-37.542,77.29,-25.221
2026-06-02 15:26:02.464,2297501920,946464,1,0.03589,-0.05811,0.74658,3.221,88.924,2.511
2026-06-02 15:26:02.464,2297501920,946464,2,0.47534,0.23267,1.27271,-1.817,79.26,-14.534
2026-06-02 15:26:02.664,2297502120,946664,1,-0.26904,-0.00854,0.83057,1.611,68.344,1.573
2026-06-02 15:26:02.664,2297502120,946664,2,0.27417,0.2417,1.27515,-4.847,52.214,-8.878
2026-06-02 15:26:02.864,2297502320,946864,1,-0.32397,-0.02051,0.70874,-3.29,50.473,2.832
2026-06-02 15:26:02.864,2297502320,946864,2,0.03955,0.22803,1.37891,-1.863,46.473,-7.794
2026-06-02 15:26:03.064,2297502520,947064,1,-0.48584,-0.01563,0.72559,-3.893,32.229,2.901
2026-06-02 15:26:03.064,2297502520,947064,2,-0.0542,0.23682,1.37549,-9.244,28.977,0.206
2026-06-02 15:26:03.264,2297502720,947264,1,-0.54053,-0.0437,0.66235,-1.824,24.313,0.321
2026-06-02 15:26:03.264,2297502720,947264,2,-0.11426,0.24902,1.39355,-12.672,21.031,-3.611
2026-06-02 15:26:03.464,2297502920,947464,1,-0.57495,-0.07959,0.55835,-4.656,12.611,-5.382
2026-06-02 15:26:03.464,2297502920,947464,2,-0.14111,0.15845,1.38965,-6.351,20.557,-3.176
2026-06-02 15:26:03.664,2297503120,947664,1,-0.56812,0.00513,0.56982,14.397,9.153,4.382
2026-06-02 15:26:03.664,2297503120,947664,2,-0.31958,0.14819,1.45288,-3.481,-6.237,2.115
2026-06-02 15:26:03.873,2297503329,947872,1,-0.79614,-0.04272,0.77759,-7.672,-29.275,1.107
2026-06-02 15:26:03.873,2297503329,947872,2,-0.19067,0.1853,1.46582,12.718,-44.779,12.664
2026-06-02 15:26:04.072,2297503528,948072,1,-0.53784,-0.06689,0.74341,-4.786,-74.092,3.145
2026-06-02 15:26:04.072,2297503528,948072,2,0.13013,0.25977,1.27344,17.237,-84.206,18.939
2026-06-02 15:26:04.350,2297503806,948350,1,-0.14185,-0.03052,0.79761,-4.954,-83.763,-5.038
2026-06-02 15:26:04.350,2297503806,948350,2,0.56909,0.24756,1.12427,6.901,-88.817,21.237
2026-06-02 15:26:04.616,2297504072,948615,1,0.32983,-0.02563,0.63086,-4.168,-110.618,-0.58
2026-06-02 15:26:04.616,2297504072,948615,2,0.84229,0.17212,0.85962,5.122,-65.748,17.198
2026-06-02 15:26:04.899,2297504355,948899,1,0.78027,-0.05249,0.46191,-1.603,-61.29,0.466
2026-06-02 15:26:04.899,2297504355,948899,2,0.99634,0.11353,0.62207,20.229,-8.786,10.0
2026-06-02 15:26:05.284,2297504740,949284,1,0.90161,-0.06079,0.42114,-1.069,0.122,3.023
2026-06-02 15:26:05.284,2297504740,949284,2,0.92285,0.20264,0.76807,34.672,-52.008,9.305
2026-06-02 15:26:11.191,2297510647,955191,1,0.9231,-0.0835,0.45288,-0.344,-13.649,-2.183
2026-06-02 15:26:11.191,2297510647,955191,2,0.91504,0.14648,0.6875,-11.015,2.122,-0.069
2026-06-02 15:26:11.415,2297510871,955415,1,0.8772,-0.08105,0.4082,-7.053,7.0,-2.427
2026-06-02 15:26:11.415,2297510871,955415,2,0.96143,0.14648,0.71533,3.198,15.939,-2.985
2026-06-02 15:26:11.782,2297511238,955782,1,0.69067,-0.073,0.40161,9.137,101.603,1.336
2026-06-02 15:26:11.782,2297511238,955782,2,0.74487,0.26514,0.93506,-7.679,89.969,-26.634
2026-06-02 15:26:11.997,2297511453,955997,1,0.09717,0.04468,0.58862,0.725,136.733,0.42
2026-06-02 15:26:11.997,2297511453,955997,2,0.34302,0.229,1.27002,-17.809,115.008,-23.206
2026-06-02 15:26:12.338,2297511794,956338,1,-0.62256,-0.02271,0.77197,0.237,78.664,-0.42
2026-06-02 15:26:12.338,2297511794,956338,2,-0.17651,0.25,1.40796,-11.038,57.237,-12.046
2026-06-02 15:26:12.538,2297511994,956538,1,-0.78125,0.0127,0.7002,-7.595,32.527,-5.603
2026-06-02 15:26:12.538,2297511994,956538,2,-0.25464,0.19629,1.39722,-4.786,7.542,-0.107
2026-06-02 15:26:12.743,2297512199,956743,1,-0.63599,-0.0542,0.57739,3.0,-20.702,-3.542
2026-06-02 15:26:12.743,2297512199,956743,2,-0.2937,0.22656,1.33057,17.626,10.962,8.168
2026-06-02 15:26:12.943,2297512399,956943,1,-0.69946,0.11011,0.75952,-2.244,-7.16,8.565
2026-06-02 15:26:12.943,2297512399,956943,2,-0.35498,0.25879,1.48486,-7.893,-37.405,10.863
2026-06-02 15:26:13.143,2297512599,957143,1,-0.71484,-0.00928,0.94263,-4.405,-97.863,-3.901
2026-06-02 15:26:13.143,2297512599,957143,2,0.12378,0.25244,1.29736,0.122,-124.351,23.427
2026-06-02 15:26:13.343,2297512799,957343,1,-0.1709,-0.04492,0.677,2.466,-126.137,-5.763
2026-06-02 15:26:13.343,2297512799,957343,2,0.65234,0.1499,1.0415,22.382,-122.458,31.466
2026-06-02 15:26:13.658,2297513114,957658,1,0.60449,-0.02954,0.42944,-4.779,-103.023,-3.534
2026-06-02 15:26:13.658,2297513114,957658,2,0.92065,0.14697,0.81128,-10.863,-51.992,9.679
2026-06-02 15:26:13.858,2297513314,957858,1,0.84204,-0.11377,0.45044,-2.015,-32.863,-6.802
2026-06-02 15:26:13.858,2297513314,957858,2,0.9834,0.13525,0.69897,27.832,2.511,5.45
2026-06-02 15:26:14.058,2297513514,958058,1,0.84863,-0.05347,0.48291,2.344,19.908,1.122
2026-06-02 15:26:14.058,2297513514,958058,2,0.90112,0.17871,0.77783,-17.191,45.321,-14.664
2026-06-02 15:26:14.455,2297513911,958455,1,0.38623,-0.04517,0.54053,-1.55,98.985,5.71
2026-06-02 15:26:14.455,2297513911,958455,2,0.54126,0.24316,1.09644,9.954,106.916,-17.863
2026-06-02 15:26:14.748,2297514204,958748,1,-0.26953,0.0332,0.87427,3.603,105.168,6.252
2026-06-02 15:26:14.748,2297514204,958748,2,0.19092,0.29102,1.29761,-6.137,85.427,-20.702
2026-06-02 15:26:14.965,2297514421,958965,1,-0.54175,-0.03076,0.77344,-7.824,62.023,3.466
2026-06-02 15:26:14.965,2297514421,958965,2,-0.04419,0.30225,1.38208,-10.542,48.275,-8.58
2026-06-02 15:26:15.165,2297514621,959165,1,-0.59058,-0.0498,0.64697,-3.786,28.229,-3.885
2026-06-02 15:26:15.165,2297514621,959165,2,-0.13574,0.21704,1.41626,-11.786,27.504,-2.87
2026-06-02 15:26:15.365,2297514821,959365,1,-0.61646,-0.06299,0.58569,-0.641,22.573,0.885
2026-06-02 15:26:15.365,2297514821,959365,2,-0.17261,0.20142,1.41602,-1.985,2.573,-0.573
2026-06-02 15:26:15.606,2297515062,959606,1,-0.79639,-0.06934,0.6438,3.847,-12.687,-4.092
2026-06-02 15:26:15.606,2297515062,959606,2,-0.3208,0.15625,1.50366,11.16,-22.267,9.611
2026-06-02 15:26:15.806,2297515262,959806,1,-0.89063,-0.03589,0.81201,-0.015,-83.336,2.321
2026-06-02 15:26:15.806,2297515262,959806,2,-0.14136,0.28101,1.37891,10.969,-103.847,23.359
2026-06-02 15:26:15.006,2297514462,960006,1,-0.26196,-0.03149,0.66333,-5.015,-140.168,-7.519
2026-06-02 15:26:15.006,2297514462,960006,2,0.58667,0.20361,1.01709,-4.908,-129.748,28.466
2026-06-02 15:26:16.222,2297515678,960222,1,0.34131,-0.05127,0.55542,-4.405,-109.244,-1.435
2026-06-02 15:26:16.222,2297515678,960222,2,0.823,0.12793,0.87354,2.099,-62.763,14.962
2026-06-02 15:26:16.518,2297515974,960518,1,0.81006,-0.05371,0.44922,4.443,-61.969,-1.771
2026-06-02 15:26:16.518,2297515974,960518,2,0.93481,0.16382,0.76978,11.542,-11.168,6.031
2026-06-02 15:26:16.785,2297516241,960785,1,0.88916,-0.0271,0.44263,-5.74,6.397,-0.824
2026-06-02 15:26:16.785,2297516241,960785,2,0.92163,0.1687,0.82349,-3.008,49.405,-12.29
2026-06-02 15:26:17.075,2297516531,961075,1,0.60913,-0.0647,0.42578,4.725,104.687,1.26
2026-06-02 15:26:17.075,2297516531,961075,2,0.73779,0.20288,0.93115,-17.58,76.275,-23.13
2026-06-02 15:26:17.275,2297516731,961275,1,0.11572,0.03271,0.78467,6.664,124.557,-0.962
2026-06-02 15:26:17.275,2297516731,961275,2,0.46045,0.31763,1.12964,-1.237,115.275,-20.779
2026-06-02 15:26:17.475,2297516931,961475,1,-0.34326,0.04541,0.76855,3.16,112.71,1.061
2026-06-02 15:26:17.475,2297516931,961475,2,-0.02783,0.30347,1.41675,-4.672,81.008,-14.802
2026-06-02 15:26:17.727,2297517183,961727,1,-0.70093,0.04492,0.646,5.992,72.603,-3.763
2026-06-02 15:26:17.727,2297517183,961727,2,-0.29956,0.22632,1.39819,-8.519,35.45,-5.916
2026-06-02 15:26:17.927,2297517383,961927,1,-0.84717,-0.01099,0.5835,-3.038,18.473,-2.573
2026-06-02 15:26:17.927,2297517383,961927,2,-0.32178,0.18237,1.41089,-1.786,11.115,-1.252
2026-06-02 15:26:18.127,2297517583,962127,1,-0.78247,0.05127,0.55054,2.328,-24.405,4.763
2026-06-02 15:26:18.127,2297517583,962127,2,-0.40381,0.32593,1.35791,1.939,-11.611,15.74
2026-06-02 15:26:18.331,2297517787,962331,1,-0.89502,-0.05737,0.82104,-10.885,-67.466,1.084
2026-06-02 15:26:18.331,2297517787,962331,2,-0.13428,0.31274,1.34717,4.687,-99.008,24.855
2026-06-02 15:26:18.531,2297517987,962531,1,-0.39819,-0.10059,0.69019,-4.328,-126.626,-6.908
2026-06-02 15:26:18.531,2297517987,962531,2,0.4668,0.2395,1.14844,5.58,-124.916,27.84
2026-06-02 15:26:18.776,2297518232,962776,1,0.21753,-0.08105,0.62915,-1.779,-104.351,-10.893
2026-06-02 15:26:18.776,2297518232,962776,2,0.81079,0.18506,0.93213,28.893,-74.656,24.389
2026-06-02 15:26:18.012,2297517468,963012,1,0.55542,-0.0166,0.63477,-1.611,-73.84,-7.779
2026-06-02 15:26:18.012,2297517468,963012,2,0.86035,0.21362,0.78882,44.076,-18.618,18.275
2026-06-02 15:26:19.227,2297518683,963227,1,0.80371,-0.05835,0.448,6.756,-36.26,7.931
2026-06-02 15:26:19.227,2297518683,963227,2,0.91626,0.2085,0.67871,27.183,-17.985,16.718
2026-06-02 15:26:19.494,2297518950,963494,1,0.93311,-0.08374,0.37622,-3.336,1.634,-0.092
2026-06-02 15:26:19.494,2297518950,963494,2,0.9873,0.14941,0.6731,-5.168,26.473,-6.763
2026-06-02 15:26:19.839,2297519295,963839,1,0.68872,-0.08887,0.48169,-2.679,66.771,-0.496
2026-06-02 15:26:19.839,2297519295,963839,2,0.8335,0.17578,0.86133,-16.198,60.969,-19.031
2026-06-02 15:26:20.074,2297519530,964074,1,0.28198,-0.14209,0.57983,-6.588,100.565,3.756
2026-06-02 15:26:20.074,2297519530,964074,2,0.60229,0.11377,1.09814,-14.137,110.29,-28.145
2026-06-02 15:26:20.274,2297519730,964274,1,-0.06763,-0.04321,0.81812,9.069,113.55,6.832
2026-06-02 15:26:20.274,2297519730,964274,2,0.24805,0.2832,1.28369,7.321,97.824,-22.962
2026-06-02 15:26:20.598,2297520054,964597,1,-0.55542,-0.01538,0.75244,-1.427,52.374,1.954
2026-06-02 15:26:20.598,2297520054,964597,2,-0.11011,0.27686,1.41162,-4.847,35.45,-4.992
2026-06-02 15:26:20.797,2297520253,964797,1,-0.58032,-0.0022,0.65942,-4.473,30.679,-2.939
2026-06-02 15:26:20.797,2297520253,964797,2,-0.1853,0.21338,1.37329,1.878,26.527,-1.756
2026-06-02 15:26:20.997,2297520453,964997,1,-0.73096,0.01001,0.74292,-1.473,19.756,0.031
2026-06-02 15:26:20.997,2297520453,964997,2,-0.20947,0.2019,1.40063,-7.122,2.351,-3.061
2026-06-02 15:26:21.197,2297520653,965197,1,-0.89575,-0.02246,0.68311,-1.702,-24.298,-4.84
2026-06-02 15:26:21.197,2297520653,965197,2,-0.31958,0.24805,1.48389,8.137,-65.122,16.137
2026-06-02 15:26:21.419,2297520875,965419,1,-0.71973,-0.0437,0.78638,-3.275,-126.26,-4.031
2026-06-02 15:26:21.419,2297520875,965419,2,0.36157,0.21191,1.14771,4.282,-143.336,30.504
2026-06-02 15:26:21.621,2297521077,965620,1,0.04761,-0.04736,0.56128,1.595,-153.122,-9.779
2026-06-02 15:26:21.621,2297521077,965620,2,0.69995,0.1814,0.96802,13.328,-106.427,25.916
2026-06-02 15:26:21.820,2297521276,965820,1,0.49756,-0.04834,0.53467,-0.45,-95.366,-4.366
2026-06-02 15:26:21.820,2297521276,965820,2,0.84424,0.17285,0.86353,10.931,-60.611,9.802
2026-06-02 15:26:21.020,2297520476,966020,1,0.82886,-0.04858,0.4375,-0.206,-41.557,3.412
2026-06-02 15:26:21.020,2297520476,966020,2,0.93433,0.18481,0.74072,20.191,1.344,10.137
2026-06-02 15:26:22.241,2297521697,966241,1,0.84863,-0.06104,0.46997,-0.702,-1.359,2.466
2026-06-02 15:26:22.241,2297521697,966241,2,0.95728,0.19727,0.76758,3.931,13.84,0.763
2026-06-02 15:26:22.459,2297521915,966459,1,0.82739,-0.06543,0.41748,-1.26,45.58,-4.557
2026-06-02 15:26:22.459,2297521915,966459,2,0.86914,0.19727,0.84814,1.29,63.405,-16.855
2026-06-02 15:26:22.659,2297522115,966659,1,0.53198,-0.03394,0.39014,5.29,126.122,1.397
2026-06-02 15:26:22.659,2297522115,966659,2,0.61865,0.14673,0.77026,-1.954,134.252,-27.687
2026-06-02 15:26:22.859,2297522315,966859,1,-0.18774,0.01855,0.76196,13.076,153.672,8.931
2026-06-02 15:26:22.859,2297522315,966859,2,0.20483,0.34131,1.32544,-10.206,124.351,-24.794
2026-06-02 15:26:23.059,2297522515,967059,1,-0.61816,0.01147,0.80884,-1.733,97.023,-1.725
2026-06-02 15:26:23.059,2297522515,967059,2,-0.28784,0.24365,1.41235,-4.214,33.313,-6.588
2026-06-02 15:26:23.367,2297522823,967367,1,-0.74902,0.0188,0.57471,-9.107,13.565,-12.031
2026-06-02 15:26:23.367,2297522823,967367,2,-0.33423,0.14844,1.40674,1.656,7.107,0.527
2026-06-02 15:26:23.649,2297523105,967649,1,-0.68677,0.02002,0.50146,-10.931,-6.275,-3.015
2026-06-02 15:26:23.649,2297523105,967649,2,-0.33057,0.21826,1.40723,0.466,-14.389,8.618
2026-06-02 15:26:23.930,2297523386,967930,1,-0.7854,-0.06982,0.69604,-13.053,-42.565,1.42
2026-06-02 15:26:23.930,2297523386,967930,2,-0.20313,0.28149,1.43311,6.931,-73.733,20.588
2026-06-02 15:26:24.130,2297523586,968130,1,-0.53882,-0.07666,0.79688,6.817,-110.008,0.809
2026-06-02 15:26:24.130,2297523586,968130,2,0.28467,0.25171,1.25439,2.542,-112.176,25.466
2026-06-02 15:26:24.330,2297523786,968330,1,0.02466,0.00049,0.59009,-4.832,-98.656,1.267
2026-06-02 15:26:24.330,2297523786,968330,2,0.60693,0.22632,1.09448,-7.069,-100.641,18.313
2026-06-02 15:26:24.530,2297523986,968530,1,0.33105,-0.04297,0.70337,1.893,-87.206,-1.282
2026-06-02 15:26:24.530,2297523986,968530,2,0.77539,0.17749,0.91016,-10.176,-69.496,10.573
2026-06-02 15:26:24.817,2297524273,968816,1,0.64575,-0.09473,0.56079,-0.756,-57.672,-4.344
2026-06-02 15:26:24.817,2297524273,968816,2,0.896,0.18579,0.73706,26.763,-39.588,15.847
2026-06-02 15:26:24.016,2297523472,969016,1,0.87036,-0.04077,0.42236,-2.321,-43.618,-1.298
2026-06-02 15:26:24.016,2297523472,969016,2,0.96753,0.15869,0.68042,10.321,-9.71,9.466
2026-06-02 15:26:25.216,2297524672,969216,1,0.92456,-0.07227,0.40698,-9.29,-3.496,-0.374
2026-06-02 15:26:25.216,2297524672,969216,2,1.00684,0.16577,0.68579,0.962,22.29,-3.084
2026-06-02 15:26:25.548,2297525004,969548,1,0.78906,-0.07642,0.42578,-3.435,79.847,1.168
2026-06-02 15:26:25.548,2297525004,969548,2,0.72583,0.19312,0.89868,-24.573,87.908,-31.542
2026-06-02 15:26:25.896,2297525352,969896,1,0.01855,-0.07349,0.76758,5.382,112.031,7.229
2026-06-02 15:26:25.896,2297525352,969896,2,0.36987,0.25854,1.20313,-5.427,94.061,-21.573
2026-06-02 15:26:26.160,2297525616,970160,1,-0.47559,-0.04102,0.83691,-0.374,75.824,7.817
2026-06-02 15:26:26.160,2297525616,970160,2,0.00903,0.25757,1.39844,-9.489,58.183,-5.29
2026-06-02 15:26:26.360,2297525816,970360,1,-0.63379,0.02661,0.72778,-4.13,46.145,5.832
2026-06-02 15:26:26.360,2297525816,970360,2,-0.16528,0.26318,1.39941,-8.84,34.588,1.053
2026-06-02 15:26:26.560,2297526016,970560,1,-0.65845,-0.0835,0.69019,-3.542,25.351,3.603
2026-06-02 15:26:26.560,2297526016,970560,2,-0.20483,0.22266,1.37744,-4.901,20.122,0.466
2026-06-02 15:26:26.760,2297526216,970760,1,-0.92627,-0.0603,0.66235,-3.092,11.099,-3.71
2026-06-02 15:26:26.760,2297526216,970760,2,-0.34106,0.21802,1.42456,7.634,-3.489,4.183
2026-06-02 15:26:26.960,2297526416,970960,1,-0.89136,-0.00928,0.80933,-0.328,-46.55,-3.649
2026-06-02 15:26:26.960,2297526416,970960,2,-0.24316,0.28076,1.44629,5.397,-81.87,18.336
2026-06-02 15:26:27.160,2297526616,971160,1,-0.51416,-0.02148,0.7522,-0.725,-130.611,-5.832
2026-06-02 15:26:27.160,2297526616,971160,2,0.29053,0.23755,1.19067,5.237,-131.893,35.351
2026-06-02 15:26:27.381,2297526837,971381,1,0.16284,-0.06274,0.5769,-5.542,-132.947,-6.511
2026-06-02 15:26:27.381,2297526837,971381,2,0.76855,0.15356,0.91162,-8.008,-91.252,17.954
2026-06-02 15:26:27.606,2297527062,971606,1,0.60083,-0.05249,0.43018,-10.076,-88.305,-5.931
2026-06-02 15:26:27.606,2297527062,971606,2,0.90552,0.05347,0.65796,9.427,-32.267,12.412
2026-06-02 15:26:27.808,2297527264,971808,1,0.88794,-0.07666,0.39282,-1.656,-52.901,3.107
2026-06-02 15:26:27.808,2297527264,971808,2,0.97559,0.12866,0.66064,1.855,-17.344,3.427
2026-06-02 15:26:28.071,2297527527,972070,1,0.97095,-0.07007,0.32422,-3.954,-5.466,-0.168
2026-06-02 15:26:28.071,2297527527,972070,2,0.99829,0.11743,0.61133,0.702,11.649,-3.145
2026-06-02 15:26:28.368,2297527824,972368,1,0.93237,-0.07837,0.33228,-0.031,49.664,-1.573
2026-06-02 15:26:28.368,2297527824,972368,2,0.89429,0.16162,0.79468,1.893,75.321,-21.092
2026-06-02 15:26:28.611,2297528067,972611,1,0.50806,-0.05078,0.31934,2.611,134.137,0.336
2026-06-02 15:26:28.611,2297528067,972611,2,0.62793,0.20068,0.91406,-21.626,139.511,-42.282
2026-06-02 15:26:28.811,2297528267,972811,1,-0.12354,0.01929,0.7854,6.847,153.832,3.855
2026-06-02 15:26:28.811,2297528267,972811,2,0.26099,0.3103,1.26196,0.153,118.695,-28.015
2026-06-02 15:26:28.011,2297527467,973011,1,-0.6333,0.02124,0.82324,-2.733,103.023,-0.74
2026-06-02 15:26:28.011,2297527467,973011,2,-0.08472,0.25903,1.41943,-5.115,87.061,-18.031
2026-06-02 15:26:29.211,2297528667,973211,1,-0.83032,0.01245,0.69287,-5.71,46.901,-4.748
2026-06-02 15:26:29.211,2297528667,973211,2,-0.32397,0.2605,1.37012,-4.015,31.954,-2.802
2026-06-02 15:26:29.411,2297528867,973411,1,-0.82764,-0.07715,0.62817,11.405,-6.015,-5.84
2026-06-02 15:26:29.411,2297528867,973411,2,-0.33545,0.17676,1.35767,16.748,-4.725,4.649
2026-06-02 15:26:29.611,2297529067,973611,1,-0.7981,-0.07837,0.66821,-1.557,-13.725,4.496
2026-06-02 15:26:29.611,2297529067,973611,2,-0.33594,0.26563,1.43408,3.496,-29.221,8.359
2026-06-02 15:26:29.811,2297529267,973811,1,-0.70386,-0.06885,0.79834,-2.634,-77.672,-3.901
2026-06-02 15:26:29.811,2297529267,973811,2,-0.08374,0.28662,1.37427,7.779,-86.557,17.87
2026-06-02 15:26:29.011,2297528467,974011,1,-0.27588,-0.03394,0.70435,6.137,-105.45,-0.359
2026-06-02 15:26:29.011,2297528467,974011,2,0.40771,0.25146,1.16943,0.023,-99.183,28.038
2026-06-02 15:26:30.228,2297529684,974228,1,0.18823,-0.0105,0.64746,-9.687,-92.763,-3.0
2026-06-02 15:26:30.228,2297529684,974228,2,0.70483,0.20557,1.02441,4.153,-67.885,15.092
2026-06-02 15:26:30.430,2297529886,974430,1,0.43823,-0.04639,0.67456,-8.351,-74.092,-14.954
2026-06-02 15:26:30.430,2297529886,974430,2,0.81445,0.17627,0.87305,3.84,-98.527,-2.809
2026-06-02 15:26:30.630,2297530086,974630,1,0.71265,-0.01392,0.5332,-0.908,-43.977,-0.198
2026-06-02 15:26:30.630,2297530086,974630,2,0.9248,0.16772,0.75195,10.901,-31.969,8.275
2026-06-02 15:26:30.830,2297530286,974830,1,0.81543,-0.05981,0.46045,-9.351,-18.802,-1.649
2026-06-02 15:26:30.830,2297530286,974830,2,0.95557,0.15869,0.71777,-10.55,-5.137,3.756
2026-06-02 15:26:31.030,2297530486,975030,1,0.84961,-0.13428,0.43896,-12.794,24.756,-8.809
2026-06-02 15:26:31.030,2297530486,975030,2,0.86816,0.146,0.77466,-6.313,46.435,-6.45
2026-06-02 15:26:31.276,2297530732,975275,1,0.55859,-0.06006,0.60449,2.229,76.878,8.656
2026-06-02 15:26:31.276,2297530732,975275,2,0.83081,0.12646,0.92065,-8.42,72.099,-20.695
2026-06-02 15:26:31.475,2297530931,975475,1,0.1958,-0.02588,0.67822,3.099,110.275,7.328
2026-06-02 15:26:31.475,2297530931,975475,2,0.56982,0.20166,1.09326,-11.824,101.13,-17.626
2026-06-02 15:26:31.675,2297531131,975675,1,-0.27002,-0.09229,0.73877,-7.573,108.817,14.176
2026-06-02 15:26:31.675,2297531131,975675,2,0.25024,0.19458,1.30225,1.878,97.015,-11.855
2026-06-02 15:26:31.875,2297531331,975875,1,-0.64648,-0.02466,0.83374,-2.939,72.695,9.29
2026-06-02 15:26:31.875,2297531331,975875,2,-0.00269,0.24487,1.3606,-9.855,61.534,-8.588
2026-06-02 15:26:32.075,2297531531,976075,1,-0.7334,-0.09131,0.71777,-8.008,31.885,-0.84
2026-06-02 15:26:32.075,2297531531,976075,2,-0.07104,0.22168,1.42139,-10.084,25.527,-3.053
2026-06-02 15:26:32.275,2297531731,976275,1,-0.66699,-0.06592,0.56616,-1.221,19.702,-0.076
2026-06-02 15:26:32.275,2297531731,976275,2,-0.30322,0.1062,1.50537,-6.695,20.756,-4.504
2026-06-02 15:26:32.475,2297531931,976475,1,-0.86523,-0.05225,0.71533,-12.962,-20.351,-8.557
2026-06-02 15:26:32.475,2297531931,976475,2,-0.33545,0.11426,1.47217,3.763,-39.84,8.786
2026-06-02 15:26:32.675,2297532131,976675,1,-0.76196,-0.08862,0.77905,9.611,-91.221,-0.252
2026-06-02 15:26:32.675,2297532131,976675,2,0.07178,0.27783,1.31982,9.84,-108.374,18.916
2026-06-02 15:26:32.875,2297532331,976875,1,-0.17041,-0.01025,0.66235,-0.954,-124.954,-14.16
2026-06-02 15:26:32.875,2297532331,976875,2,0.53516,0.16089,1.16577,-4.916,-122.725,20.382
2026-06-02 15:26:33.075,2297532531,977075,1,0.2229,-0.04443,0.66064,3.252,-114.42,-8.366
2026-06-02 15:26:33.075,2297532531,977075,2,0.73193,0.16528,0.93872,-1.817,-91.29,20.55
2026-06-02 15:26:33.275,2297532731,977275,1,0.61987,-0.00146,0.49194,-5.702,-91.374,-6.397
2026-06-02 15:26:33.275,2297532731,977275,2,0.86304,0.14063,0.73389,14.305,-52.16,13.71
2026-06-02 15:26:33.475,2297532931,977475,1,0.88721,-0.06982,0.40674,-33.168,-50.038,-7.718
2026-06-02 15:26:33.475,2297532931,977475,2,0.99194,0.05078,0.65112,-22.275,-32.855,14.412
2026-06-02 15:26:33.675,2297533131,977675,1,0.94336,-0.14111,0.34253,-26.916,-24.534,-16.931
2026-06-02 15:26:33.675,2297533131,977675,2,0.98193,-0.00684,0.55933,-13.031,-9.122,4.649
2026-06-02 15:26:33.875,2297533331,977875,1,0.95337,-0.12256,0.30225,-11.458,-11.618,-5.863
2026-06-02 15:26:33.875,2297533331,977875,2,0.97876,0.04272,0.5271,-14.962,-8.664,-1.176
2026-06-02 15:26:34.075,2297533531,978075,1,0.99365,-0.11914,0.26392,-10.786,-1.947,-1.107
2026-06-02 15:26:34.075,2297533531,978075,2,0.979,0.06348,0.51147,-3.794,7.359,2.466
2026-06-02 15:26:34.275,2297533731,978275,1,0.94434,-0.15527,0.29419,-17.275,2.221,-10.916
2026-06-02 15:26:34.275,2297533731,978275,2,0.97388,0.01807,0.50537,-17.038,0.824,-2.45
2026-06-02 15:26:34.475,2297533931,978475,1,0.98218,-0.09717,0.27539,-26.061,-2.122,-18.046
2026-06-02 15:26:34.475,2297533931,978475,2,0.9812,0.05151,0.48267,-21.908,2.397,2.305
2026-06-02 15:26:34.675,2297534131,978675,1,0.98438,-0.09229,0.28638,-32.008,-1.115,-28.557
2026-06-02 15:26:34.675,2297534131,978675,2,0.9314,0.00659,0.53345,-35.931,-2.947,-5.397
2026-06-02 15:26:34.875,2297534331,978875,1,0.97925,-0.07861,0.28149,-21.527,-2.885,-15.229
2026-06-02 15:26:34.875,2297534331,978875,2,0.94385,0.04858,0.44824,-23.107,6.595,2.046
2026-06-02 15:26:35.075,2297534531,979075,1,0.97852,-0.06641,0.25537,-24.748,-1.595,-9.947
2026-06-02 15:26:35.075,2297534531,979075,2,0.97119,-0.02905,0.49829,1.962,4.603,6.481
2026-06-02 15:26:35.284,2297534740,979284,1,0.94946,-0.07104,0.27051,15.405,1.977,11.847
2026-06-02 15:26:35.284,2297534740,979284,2,0.97559,-0.02319,0.52441,16.527,0.382,9.534
2026-06-02 15:26:35.484,2297534940,979484,1,0.92407,-0.07959,0.30835,34.908,27.733,8.443
2026-06-02 15:26:35.484,2297534940,979484,2,0.96143,-0.04761,0.47266,11.962,-10.557,14.26
2026-06-02 15:26:35.684,2297535140,979684,1,0.91016,-0.06909,0.38501,5.237,9.458,23.344
2026-06-02 15:26:35.684,2297535140,979684,2,0.98706,-0.08936,0.45361,23.252,-4.038,17.618
2026-06-02 15:26:35.884,2297535340,979884,1,0.90894,-0.14795,0.38086,2.809,1.389,26.198
2026-06-02 15:26:35.884,2297535340,979884,2,0.98096,-0.14063,0.48145,13.076,3.931,6.802
2026-06-02 15:26:36.084,2297535540,980084,1,0.94824,-0.25171,0.39941,10.031,18.137,28.359
2026-06-02 15:26:36.084,2297535540,980084,2,1.00244,-0.12524,0.4624,45.244,17.069,-4.794
2026-06-02 15:26:36.284,2297535740,980284,1,0.85571,-0.23462,0.52612,32.183,21.237,60.092
2026-06-02 15:26:36.284,2297535740,980284,2,0.98999,-0.14038,0.59912,70.611,31.084,-4.595
2026-06-02 15:26:36.484,2297535940,980484,1,0.79639,-0.21631,0.48291,62.504,36.733,43.153
2026-06-02 15:26:36.484,2297535940,980484,2,0.9021,0.05225,0.61792,73.649,47.901,-9.679
2026-06-02 15:26:36.684,2297536140,980684,1,0.57886,-0.10083,0.64014,35.634,35.183,15.16
2026-06-02 15:26:36.684,2297536140,980684,2,0.92554,0.18213,0.75854,22.504,35.046,-10.29
2026-06-02 15:26:36.884,2297536340,980884,1,0.3855,-0.13843,0.80396,-6.573,27.237,-9.733
2026-06-02 15:26:36.884,2297536340,980884,2,0.80762,0.09033,0.92188,-17.42,-3.45,-10.992
2026-06-02 15:26:37.084,2297536540,981084,1,0.42163,-0.13281,0.77637,-0.45,-15.198,-18.954
2026-06-02 15:26:37.084,2297536540,981084,2,0.87256,0.22388,0.87622,-13.053,-19.595,-0.412
2026-06-02 15:26:37.297,2297536753,981297,1,0.53003,-0.06885,0.69556,-21.191,-26.511,-13.542
2026-06-02 15:26:37.297,2297536753,981297,2,0.84717,0.17285,0.86572,-35.443,-16.611,4.366
2026-06-02 15:26:37.558,2297537014,981558,1,0.47998,-0.36206,0.70752,-29.015,-8.389,-18.466
2026-06-02 15:26:37.558,2297537014,981558,2,0.83057,-0.21021,0.86743,-23.191,-23.847,-3.595
2026-06-02 15:26:37.758,2297537214,981758,1,0.61841,-0.34351,0.59033,18.649,-34.168,4.298
2026-06-02 15:26:37.758,2297537214,981758,2,0.87305,-0.0835,0.79932,14.847,-21.916,-12.237
2026-06-02 15:26:37.958,2297537414,981958,1,0.80615,-0.24878,0.52905,24.366,-25.55,6.359
2026-06-02 15:26:37.958,2297537414,981958,2,0.99121,0.35718,0.63159,43.595,-4.473,1.267
2026-06-02 15:26:38.213,2297537669,982213,1,0.81836,0.0376,0.40796,8.435,-17.71,2.122
2026-06-02 15:26:38.213,2297537669,982213,2,0.87109,0.31323,0.46143,29.962,-7.84,6.885
2026-06-02 15:26:38.413,2297537869,982413,1,0.91333,0.11108,0.42627,12.748,-21.45,3.565
2026-06-02 15:26:38.413,2297537869,982413,2,1.08765,0.11353,0.61353,-1.748,-1.122,21.939
2026-06-02 15:26:38.744,2297538200,982744,1,0.88818,-0.08032,0.37378,-5.756,4.565,15.588
2026-06-02 15:26:38.744,2297538200,982744,2,0.98633,0.13232,0.57324,-14.542,4.145,-9.489
2026-06-02 15:26:38.944,2297538400,982944,1,0.88232,-0.06372,0.39771,-11.947,5.443,1.565
2026-06-02 15:26:38.944,2297538400,982944,2,0.96021,0.09985,0.57007,-18.481,9.878,0.748
2026-06-02 15:26:39.163,2297538619,983163,1,0.89575,-0.14038,0.39917,-7.84,2.817,3.885
2026-06-02 15:26:39.163,2297538619,983163,2,0.92261,0.06055,0.62109,-5.626,2.725,4.901
2026-06-02 15:26:39.363,2297538819,983363,1,0.88721,-0.17017,0.41455,-4.626,0.229,-1.588
2026-06-02 15:26:39.363,2297538819,983363,2,0.95435,0.05103,0.63574,-4.198,0.305,3.489
2026-06-02 15:26:39.563,2297539019,983563,1,0.88232,-0.14038,0.41699,-12.084,-0.679,-6.359
2026-06-02 15:26:39.563,2297539019,983563,2,0.94141,0.05444,0.62769,-13.519,-2.031,1.687
2026-06-02 15:26:39.763,2297539219,983763,1,0.87891,-0.14917,0.41675,-9.756,0.191,-7.397
2026-06-02 15:26:39.763,2297539219,983763,2,0.94043,0.03882,0.62695,-9.046,-1.397,1.351
2026-06-02 15:26:39.963,2297539419,983963,1,0.88721,-0.13135,0.36279,-10.45,-0.664,-5.779
2026-06-02 15:26:39.963,2297539419,983963,2,0.94873,0.0354,0.60742,4.282,10.275,-4.588
2026-06-02 15:26:40.173,2297539629,984173,1,0.8645,-0.09131,0.42505,-4.702,1.634,-6.573
2026-06-02 15:26:40.173,2297539629,984173,2,0.96729,0.0813,0.60718,7.649,0.366,5.817
2026-06-02 15:26:40.373,2297539829,984373,1,0.87988,-0.12256,0.43164,-7.26,6.168,-7.794
2026-06-02 15:26:40.373,2297539829,984373,2,0.95093,0.07153,0.60327,0.954,6.275,-0.267
2026-06-02 15:26:40.573,2297540029,984573,1,0.86743,-0.08252,0.4292,-8.107,5.038,-3.206
2026-06-02 15:26:40.573,2297540029,984573,2,0.95215,0.10083,0.60571,-5.634,6.649,-1.794
2026-06-02 15:26:40.773,2297540229,984773,1,0.83594,-0.08154,0.46216,-31.893,1.237,-19.794
2026-06-02 15:26:40.773,2297540229,984773,2,0.94971,0.02002,0.6394,-26.267,-3.771,-2.084
2026-06-02 15:26:41.056,2297540512,985056,1,0.86011,-0.10962,0.41528,-15.779,-4.702,-12.282
2026-06-02 15:26:41.056,2297540512,985056,2,0.98926,0.04688,0.58618,-13.336,0.023,0.687
2026-06-02 15:26:41.256,2297540712,985256,1,0.87061,-0.06079,0.42773,-23.656,-4.603,-11.641
2026-06-02 15:26:41.256,2297540712,985256,2,0.94849,0.05371,0.62671,-30.84,-5.115,4.137
2026-06-02 15:26:41.456,2297540912,985456,1,0.84912,-0.1167,0.43945,-31.229,-2.916,-15.267
2026-06-02 15:26:41.456,2297540912,985456,2,0.93311,0.02905,0.6228,-41.183,-8.412,-0.198
2026-06-02 15:26:41.656,2297541112,985656,1,0.90649,-0.16577,0.39453,-18.321,-0.809,-1.115
2026-06-02 15:26:41.656,2297541112,985656,2,0.9668,-0.03247,0.6416,-14.641,3.015,3.13
2026-06-02 15:26:41.856,2297541312,985856,1,0.91309,-0.177,0.38403,35.695,1.939,33.267
2026-06-02 15:26:41.856,2297541312,985856,2,0.96484,-0.00293,0.60669,69.359,15.511,18.573
2026-06-02 15:26:42.056,2297541512,986056,1,0.81201,-0.2146,0.46313,55.153,-3.443,44.809
2026-06-02 15:26:42.056,2297541512,986056,2,0.90576,0.00366,0.65747,70.16,8.374,15.824
2026-06-02 15:26:42.256,2297541712,986256,1,0.8855,-0.17456,0.37158,58.351,-3.802,43.908
2026-06-02 15:26:42.256,2297541712,986256,2,1.02051,0.02026,0.62891,68.786,8.985,9.389
2026-06-02 15:26:42.456,2297541912,986456,1,0.89868,-0.17749,0.39697,23.702,8.038,22.634
2026-06-02 15:26:42.456,2297541912,986456,2,0.93823,0.00391,0.6709,36.557,15.481,16.206
2026-06-02 15:26:42.656,2297542112,986656,1,0.81445,-0.28174,0.40967,10.71,15.687,7.214
2026-06-02 15:26:42.656,2297542112,986656,2,0.90479,-0.02832,0.72803,0.229,12.809,-11.756
2026-06-02 15:26:42.856,2297542312,986856,1,0.84399,-0.20923,0.4939,28.595,13.771,-3.221
2026-06-02 15:26:42.856,2297542312,986856,2,1.08325,0.1814,0.89502,29.366,-4.649,-15.534
2026-06-02 15:26:43.056,2297542512,987056,1,0.5979,0.19409,0.72095,12.557,11.916,1.084
2026-06-02 15:26:43.056,2297542512,987056,2,0.88086,0.55859,0.76685,30.489,6.733,4.206
2026-06-02 15:26:43.256,2297542712,987256,1,0.61426,0.15747,0.6189,-37.427,-19.573,-28.748
2026-06-02 15:26:43.256,2297542712,987256,2,0.79346,0.4856,0.65942,-43.008,-20.351,-0.679
2026-06-02 15:26:43.456,2297542912,987456,1,0.80566,-0.28076,0.49512,-53.84,-28.626,-24.252
2026-06-02 15:26:43.456,2297542912,987456,2,0.98657,0.11646,0.71338,-250.137,-40.74,-116.374
2026-06-02 15:26:43.656,2297543112,987656,1,0.84058,-0.24634,0.4939,-22.748,6.397,-16.931
2026-06-02 15:26:43.656,2297543112,987656,2,0.89526,-0.11304,0.81763,-131.626,-12.641,-27.55
2026-06-02 15:26:43.856,2297543312,987856,1,0.73975,-0.32422,0.52393,9.29,-7.176,6.305
2026-06-02 15:26:43.856,2297543312,987856,2,0.97705,-0.02856,0.82446,-27.718,-9.885,-16.29
2026-06-02 15:26:44.056,2297543512,988056,1,0.83472,-0.18286,0.43018,25.863,16.435,-5.42
2026-06-02 15:26:44.056,2297543512,988056,2,0.95068,0.03979,0.83179,31.382,16.733,-2.573
2026-06-02 15:26:44.256,2297543712,988256,1,0.68872,0.19507,0.65283,25.092,41.099,12.763
2026-06-02 15:26:44.256,2297543712,988256,2,0.76709,0.45386,0.66699,2.885,24.702,-19.023
2026-06-02 15:26:44.456,2297543912,988456,1,0.67261,0.13135,0.62012,-27.176,24.389,-14.794
2026-06-02 15:26:44.456,2297543912,988456,2,0.82324,0.15405,0.93433,-54.588,22.588,-7.328
2026-06-02 15:26:44.656,2297544112,988656,1,0.51196,-0.12183,0.77686,-16.939,19.756,0.282
2026-06-02 15:26:44.656,2297544112,988656,2,0.7832,0.16797,0.99146,-25.977,8.733,-12.107
2026-06-02 15:26:44.856,2297544312,988856,1,0.50464,-0.09839,0.74536,-6.244,-19.389,-0.855
2026-06-02 15:26:44.856,2297544312,988856,2,0.69409,-0.01855,0.96069,-17.481,-20.71,3.473
2026-06-02 15:26:45.056,2297544512,989056,1,0.62427,-0.1665,0.6001,11.115,-25.13,5.443
2026-06-02 15:26:45.056,2297544512,989056,2,0.80566,-0.01099,0.94043,-19.748,-18.244,-2.122
2026-06-02 15:26:45.256,2297544712,989256,1,0.61719,0.05469,0.61475,10.893,23.809,-0.641
2026-06-02 15:26:45.256,2297544712,989256,2,0.67188,0.14233,0.8418,-26.84,2.565,-5.573
2026-06-02 15:26:45.456,2297544912,989456,1,0.52563,-0.00488,0.62817,2.282,7.947,-4.656
2026-06-02 15:26:45.456,2297544912,989456,2,0.71265,0.25073,0.89355,-14.702,4.527,-11.229
2026-06-02 15:26:45.656,2297545112,989656,1,0.57886,0.03833,0.62524,2.382,4.137,-6.183
2026-06-02 15:26:45.656,2297545112,989656,2,0.78369,0.29541,0.94507,5.244,-3.076,3.672
2026-06-02 15:26:45.856,2297545312,989856,1,0.73926,0.01563,0.92188,-23.183,-11.832,-11.466
2026-06-02 15:26:45.856,2297545312,989856,2,1.14819,0.23804,1.07349,-0.145,-14.863,6.229
2026-06-02 15:26:46.056,2297545512,990056,1,0.63379,0.01758,0.677,-20.427,25.992,-3.405
2026-06-02 15:26:46.056,2297545512,990056,2,0.8313,0.20483,1.0249,-5.466,31.229,-2.679
2026-06-02 15:26:46.256,2297545712,990256,1,0.18994,-0.06104,0.64966,0.885,50.794,10.55
2026-06-02 15:26:46.256,2297545712,990256,2,0.6543,0.00708,1.15088,16.618,-3.229,10.779
2026-06-02 15:26:46.456,2297545912,990456,1,0.36987,0.05957,0.70459,27.641,-3.176,46.305
2026-06-02 15:26:46.456,2297545912,990456,2,0.63257,0.62109,0.85718,22.435,-1.046,23.847
2026-06-02 15:26:46.656,2297546112,990656,1,0.41724,0.15649,0.8396,-30.13,-0.985,-2.901
2026-06-02 15:26:46.656,2297546112,990656,2,0.72534,0.41992,1.00244,-66.87,-20.26,3.092
2026-06-02 15:26:46.856,2297546312,990856,1,0.44312,-0.4436,0.76245,-25.153,7.45,-12.916
2026-06-02 15:26:46.856,2297546312,990856,2,0.71411,-0.00977,1.0105,-6.939,4.756,-4.298
2026-06-02 15:26:47.056,2297546512,991056,1,0.47778,-0.27637,0.65381,19.145,-17.382,11.527
2026-06-02 15:26:47.056,2297546512,991056,2,0.61719,0.33276,0.99414,2.863,9.824,-4.824
2026-06-02 15:26:47.256,2297546712,991256,1,0.32764,-0.05688,0.51953,8.382,13.321,-19.443
2026-06-02 15:26:47.256,2297546712,991256,2,0.6311,0.11621,0.92651,32.466,16.366,5.389
2026-06-02 15:26:47.456,2297546912,991456,1,0.27124,-0.04663,0.73633,8.061,-0.321,4.008
2026-06-02 15:26:47.456,2297546912,991456,2,0.55322,0.24268,0.93311,-14.84,-9.099,-9.748
2026-06-02 15:26:47.656,2297547112,991656,1,0.52954,-0.08789,0.79834,-8.389,-49.13,-14.443
2026-06-02 15:26:47.656,2297547112,991656,2,0.90552,0.21777,1.0481,-19.023,-27.435,-4.374
2026-06-02 15:26:47.856,2297547312,991856,1,0.66772,-0.13892,0.84424,-11.809,-21.939,-16.893
2026-06-02 15:26:47.856,2297547312,991856,2,0.86548,0.21313,1.00928,19.099,-5.221,-1.832
2026-06-02 15:26:48.056,2297547512,992056,1,0.77344,-0.03003,0.78003,-9.595,-27.931,-7.588
2026-06-02 15:26:48.056,2297547512,992056,2,1.06519,0.24365,1.01563,0.634,-19.168,1.282
2026-06-02 15:26:48.256,2297547712,992256,1,0.88013,-0.1123,0.80469,-3.466,1.863,-11.626
2026-06-02 15:26:48.256,2297547712,992256,2,1.07739,0.11987,0.9585,-2.901,3.122,6.679
2026-06-02 15:26:48.456,2297547912,992456,1,0.68677,-0.11938,0.79614,-6.779,5.137,3.244
2026-06-02 15:26:48.456,2297547912,992456,2,1.02515,0.22021,0.98486,-3.397,-16.527,1.443
2026-06-02 15:26:48.656,2297548112,992656,1,0.79053,0.02075,0.70996,-3.931,-11.763,-2.473
2026-06-02 15:26:48.656,2297548112,992656,2,0.93018,0.15332,0.78247,-8.069,-13.13,6.748
2026-06-02 15:26:48.856,2297548312,992856,1,0.70264,-0.021,0.55054,-0.145,-5.87,8.183
2026-06-02 15:26:48.856,2297548312,992856,2,0.80713,0.16797,0.69556,4.954,-1.099,5.153
2026-06-02 15:26:49.056,2297548512,993056,1,0.67725,-0.02002,0.50391,-4.084,-4.802,-2.008
2026-06-02 15:26:49.056,2297548512,993056,2,0.75171,0.15771,0.66748,6.405,-2.122,2.137
2026-06-02 15:26:49.256,2297548712,993256,1,0.5376,-0.01929,0.39575,-3.565,-15.412,2.328
2026-06-02 15:26:49.256,2297548712,993256,2,0.69287,0.22339,0.70337,7.603,-8.588,3.992
2026-06-02 15:26:49.456,2297548912,993456,1,0.79785,-0.07056,0.52319,0.344,4.115,-1.275
2026-06-02 15:26:49.456,2297548912,993456,2,0.91357,0.20532,0.698,-5.252,1.595,-1.321
2026-06-02 15:26:49.656,2297549112,993656,1,0.84595,-0.05298,0.45996,5.305,13.763,-0.008
2026-06-02 15:26:49.656,2297549112,993656,2,0.88647,0.18018,0.7373,-1.893,17.481,-5.702
2026-06-02 15:26:49.856,2297549312,993856,1,0.67505,-0.04175,0.44409,-5.023,36.916,-2.969
2026-06-02 15:26:49.856,2297549312,993856,2,0.73706,0.15698,0.75464,-12.084,40.153,-14.29
2026-06-02 15:26:50.056,2297549512,994056,1,0.48071,-0.03467,0.44873,2.672,38.328,-1.969
2026-06-02 15:26:50.056,2297549512,994056,2,0.60278,0.19946,0.83496,0.565,31.031,-9.107
2026-06-02 15:26:50.256,2297549712,994256,1,0.43164,-0.08228,0.72925,-2.954,17.901,-2.008
2026-06-02 15:26:50.256,2297549712,994256,2,0.74243,0.17773,1.06665,-27.626,-10.466,-5.069
2026-06-02 15:26:50.456,2297549912,994456,1,0.53247,0.02026,0.92603,-1.992,1.489,0.252
2026-06-02 15:26:50.456,2297549912,994456,2,0.87109,0.25757,1.09106,-4.405,-3.985,1.847
2026-06-02 15:26:50.656,2297550112,994656,1,0.5415,-0.02954,0.88525,1.939,-3.076,12.153
2026-06-02 15:26:50.656,2297550112,994656,2,0.89404,0.27026,1.0625,17.511,7.237,5.656
2026-06-02 15:26:50.856,2297550312,994856,1,0.58105,0.021,0.92456,2.908,-3.183,7.473
2026-06-02 15:26:50.856,2297550312,994856,2,0.9856,0.33105,1.14551,1.313,3.954,2.237
2026-06-02 15:26:51.056,2297550512,995056,1,0.61646,0.02295,1.10571,7.603,2.0,-1.275
2026-06-02 15:26:51.056,2297550512,995056,2,0.90747,0.33252,1.0874,-2.275,1.473,-5.679
2026-06-02 15:26:51.256,2297550712,995256,1,0.39893,0.04858,0.67065,-8.496,-18.313,-5.962
2026-06-02 15:26:51.256,2297550712,995256,2,0.60083,0.25073,0.8606,-10.023,-21.397,1.771
2026-06-02 15:26:51.456,2297550912,995456,1,0.45337,0.00977,0.54224,-11.282,-41.626,-3.328
2026-06-02 15:26:51.456,2297550912,995456,2,0.75342,0.16821,0.79907,-2.046,-38.534,15.145
2026-06-02 15:26:51.656,2297551112,995656,1,0.61914,-0.02051,0.40894,-7.473,-40.817,2.84
2026-06-02 15:26:51.656,2297551112,995656,2,0.7583,0.1543,0.69263,-1.069,-28.397,12.74
2026-06-02 15:26:51.856,2297551312,995856,1,0.84985,-0.06274,0.47729,-6.809,-16.824,3.275
2026-06-02 15:26:51.856,2297551312,995856,2,0.92285,0.13354,0.71973,-0.817,-7.534,6.573
2026-06-02 15:26:52.056,2297551512,996056,1,0.83569,-0.06055,0.49487,6.008,3.198,6.771
2026-06-02 15:26:52.056,2297551512,996056,2,0.94482,0.19922,0.69214,15.802,5.588,1.656
2026-06-02 15:26:52.256,2297551712,996256,1,0.77124,-0.01416,0.45435,-1.053,27.748,-8.565
2026-06-02 15:26:52.256,2297551712,996256,2,0.76807,0.15796,0.70239,-16.855,33.389,-17.985
2026-06-02 15:26:52.456,2297551912,996456,1,0.4856,0.01221,0.44678,1.687,39.924,-7.527
2026-06-02 15:26:52.456,2297551912,996456,2,0.67578,0.19604,0.80371,-9.305,23.374,-12.947
2026-06-02 15:26:52.656,2297552112,996656,1,0.5415,0.04883,0.6106,-0.275,29.863,-8.901
2026-06-02 15:26:52.656,2297552112,996656,2,0.91284,0.20947,1.0415,-3.908,-1.122,13.931
2026-06-02 15:26:53.082,2297552538,997082,1,0.6416,-0.01978,0.90332,-8.573,-12.893,7.977
2026-06-02 15:26:53.082,2297552538,997082,2,0.99976,0.22437,1.09473,-9.344,-5.649,4.137
2026-06-02 15:26:53.282,2297552738,997282,1,0.82373,-0.07959,0.8584,-7.611,-0.565,-4.389
2026-06-02 15:26:53.282,2297552738,997282,2,0.96509,0.19971,0.97974,6.779,-14.115,0.137
2026-06-02 15:26:53.482,2297552938,997482,1,0.77783,-0.0061,0.927,5.504,-16.344,-11.855
2026-06-02 15:26:53.482,2297552938,997482,2,1.06909,0.20117,0.97046,-13.214,-9.153,-5.351
2026-06-02 15:26:53.682,2297553138,997682,1,0.74023,-0.01025,0.71973,-10.466,-13.55,-3.618
2026-06-02 15:26:53.682,2297553138,997682,2,0.85522,0.18384,0.87354,9.198,-9.412,7.947
2026-06-02 15:26:53.882,2297553338,997882,1,0.60938,-0.03149,0.52197,-3.603,-13.267,7.473
2026-06-02 15:26:53.882,2297553338,997882,2,0.66577,0.10669,0.69946,-0.71,-4.878,4.588
2026-06-02 15:26:54.082,2297553538,998082,1,0.49365,-0.03784,0.39404,-4.733,-25.092,12.695
2026-06-02 15:26:54.082,2297553538,998082,2,0.68994,0.17334,0.71411,7.855,-21.16,10.878
2026-06-02 15:26:54.282,2297553738,998282,1,0.81787,-0.09766,0.44067,-0.443,-14.634,-0.344
2026-06-02 15:26:54.282,2297553738,998282,2,0.90918,0.15552,0.70825,5.229,0.092,0.282
2026-06-02 15:26:54.482,2297553938,998482,1,0.90308,-0.05444,0.41553,3.557,11.366,-3.252
2026-06-02 15:26:54.482,2297553938,998482,2,0.91187,0.18457,0.7002,6.962,23.076,-6.328
2026-06-02 15:26:54.682,2297554138,998682,1,0.6123,-0.07056,0.40527,6.168,37.046,0.435
2026-06-02 15:26:54.682,2297554138,998682,2,0.67383,0.16846,0.71631,4.908,36.229,-9.214
2026-06-02 15:26:54.882,2297554338,998882,1,0.42896,-0.11182,0.43921,-0.374,38.328,-1.214
2026-06-02 15:26:54.882,2297554338,998882,2,0.72437,0.24731,0.84961,15.435,39.13,-1.191
2026-06-02 15:26:55.082,2297554538,999082,1,0.55493,-0.03735,0.84351,-2.634,28.038,-0.542
2026-06-02 15:26:55.082,2297554538,999082,2,0.85522,0.28442,1.02808,5.176,15.779,-3.069
2026-06-02 15:26:55.282,2297554738,999282,1,0.50854,-0.02686,0.94092,-0.069,11.863,-0.763
2026-06-02 15:26:55.282,2297554738,999282,2,0.82886,0.25293,1.11987,-17.099,2.198,-3.511
2026-06-02 15:26:55.482,2297554938,999482,1,0.55225,-0.14453,0.927,-9.405,-15.656,4.992
2026-06-02 15:26:55.482,2297554938,999482,2,0.94434,0.32959,1.14795,0.328,11.939,-2.359
2026-06-02 15:26:55.682,2297555138,999682,1,0.51367,-0.09351,1.04053,5.168,7.977,-2.191
2026-06-02 15:26:55.682,2297555138,999682,2,0.92578,0.32202,1.22583,0.656,1.74,-0.092
2026-06-02 15:26:55.882,2297555338,999882,1,0.45044,-0.052,0.91992,-0.908,-9.076,1.008
2026-06-02 15:26:55.882,2297555338,999882,2,0.68994,0.24683,1.03003,1.305,-19.489,4.817
2026-06-02 15:26:56.082,2297555538,1000082,1,0.40503,-0.03076,0.64819,-3.305,-31.519,0.985
2026-06-02 15:26:56.082,2297555538,1000082,2,0.63306,0.16577,0.83838,4.634,-38.573,13.015
2026-06-02 15:26:56.282,2297555738,1000282,1,0.46631,-0.04614,0.41187,-2.611,-48.55,4.611
2026-06-02 15:26:56.282,2297555738,1000282,2,0.62012,0.18066,0.71436,12.84,-40.534,18.435
2026-06-02 15:26:56.482,2297555938,1000482,1,0.79565,-0.03955,0.46362,-2.29,-31.977,2.42
2026-06-02 15:26:56.482,2297555938,1000482,2,0.92383,0.1665,0.72485,5.702,-20.031,13.427
2026-06-02 15:26:56.682,2297556138,1000682,1,0.87402,-0.06909,0.42432,-2.481,-15.611,1.496
2026-06-02 15:26:56.682,2297556138,1000682,2,0.96582,0.13379,0.65356,-2.183,-3.618,4.26
2026-06-02 15:26:56.882,2297556338,1000882,1,0.87891,-0.06714,0.41406,-4.885,7.611,0.137
2026-06-02 15:26:56.882,2297556338,1000882,2,0.91406,0.13428,0.6687,-15.992,20.137,-9.115
2026-06-02 15:26:57.212,2297556668,1001211,1,0.4939,-0.04858,0.37793,8.084,50.87,0.496
2026-06-02 15:26:57.212,2297556668,1001211,2,0.70654,0.19727,0.81738,3.122,42.687,-7.87
2026-06-02 15:26:57.411,2297556867,1001411,1,0.57617,-0.02783,0.7063,-1.809,48.298,-4.863
2026-06-02 15:26:57.411,2297556867,1001411,2,0.82056,0.19336,1.00269,-24.74,34.084,-13.344
2026-06-02 15:26:57.611,2297557067,1001611,1,0.51978,-0.02368,0.90869,-7.656,17.779,-7.756
2026-06-02 15:26:57.611,2297557067,1001611,2,0.87329,0.19409,1.04565,-16.908,10.817,-1.656
2026-06-02 15:26:57.811,2297557267,1001811,1,0.5459,-0.04517,0.89966,-7.198,-4.695,0.786
2026-06-02 15:26:57.811,2297557267,1001811,2,0.89771,0.20337,1.15234,9.695,4.779,5.954
2026-06-02 15:26:58.069,2297557525,1002069,1,0.51392,-0.04126,0.82837,4.443,-1.618,6.511
2026-06-02 15:26:58.069,2297557525,1002069,2,0.91138,0.24463,1.11035,5.855,-0.58,3.573
2026-06-02 15:26:58.269,2297557725,1002269,1,0.55859,-0.0188,0.802,3.771,9.817,-11.924
2026-06-02 15:26:58.269,2297557725,1002269,2,0.88892,0.23096,1.23999,-1.137,-2.382,1.29
2026-06-02 15:26:58.555,2297558011,1002555,1,0.44971,-0.01367,0.87817,-6.458,-14.656,-2.947
2026-06-02 15:26:58.555,2297558011,1002555,2,0.72461,0.16211,0.94019,1.076,-24.656,4.718
2026-06-02 15:26:58.755,2297558211,1002755,1,0.44092,-0.04004,0.58325,-1.412,-25.519,9.908
2026-06-02 15:26:58.755,2297558211,1002755,2,0.61719,0.15259,0.71362,18.122,-22.321,13.992
2026-06-02 15:26:58.972,2297558428,1002972,1,0.48706,-0.08545,0.4314,-14.046,-51.183,1.656
2026-06-02 15:26:58.972,2297558428,1002972,2,0.85913,0.17847,0.7373,0.656,-36.672,8.725
2026-06-02 15:26:59.185,2297558641,1003185,1,0.87231,-0.0769,0.45972,2.305,-15.969,-1.198
2026-06-02 15:26:59.185,2297558641,1003185,2,0.90503,0.16138,0.73535,20.267,0.061,3.015
2026-06-02 15:26:59.385,2297558841,1003385,1,0.83032,-0.04199,0.47803,-0.992,1.267,-3.565
2026-06-02 15:26:59.385,2297558841,1003385,2,0.90747,0.15503,0.71631,-10.802,6.061,-3.855
2026-06-02 15:26:59.585,2297559041,1003585,1,0.6748,-0.09595,0.36865,-1.496,34.084,-5.412
2026-06-02 15:26:59.585,2297559041,1003585,2,0.61865,0.18555,0.70947,-0.29,36.969,-10.916
2026-06-02 15:26:59.802,2297559258,1003802,1,0.57446,-0.09204,0.51147,10.0,33.023,-1.313
2026-06-02 15:26:59.802,2297559258,1003802,2,0.82202,0.26514,0.89038,3.916,28.771,-8.687
2026-06-02 15:26:59.002,2297558458,1004002,1,0.59058,-0.03394,0.84229,-2.962,28.855,-4.29
2026-06-02 15:26:59.002,2297558458,1004002,2,0.83936,0.18555,1.11011,-6.45,15.427,4.969
2026-06-02 15:27:00.202,2297559658,1004202,1,0.48267,-0.02173,0.94116,-3.718,2.626,-7.267
2026-06-02 15:27:00.202,2297559658,1004202,2,0.84985,0.28613,1.00464,-10.947,-3.366,-4.611
2026-06-02 15:27:00.407,2297559863,1004407,1,0.40308,-0.02026,1.20947,-16.802,-27.0,-8.916
2026-06-02 15:27:00.407,2297559863,1004407,2,0.95996,0.20093,1.1748,-2.962,6.122,4.756
2026-06-02 15:27:00.905,2297560361,1004905,1,0.52197,-0.03906,0.70923,6.115,-26.321,12.053
2026-06-02 15:27:00.905,2297560361,1004905,2,0.71655,0.18579,0.79004,14.626,-23.076,12.71
2026-06-02 15:27:01.105,2297560561,1005105,1,0.48462,-0.03955,0.41357,-3.817,-35.885,9.519
2026-06-02 15:27:01.105,2297560561,1005105,2,0.62378,0.11353,0.66797,10.183,-33.13,15.58
2026-06-02 15:27:01.305,2297560761,1005305,1,0.67261,-0.05225,0.36475,5.954,-36.802,5.328
2026-06-02 15:27:01.305,2297560761,1005305,2,0.95483,0.15649,0.6875,6.924,-4.84,5.038
2026-06-02 15:27:01.536,2297560992,1005536,1,0.88721,-0.07349,0.43262,-1.542,-2.061,-2.786
2026-06-02 15:27:01.536,2297560992,1005536,2,0.94556,0.19922,0.71655,12.542,8.71,-1.229
2026-06-02 15:27:01.736,2297561192,1005736,1,0.76611,-0.04297,0.42529,-5.626,31.534,-3.824
2026-06-02 15:27:01.736,2297561192,1005736,2,0.74634,0.14404,0.69751,-19.0,28.84,-13.511
2026-06-02 15:27:01.952,2297561408,1005952,1,0.52319,-0.06543,0.35913,-2.328,51.351,-6.069
2026-06-02 15:27:01.952,2297561408,1005952,2,0.79199,0.15137,0.92065,-5.542,20.878,-6.038
2026-06-02 15:27:02.188,2297561644,1006187,1,0.53101,-0.00757,0.8584,9.969,43.74,6.015
2026-06-02 15:27:02.188,2297561644,1006187,2,0.79053,0.26221,1.02271,-4.366,21.794,0.496
2026-06-02 15:27:02.387,2297561843,1006387,1,0.44849,-0.03027,0.93164,-14.985,6.061,-6.496
2026-06-02 15:27:02.387,2297561843,1006387,2,0.8064,0.21265,1.177,-8.763,2.954,-4.084
2026-06-02 15:27:02.687,2297562143,1006687,1,0.46338,-0.08545,0.89917,-3.924,-8.702,-7.534
2026-06-02 15:27:02.687,2297562143,1006687,2,0.82324,0.18945,1.15942,-1.947,-2.107,2.55
2026-06-02 15:27:02.887,2297562343,1006887,1,0.51709,-0.04932,0.80298,-4.176,5.74,0.359
2026-06-02 15:27:02.887,2297562343,1006887,2,0.87305,0.17334,1.24561,2.931,-2.008,-1.435
2026-06-02 15:27:03.165,2297562621,1007165,1,0.51001,-0.07935,1.03076,-3.771,-2.458,-1.725
2026-06-02 15:27:03.165,2297562621,1007165,2,0.93579,0.18213,1.29395,5.687,-6.382,4.947
2026-06-02 15:27:03.371,2297562827,1007371,1,0.43091,-0.05615,0.80371,-3.977,-19.527,-2.115
2026-06-02 15:27:03.371,2297562827,1007371,2,0.63989,0.15283,0.95605,0.023,-30.573,6.573
2026-06-02 15:27:03.571,2297563027,1007571,1,0.43604,-0.05151,0.51904,-1.374,-42.534,3.939
2026-06-02 15:27:03.571,2297563027,1007571,2,0.54443,0.12769,0.66479,23.267,-34.588,9.847
2026-06-02 15:27:03.771,2297563227,1007771,1,0.63232,-0.06274,0.35059,-0.672,-66.962,2.534
2026-06-02 15:27:03.771,2297563227,1007771,2,0.89844,0.16016,0.75952,0.305,-40.771,14.16
2026-06-02 15:27:03.986,2297563442,1007986,1,0.89575,-0.10132,0.43774,1.74,-8.45,5.176
2026-06-02 15:27:03.986,2297563442,1007986,2,0.95996,0.1377,0.66919,2.74,2.183,2.588
2026-06-02 15:27:04.398,2297563854,1008398,1,0.83716,-0.06323,0.36743,-4.107,31.687,-3.725
2026-06-02 15:27:04.398,2297563854,1008398,2,0.79712,0.12476,0.70264,-13.763,32.626,-15.641
2026-06-02 15:27:04.598,2297564054,1008598,1,0.46533,-0.04028,0.40356,4.58,39.573,-3.305
2026-06-02 15:27:04.598,2297564054,1008598,2,0.60059,0.1626,0.73047,-2.214,29.344,-10.649
2026-06-02 15:27:04.829,2297564285,1008829,1,0.5437,-0.03076,0.74316,4.099,31.603,2.0
2026-06-02 15:27:04.829,2297564285,1008829,2,0.78369,0.32324,1.0979,-7.985,16.863,-2.824
2026-06-02 15:27:05.029,2297564485,1009029,1,0.58447,-0.02441,1.02148,1.405,11.481,-0.725
2026-06-02 15:27:05.029,2297564485,1009029,2,0.95581,0.26025,1.11792,4.679,5.26,5.275
2026-06-02 15:27:05.281,2297564737,1009281,1,0.40601,-0.04297,0.9873,-0.305,-3.626,7.115
2026-06-02 15:27:05.281,2297564737,1009281,2,0.90283,0.28955,1.10889,7.29,0.153,6.519
2026-06-02 15:27:05.481,2297564937,1009481,1,0.55176,-0.00659,1.06616,2.176,0.534,1.855
2026-06-02 15:27:05.481,2297564937,1009481,2,1.02612,0.29419,1.21265,-3.427,-10.397,-1.046
2026-06-02 15:27:05.681,2297565137,1009681,1,0.52759,-0.02686,0.89429,-4.115,-24.473,2.542
2026-06-02 15:27:05.681,2297565137,1009681,2,0.71973,0.22876,0.92065,5.809,-19.87,7.168
2026-06-02 15:27:05.881,2297565337,1009881,1,0.51465,-0.01172,0.52148,-1.023,-36.588,-0.855
2026-06-02 15:27:05.881,2297565337,1009881,2,0.66968,0.14819,0.67676,7.672,-30.573,14.153
2026-06-02 15:27:06.125,2297565581,1010125,1,0.55322,-0.02881,0.37964,-2.74,-36.137,4.901
2026-06-02 15:27:06.125,2297565581,1010125,2,0.8252,0.17529,0.69189,-0.176,-31.893,11.298
2026-06-02 15:27:06.325,2297565781,1010325,1,0.81885,-0.05908,0.49414,-3.824,-19.725,-2.122
2026-06-02 15:27:06.325,2297565781,1010325,2,0.96191,0.12866,0.70044,-8.534,-11.641,5.038
2026-06-02 15:27:06.525,2297565981,1010525,1,0.84473,-0.0376,0.48145,-0.672,-4.336,0.252
2026-06-02 15:27:06.525,2297565981,1010525,2,0.95654,0.16772,0.68042,-0.809,7.42,-2.87
2026-06-02 15:27:06.856,2297566312,1010856,1,0.62744,-0.07153,0.36841,-9.794,36.664,-5.855
2026-06-02 15:27:06.856,2297566312,1010856,2,0.6875,0.15771,0.82031,4.649,45.359,-13.809
2026-06-02 15:27:07.165,2297566621,1011165,1,0.4126,0.00879,0.66821,3.397,40.687,-0.427
2026-06-02 15:27:07.165,2297566621,1011165,2,0.78882,0.27588,0.95313,-8.733,16.847,0.183
2026-06-02 15:27:07.365,2297566821,1011365,1,0.56885,-0.07935,0.91333,-9.122,6.71,3.901
2026-06-02 15:27:07.365,2297566821,1011365,2,0.88452,0.28369,1.10376,-11.267,2.298,1.718
2026-06-02 15:27:07.568,2297567024,1011568,1,0.58252,-0.04883,0.94897,-2.611,3.55,0.901
2026-06-02 15:27:07.568,2297567024,1011568,2,0.89551,0.24146,1.12183,-11.237,0.916,0.672
2026-06-02 15:27:07.901,2297567357,1011901,1,0.4917,-0.06055,0.78394,-3.038,3.878,-2.458
2026-06-02 15:27:07.901,2297567357,1011901,2,0.90942,0.2229,1.16431,-7.504,-1.069,1.382
2026-06-02 15:27:08.193,2297567649,1012193,1,0.52295,-0.00928,1.11621,-9.244,-16.275,0.252
2026-06-02 15:27:08.193,2297567649,1012193,2,0.97876,0.25317,1.23877,16.931,-18.389,11.405
2026-06-02 15:27:08.393,2297567849,1012393,1,0.48413,-0.05737,0.76587,-2.878,-28.634,1.412
2026-06-02 15:27:08.393,2297567849,1012393,2,0.70435,0.16235,0.8396,1.405,-23.954,9.626
2026-06-02 15:27:08.707,2297568163,1012707,1,0.46021,-0.01929,0.32324,0.321,-41.298,10.626
2026-06-02 15:27:08.707,2297568163,1012707,2,0.83765,0.25244,0.74683,19.267,-20.71,12.855
2026-06-02 15:27:08.928,2297568384,1012928,1,0.79419,-0.05566,0.54346,-2.641,-13.221,-3.168
2026-06-02 15:27:08.928,2297568384,1012928,2,0.95679,0.20166,0.65576,42.466,-1.0,9.565
2026-06-02 15:27:09.128,2297568584,1013128,1,0.85962,-0.07861,0.45239,0.718,-1.122,-0.649
2026-06-02 15:27:09.128,2297568584,1013128,2,0.93213,0.16016,0.68555,0.695,7.977,1.176
2026-06-02 15:27:09.328,2297568784,1013328,1,0.76709,-0.03271,0.42236,-3.588,28.947,-4.45
2026-06-02 15:27:09.328,2297568784,1013328,2,0.58325,0.1731,0.76733,-13.939,36.038,-14.954
2026-06-02 15:27:09.591,2297569047,1013591,1,0.49146,-0.0437,0.45483,3.458,38.221,-5.015
2026-06-02 15:27:09.591,2297569047,1013591,2,0.72949,0.23828,0.8042,-6.855,33.779,-16.985
2026-06-02 15:27:09.791,2297569247,1013791,1,0.46655,-0.07349,0.78198,-0.366,22.58,-0.672
2026-06-02 15:27:09.791,2297569247,1013791,2,0.82666,0.32446,0.9729,0.626,13.099,-3.962
2026-06-02 15:27:09.991,2297569447,1013991,1,0.55884,-0.02222,0.94312,-1.794,6.893,-0.237
2026-06-02 15:27:09.991,2297569447,1013991,2,0.84375,0.29541,1.05957,-0.237,8.55,-0.916
2026-06-02 15:27:10.248,2297569704,1014248,1,0.50342,-0.0564,1.01636,-12.168,-9.344,-0.359
2026-06-02 15:27:10.248,2297569704,1014248,2,0.86621,0.25635,1.01172,0.817,8.924,-5.817
2026-06-02 15:27:10.470,2297569926,1014470,1,0.5603,-0.04004,0.92871,-0.603,-1.779,-4.634
2026-06-02 15:27:10.470,2297569926,1014470,2,0.94312,0.2478,1.16479,-6.855,-5.076,-3.794
2026-06-02 15:27:10.670,2297570126,1014670,1,0.52515,-0.02295,0.94775,1.435,-10.771,4.809
2026-06-02 15:27:10.670,2297570126,1014670,2,0.75659,0.26392,0.96582,4.504,-15.206,5.954
2026-06-02 15:27:10.870,2297570326,1014870,1,0.46509,-0.00879,0.65088,-3.84,-25.809,0.206
2026-06-02 15:27:10.870,2297570326,1014870,2,0.63574,0.20044,0.78467,2.992,-29.672,9.489
2026-06-02 15:27:11.070,2297570526,1015070,1,0.47949,0.01123,0.44702,-8.664,-40.046,-2.214
2026-06-02 15:27:11.070,2297570526,1015070,2,0.67822,0.17188,0.69092,7.435,-35.328,15.679
2026-06-02 15:27:11.270,2297570726,1015270,1,0.74902,0.00903,0.4126,5.672,-35.542,4.29
2026-06-02 15:27:11.270,2297570726,1015270,2,0.97119,0.12476,0.65796,3.107,-16.977,19.649
2026-06-02 15:27:11.471,2297570927,1015470,1,0.88574,-0.06689,0.4292,-2.321,-20.58,11.321
2026-06-02 15:27:11.471,2297570927,1015470,2,0.9502,0.19507,0.60815,-2.733,0.061,6.244
2026-06-02 15:27:11.670,2297571126,1015670,1,0.8479,-0.05103,0.44189,-13.847,-10.55,-2.252
2026-06-02 15:27:11.670,2297571126,1015670,2,0.97412,0.14209,0.61279,-10.359,-6.015,9.099
2026-06-02 15:27:11.870,2297571326,1015870,1,0.90698,-0.03442,0.39502,-21.817,-8.26,-8.863
2026-06-02 15:27:11.870,2297571326,1015870,2,0.97729,0.14282,0.59302,-43.71,-8.985,-0.099
2026-06-02 15:27:12.070,2297571526,1016070,1,0.92578,-0.03955,0.36328,-57.374,1.397,-29.458
2026-06-02 15:27:12.070,2297571526,1016070,2,0.98145,0.13159,0.55151,-68.221,-4.527,0.229
2026-06-02 15:27:12.270,2297571726,1016270,1,0.91602,-0.07178,0.36743,-93.198,5.565,-62.489
2026-06-02 15:27:12.270,2297571726,1016270,2,0.91992,-0.02612,0.5874,-109.916,12.733,-2.29
2026-06-02 15:27:12.608,2297572064,1016608,1,0.948,-0.18433,0.29492,-104.351,45.015,-51.84
2026-06-02 15:27:12.608,2297572064,1016608,2,1.1499,-0.33813,0.646,-130.969,29.809,-23.481
2026-06-02 15:27:12.825,2297572281,1016825,1,0.80127,-0.33057,0.35132,13.031,13.611,0.26
2026-06-02 15:27:12.825,2297572281,1016825,2,0.87671,-0.14429,0.62427,-0.824,0.55,-20.252
2026-06-02 15:27:12.025,2297571481,1017025,1,0.81787,-0.20361,0.43726,27.779,-10.634,-16.473
2026-06-02 15:27:12.025,2297571481,1017025,2,0.87793,0.05688,0.59351,14.16,20.962,-33.542
2026-06-02 15:27:13.225,2297572681,1017225,1,0.74585,0.26514,0.71777,-43.137,-16.687,-51.542
2026-06-02 15:27:13.225,2297572681,1017225,2,0.8374,0.16284,0.82349,-68.45,-34.092,-20.229
2026-06-02 15:27:13.425,2297572881,1017425,1,0.82104,0.10986,0.45093,-30.595,-13.122,-19.053
2026-06-02 15:27:13.425,2297572881,1017425,2,0.86035,0.22266,0.69434,-55.718,-33.359,-20.511
2026-06-02 15:27:13.625,2297573081,1017625,1,0.8667,0.12964,0.43726,-60.237,-6.649,-17.779
2026-06-02 15:27:13.625,2297573081,1017625,2,0.98779,0.16138,0.62573,-50.29,-26.412,9.084
2026-06-02 15:27:13.825,2297573281,1017825,1,0.9436,-0.0813,0.36841,-40.916,-5.305,5.015
2026-06-02 15:27:13.825,2297573281,1017825,2,0.89209,0.1416,0.46094,-7.031,-2.786,19.282
2026-06-02 15:27:14.075,2297573531,1018075,1,0.97192,-0.15405,0.45288,-14.794,0.427,17.634
2026-06-02 15:27:14.075,2297573531,1018075,2,0.92432,0.10791,0.61768,-6.893,15.702,12.115
2026-06-02 15:27:14.275,2297573731,1018275,1,0.81079,-0.323,0.46094,-14.779,25.359,-9.916
2026-06-02 15:27:14.275,2297573731,1018275,2,0.96558,-0.06934,0.68237,-28.053,24.107,0.565
2026-06-02 15:27:14.475,2297573931,1018475,1,0.69678,-0.35693,0.51294,0.641,0.634,-14.298
2026-06-02 15:27:14.475,2297573931,1018475,2,0.7915,-0.23511,0.73462,26.481,-15.427,3.626
2026-06-02 15:27:14.675,2297574131,1018675,1,0.7334,-0.10352,0.46875,17.588,-39.16,24.031
2026-06-02 15:27:14.675,2297574131,1018675,2,0.95044,0.14404,0.61768,-19.534,-53.809,6.061
2026-06-02 15:27:14.893,2297574349,1018892,1,0.96021,-0.16772,0.34009,3.664,-25.16,20.542
2026-06-02 15:27:14.893,2297574349,1018892,2,0.99878,0.07153,0.55737,33.435,-4.832,21.374
2026-06-02 15:27:15.124,2297574580,1019124,1,0.94946,-0.28198,0.28662,-7.405,1.015,9.832
2026-06-02 15:27:15.124,2297574580,1019124,2,0.96021,-0.0144,0.5105,27.137,5.122,8.771
2026-06-02 15:27:15.324,2297574780,1019324,1,0.91968,-0.33911,0.29004,2.893,1.412,9.183
2026-06-02 15:27:15.324,2297574780,1019324,2,0.9729,-0.01978,0.48608,12.756,3.214,6.313
2026-06-02 15:27:15.524,2297574980,1019524,1,0.90405,-0.32446,0.27148,-4.687,5.153,6.893
2026-06-02 15:27:15.524,2297574980,1019524,2,0.96973,-0.02026,0.49854,-18.756,-0.985,-4.527
2026-06-02 15:27:15.878,2297575334,1019878,1,0.89087,-0.38037,0.29395,-2.695,-14.588,1.221
2026-06-02 15:27:15.878,2297575334,1019878,2,0.93457,-0.0708,0.42358,20.557,-7.191,10.679
2026-06-02 15:27:16.164,2297575620,1020164,1,0.92407,-0.41333,0.17456,-15.0,-14.527,0.557
