datetime,epoch_ms,ts_millis,mpu_id,ax,ay,az,gx,gy,gz
2026-05-20 17:31:07.048,1181806504,312048,2,0.99097,-0.24658,-0.19092,7.389,-2.076,-1.031
2026-05-20 17:31:24.931,1181824387,328931,1,0.96777,-0.08691,0.26685,65.382,9.656,4.771
2026-05-20 17:31:24.931,1181824387,328931,2,1.03296,-0.27222,-0.35889,-1.962,-8.931,5.313
2026-05-20 17:31:25.547,1181825003,329547,1,0.97681,-0.0874,0.41919,7.649,30.832,-9.573
2026-05-20 17:31:25.547,1181825003,329547,2,0.80957,-0.55151,-0.44873,-86.313,0.107,31.466
2026-05-20 17:31:25.259,1181824715,330259,1,1.0376,-0.15381,0.3291,-21.954,-5.153,6.412
2026-05-20 17:31:25.259,1181824715,330259,2,0.98608,-0.33325,-0.29077,-19.786,1.527,4.954
2026-05-20 17:31:26.648,1181826104,330648,1,1.03833,-0.15063,0.25977,10.374,-11.26,8.473
2026-05-20 17:31:26.648,1181826104,330648,2,0.93945,-0.26709,-0.31396,5.29,3.405,7.16
2026-05-20 17:31:26.854,1181826310,330854,1,1.05273,-0.24561,0.26855,1.748,2.412,-6.511
2026-05-20 17:31:26.854,1181826310,330854,2,1.02246,-0.30762,-0.20752,13.847,3.863,-5.412
2026-05-20 17:31:26.246,1181825702,331246,1,1.0498,-0.13525,0.30493,26.099,14.008,-7.237
2026-05-20 17:31:26.246,1181825702,331246,2,0.96411,-0.28589,-0.22388,11.893,0.13,-12.221
2026-05-20 17:31:27.482,1181826938,331482,1,1.01831,0.0647,0.29517,14.779,24.29,-10.679
2026-05-20 17:31:27.482,1181826938,331482,2,1.06665,-0.23633,-0.02832,-6.489,18.901,2.374
2026-05-20 17:31:27.691,1181827147,331691,1,0.96826,-0.06665,0.47754,11.718,-0.855,-2.969
2026-05-20 17:31:27.691,1181827147,331691,2,0.99512,-0.27441,-0.18799,0.794,6.725,0.198
2026-05-20 17:31:27.891,1181827347,331891,1,0.99976,-0.02319,0.4458,-24.481,-4.733,-1.992
2026-05-20 17:31:27.891,1181827347,331891,2,0.97485,-0.22949,-0.25073,-15.618,10.656,2.153
2026-05-20 17:31:27.091,1181826547,332091,1,1.01636,-0.06616,0.38721,-20.252,-5.71,-1.031
2026-05-20 17:31:27.091,1181826547,332091,2,0.99023,-0.26758,-0.18457,-0.061,4.031,-2.069
2026-05-20 17:31:28.446,1181827902,332446,1,1.02026,-0.06348,0.41431,0.389,1.618,0.16
2026-05-20 17:31:28.446,1181827902,332446,2,1.00195,-0.25562,-0.17236,10.725,-8.832,-2.55
2026-05-20 17:31:28.733,1181828189,332733,1,1.00537,-0.07764,0.38672,9.832,-8.389,1.985
2026-05-20 17:31:28.733,1181828189,332733,2,0.98999,-0.23169,-0.20215,6.084,-5.794,-1.412
2026-05-20 17:31:28.933,1181828389,332933,1,1.03174,-0.04395,0.33276,-0.214,-5.695,3.954
2026-05-20 17:31:28.933,1181828389,332933,2,0.99634,-0.28491,-0.17627,-2.359,-2.511,0.977
2026-05-20 17:31:28.133,1181827589,333133,1,1.03369,-0.07104,0.31348,7.863,-0.702,2.71
2026-05-20 17:31:28.133,1181827589,333133,2,0.98853,-0.26343,-0.22852,2.511,-1.969,-0.176
2026-05-20 17:31:29.498,1181828954,333497,1,1.02246,-0.10132,0.35132,18.939,8.359,1.45
2026-05-20 17:31:29.498,1181828954,333497,2,0.98511,-0.25513,-0.23486,-0.489,1.901,-0.008
2026-05-20 17:31:29.860,1181829316,333860,1,1.02563,-0.06812,0.38354,-2.863,-3.237,-1.344
2026-05-20 17:31:29.860,1181829316,333860,2,0.98413,-0.25098,-0.23071,0.031,-0.809,-0.206
2026-05-20 17:31:29.060,1181828516,334060,1,1.0249,-0.0415,0.35645,-4.282,-0.908,-0.695
2026-05-20 17:31:29.060,1181828516,334060,2,0.99048,-0.26611,-0.23511,0.557,0.427,-1.427
2026-05-20 17:31:29.260,1181828716,334260,1,1.00098,-0.06641,0.37451,2.679,-1.87,-1.985
2026-05-20 17:31:29.260,1181828716,334260,2,0.99121,-0.26392,-0.24878,0.061,-2.084,-3.115
2026-05-20 17:31:30.460,1181829916,334460,1,1.03491,-0.03564,0.34229,-4.42,-5.397,1.115
2026-05-20 17:31:30.460,1181829916,334460,2,0.98047,-0.22412,-0.25708,2.237,-1.695,-1.015
2026-05-20 17:31:30.660,1181830116,334660,1,1.01489,-0.04834,0.32544,0.305,-1.366,-0.336
2026-05-20 17:31:30.660,1181830116,334660,2,0.97046,-0.23828,-0.22632,1.863,-0.229,0.374
2026-05-20 17:31:30.860,1181830316,334860,1,1.0481,-0.04297,0.30786,17.099,-0.008,4.511
2026-05-20 17:31:30.860,1181830316,334860,2,1.04541,-0.21924,-0.26392,5.008,0.954,-0.107
2026-05-20 17:31:30.060,1181829516,335060,1,1.02124,-0.03516,0.35083,-3.58,-3.588,0.053
2026-05-20 17:31:30.060,1181829516,335060,2,1.00122,-0.24023,-0.24048,-4.542,0.618,1.29
2026-05-20 17:31:31.451,1181830907,335450,1,1.01611,-0.05737,0.33057,-2.13,3.168,0.786
2026-05-20 17:31:31.451,1181830907,335450,2,0.98486,-0.25708,-0.24341,-1.237,-2.992,1.305
2026-05-20 17:31:31.798,1181831254,335798,1,1.03003,-0.06006,0.31665,-3.832,1.038,-1.359
2026-05-20 17:31:31.798,1181831254,335798,2,0.97607,-0.25586,-0.24902,-3.023,0.183,1.015
2026-05-20 17:31:31.094,1181830550,336094,1,1.02344,-0.06421,0.32544,-1.191,1.221,-0.504
2026-05-20 17:31:31.094,1181830550,336094,2,0.9873,-0.24561,-0.24756,-1.779,0.786,0.214
2026-05-20 17:31:31.294,1181830750,336294,1,1.03394,-0.05566,0.33472,0.099,1.061,-0.824
2026-05-20 17:31:31.294,1181830750,336294,2,0.98755,-0.24194,-0.22607,-1.656,1.794,0.313
2026-05-20 17:31:32.074,1181831530,337074,1,1.01465,-0.06494,0.3374,3.656,-6.74,0.611
2026-05-20 17:31:32.074,1181831530,337074,2,0.93823,-0.23657,-0.25488,2.244,1.267,-2.802
2026-05-20 17:31:32.276,1181831732,337275,1,1.06714,-0.02417,0.30884,6.573,14.405,-1.42
2026-05-20 17:31:32.276,1181831732,337275,2,0.94971,-0.26587,-0.26099,-2.13,0.466,-0.344
2026-05-20 17:31:33.475,1181832931,337475,1,1.01855,-0.06299,0.33521,-5.046,-0.893,-2.427
2026-05-20 17:31:33.475,1181832931,337475,2,0.97363,-0.25098,-0.24878,-2.695,1.947,1.733
2026-05-20 17:31:33.675,1181833131,337675,1,1.02271,-0.05737,0.3291,-1.366,1.183,-0.771
2026-05-20 17:31:33.675,1181833131,337675,2,0.99683,-0.23828,-0.2251,-1.061,1.137,1.038
2026-05-20 17:31:33.886,1181833342,337886,1,1.03442,-0.06274,0.32715,-5.321,0.603,-1.053
2026-05-20 17:31:33.886,1181833342,337886,2,0.979,-0.25293,-0.23438,-2.0,1.733,1.137
2026-05-20 17:31:33.086,1181832542,338086,1,1.03125,-0.05981,0.32813,1.221,3.916,0.298
2026-05-20 17:31:33.086,1181832542,338086,2,0.99097,-0.23096,-0.23169,-2.221,1.229,1.435
2026-05-20 17:31:33.286,1181832742,338286,1,1.02808,-0.06421,0.32031,-1.244,3.008,-0.504
2026-05-20 17:31:33.286,1181832742,338286,2,0.98926,-0.24243,-0.23755,-2.794,1.412,1.374
2026-05-20 17:31:34.486,1181833942,338486,1,1.03125,-0.06519,0.33105,-1.061,1.763,-1.458
2026-05-20 17:31:34.486,1181833942,338486,2,0.99072,-0.23755,-0.22266,-2.321,0.779,0.817
2026-05-20 17:31:34.686,1181834142,338686,1,1.03052,-0.0564,0.33276,-1.893,1.183,-1.824
2026-05-20 17:31:34.686,1181834142,338686,2,0.99976,-0.24243,-0.24072,-3.053,0.168,0.206
2026-05-20 17:31:34.886,1181834342,338886,1,1.03149,-0.05811,0.32715,-1.542,0.565,-0.779
2026-05-20 17:31:34.886,1181834342,338886,2,0.9917,-0.25269,-0.24121,-1.489,-0.405,0.985
2026-05-20 17:31:34.086,1181833542,339086,1,1.03247,-0.06128,0.323,-5.359,-0.733,0.489
2026-05-20 17:31:34.086,1181833542,339086,2,0.98047,-0.24023,-0.2251,-2.511,1.71,1.389
2026-05-20 17:31:34.286,1181833742,339286,1,1.03638,-0.07349,0.31909,-6.092,0.328,0.038
2026-05-20 17:31:34.286,1181833742,339286,2,0.98901,-0.23779,-0.22803,-4.611,1.405,1.435
2026-05-20 17:31:35.486,1181834942,339486,1,1.03638,-0.0752,0.29907,-4.183,0.542,-0.397
2026-05-20 17:31:35.486,1181834942,339486,2,0.98999,-0.25024,-0.23755,-5.229,1.893,1.756
2026-05-20 17:31:35.686,1181835142,339686,1,1.03076,-0.06909,0.31885,-3.489,2.321,-0.893
2026-05-20 17:31:35.686,1181835142,339686,2,0.99829,-0.25513,-0.2334,-4.473,1.336,1.802
2026-05-20 17:31:35.886,1181835342,339886,1,1.0249,-0.07764,0.32031,-2.557,2.847,-1.832
2026-05-20 17:31:35.886,1181835342,339886,2,0.98877,-0.25073,-0.23242,-2.527,0.275,0.679
2026-05-20 17:31:35.087,1181834543,340087,1,1.02637,-0.06641,0.31958,-0.366,2.855,-1.153
2026-05-20 17:31:35.087,1181834543,340087,2,0.98315,-0.26099,-0.2395,-1.511,0.962,0.672
2026-05-20 17:31:35.287,1181834743,340287,1,1.03125,-0.06567,0.32446,0.275,1.115,-0.237
2026-05-20 17:31:35.287,1181834743,340287,2,0.98901,-0.25659,-0.24194,0.26,-0.374,0.664
2026-05-20 17:31:36.487,1181835943,340487,1,1.03271,-0.06445,0.32935,2.305,1.565,-0.153
2026-05-20 17:31:36.487,1181835943,340487,2,0.97754,-0.25195,-0.24341,-2.588,0.809,1.221
2026-05-20 17:31:36.694,1181836150,340694,1,1.02368,-0.07227,0.32983,-3.374,0.046,-0.29
2026-05-20 17:31:36.694,1181836150,340694,2,0.98682,-0.25342,-0.24463,-0.015,0.496,0.29
2026-05-20 17:31:36.894,1181836350,340894,1,1.02515,-0.07349,0.31201,-2.893,-1.206,-0.344
2026-05-20 17:31:36.894,1181836350,340894,2,0.98389,-0.25513,-0.2312,0.214,0.763,-0.389
2026-05-20 17:31:36.094,1181835550,341094,1,1.03613,-0.0752,0.30811,-3.496,-1.244,-0.519
2026-05-20 17:31:36.094,1181835550,341094,2,1.0144,-0.24316,-0.20605,-2.847,1.344,0.237
2026-05-20 17:31:36.294,1181835750,341294,1,1.08228,-0.09863,0.28369,-17.893,25.824,-11.405
2026-05-20 17:31:36.294,1181835750,341294,2,0.96899,-0.38477,-0.13867,-18.328,35.588,-2.863
2026-05-20 17:31:37.630,1181837086,341630,1,0.7771,0.11597,0.42383,-46.412,30.817,-18.191
2026-05-20 17:31:37.630,1181837086,341630,2,0.73779,-0.03857,0.21484,-9.687,72.527,11.206
2026-05-20 17:31:37.878,1181837334,341878,1,0.79639,-0.08618,0.55518,-5.947,16.42,-2.931
2026-05-20 17:31:37.878,1181837334,341878,2,0.8999,-0.26831,0.2041,1.481,54.74,4.84
2026-05-20 17:31:37.078,1181836534,342078,1,0.77148,0.03247,0.70142,19.847,-2.328,-6.275
2026-05-20 17:31:37.078,1181836534,342078,2,0.87573,-0.25879,0.36377,-13.092,27.176,-1.618
2026-05-20 17:31:37.278,1181836734,342278,1,1.15527,-0.052,0.95557,-42.496,-60.992,-8.824
2026-05-20 17:31:37.278,1181836734,342278,2,1.50977,-0.53979,0.4292,-41.618,-22.924,-0.664
2026-05-20 17:31:38.478,1181837934,342478,1,0.85376,-0.05688,0.53467,-2.45,-6.809,-18.122
2026-05-20 17:31:38.478,1181837934,342478,2,0.71216,-0.33154,0.13477,-0.847,-7.466,4.107
2026-05-20 17:31:38.678,1181838134,342678,1,0.91455,0.03101,0.53052,-27.588,-13.695,-1.122
2026-05-20 17:31:38.678,1181838134,342678,2,1.1377,-0.46802,0.25757,5.061,2.031,4.122
2026-05-20 17:31:38.878,1181838334,342878,1,1.04443,0.02222,0.78833,-1.382,1.672,-2.588
2026-05-20 17:31:38.878,1181838334,342878,2,1.52002,-0.57056,0.41846,15.695,3.328,-7.977
2026-05-20 17:31:38.078,1181837534,343078,1,0.87231,0.0061,0.78442,-1.206,65.359,-19.794
2026-05-20 17:31:38.078,1181837534,343078,2,0.89258,-0.31323,0.33374,9.962,18.763,2.16
2026-05-20 17:31:38.278,1181837734,343278,1,0.69238,0.14136,1.03027,-2.687,35.557,-3.115
2026-05-20 17:31:38.278,1181837734,343278,2,0.90503,-0.34961,0.41431,8.733,-1.321,-1.183
2026-05-20 17:31:39.478,1181838934,343478,1,0.63306,0.03027,0.85742,-3.351,-0.015,9.366
2026-05-20 17:31:39.478,1181838934,343478,2,0.76123,-0.22412,0.32813,-1.427,-5.71,-3.29
2026-05-20 17:31:39.678,1181839134,343678,1,0.31763,0.01294,0.73193,7.511,-49.366,17.427
2026-05-20 17:31:39.678,1181839134,343678,2,0.65649,-0.21313,0.12256,6.359,-62.313,0.695
2026-05-20 17:31:39.878,1181839334,343878,1,0.81348,0.03662,0.51367,53.13,-58.435,33.084
2026-05-20 17:31:39.878,1181839334,343878,2,1.01416,-0.31665,0.19604,10.985,-32.153,4.519
2026-05-20 17:31:39.078,1181838534,344078,1,1.05396,-0.01489,0.38965,13.908,-23.855,16.229
2026-05-20 17:31:39.078,1181838534,344078,2,1.00146,-0.25879,0.0415,1.42,-14.58,-4.771
2026-05-20 17:31:39.278,1181838734,344278,1,0.93701,-0.03906,0.52515,0.924,-1.305,0.344
2026-05-20 17:31:39.278,1181838734,344278,2,0.9834,-0.2915,-0.00708,-3.29,-3.374,-1.267
2026-05-20 17:31:40.520,1181839976,344520,1,0.96851,-0.04224,0.49731,-8.389,-2.672,-2.954
2026-05-20 17:31:40.520,1181839976,344520,2,0.98877,-0.26245,-0.02661,-7.901,-0.481,-0.023
2026-05-20 17:31:40.720,1181840176,344720,1,0.97339,-0.04492,0.47339,-6.405,-2.992,-1.618
2026-05-20 17:31:40.720,1181840176,344720,2,0.94019,-0.40942,0.22144,9.672,-10.252,-0.45
2026-05-20 17:31:42.278,1181841734,347278,1,0.86157,-0.01929,0.70483,14.626,-1.725,-0.275
2026-05-20 17:31:42.278,1181841734,347278,2,0.87378,-0.3147,0.15308,14.466,-28.351,-4.718
2026-05-20 17:31:43.478,1181842934,347478,1,0.95728,0.05518,0.56689,16.298,-20.244,7.176
2026-05-20 17:31:43.478,1181842934,347478,2,0.9978,-0.30225,0.11572,2.321,-20.183,-0.076
2026-05-20 17:31:43.754,1181843210,347754,1,0.9519,0.04346,0.5166,8.008,8.382,-6.847
2026-05-20 17:31:43.754,1181843210,347754,2,0.96826,-0.30176,0.03369,-2.069,-0.382,-0.84
2026-05-20 17:31:46.777,1181846233,350776,1,1.10181,-0.12573,0.24072,-11.863,21.992,-8.473
2026-05-20 17:31:46.777,1181846233,350776,2,1.02124,-0.30884,-0.07837,-5.71,10.802,-8.763
2026-05-20 17:31:46.976,1181846432,350976,1,0.97681,-0.20142,0.27466,-9.962,88.771,-19.824
2026-05-20 17:31:46.976,1181846432,350976,2,0.948,-0.24243,-0.08594,-8.885,80.511,-13.725
2026-05-20 17:31:46.176,1181845632,351176,1,0.57666,-0.01587,0.61108,5.992,134.16,-21.107
2026-05-20 17:31:46.176,1181845632,351176,2,0.84351,-0.28833,0.28711,-54.84,148.725,13.481
2026-05-20 17:31:46.376,1181845832,351376,1,0.13135,0.02783,1.11084,5.901,110.344,-8.099
2026-05-20 17:31:46.376,1181845832,351376,2,0.57153,-0.12891,0.41895,20.076,99.573,9.122
2026-05-20 17:31:47.576,1181847032,351576,1,-0.09668,0.01001,1.26343,16.092,57.26,-2.45
2026-05-20 17:31:47.576,1181847032,351576,2,0.32739,-0.18994,0.91357,22.183,54.618,-3.588
2026-05-20 17:31:47.776,1181847232,351776,1,-0.15234,0.0376,1.18799,-2.176,0.115,-3.588
2026-05-20 17:31:47.776,1181847232,351776,2,0.23267,-0.16968,0.84058,9.038,14.244,-2.252
2026-05-20 17:31:47.976,1181847432,351976,1,-0.09399,0.13818,1.21143,1.656,-16.679,6.794
2026-05-20 17:31:47.976,1181847432,351976,2,0.45752,-0.14893,0.98071,-16.969,-16.168,-4.198
2026-05-20 17:31:47.176,1181846632,352176,1,0.00903,0.07935,1.30615,-5.298,-11.763,0.374
2026-05-20 17:31:47.176,1181846632,352176,2,0.47485,-0.27466,0.86768,-26.374,-45.74,-1.427
2026-05-20 17:31:48.447,1181847903,352447,1,0.11426,0.04395,1.16064,-0.374,-74.008,12.405
2026-05-20 17:31:48.447,1181847903,352447,2,0.59937,-0.18433,0.47119,-18.855,-88.817,8.763
2026-05-20 17:31:48.647,1181848103,352647,1,0.33765,-0.0415,0.85254,9.885,-112.069,11.107
2026-05-20 17:31:48.647,1181848103,352647,2,0.77637,-0.33276,0.39697,-5.725,-90.427,-15.496
2026-05-20 17:31:48.847,1181848303,352847,1,0.73682,0.02124,0.61743,84.405,-88.649,39.664
2026-05-20 17:31:48.847,1181848303,352847,2,0.91138,-0.24756,0.21313,40.74,-50.885,-4.214
2026-05-20 17:31:48.047,1181847503,353047,1,1.04883,0.00269,0.43726,-9.603,-25.802,13.092
2026-05-20 17:31:48.047,1181847503,353047,2,1.03003,-0.38062,0.01758,-7.496,-11.863,-3.679
2026-05-20 17:31:48.285,1181847741,353285,1,1.02734,-0.02441,0.40015,-13.038,5.611,-4.221
2026-05-20 17:31:48.285,1181847741,353285,2,0.99731,-0.33862,0.03613,4.023,16.71,-9.374
2026-05-20 17:31:49.489,1181848945,353489,1,1.00659,-0.0481,0.46411,-8.656,37.855,-12.557
2026-05-20 17:31:49.489,1181848945,353489,2,1.05469,-0.19751,0.1709,3.229,40.695,-12.176
2026-05-20 17:31:49.689,1181849145,353689,1,0.76855,-0.05298,0.65527,-10.649,83.473,-20.847
2026-05-20 17:31:49.689,1181849145,353689,2,0.86523,-0.07568,0.22412,-6.519,105.573,13.595
2026-05-20 17:31:49.889,1181849345,353889,1,0.43774,0.03296,0.82471,-19.824,93.099,-33.0
2026-05-20 17:31:49.889,1181849345,353889,2,0.7251,-0.08252,0.35718,14.74,104.252,-1.908
2026-05-20 17:31:49.089,1181848545,354089,1,0.32275,-0.02026,1.05615,11.015,83.573,-7.359
2026-05-20 17:31:49.089,1181848545,354089,2,0.74341,-0.11084,0.78174,21.565,50.55,1.229
2026-05-20 17:31:49.289,1181848745,354289,1,0.05566,0.00293,1.19995,-1.0,48.046,-3.26
2026-05-20 17:31:49.289,1181848745,354289,2,0.49268,-0.19629,0.92529,6.153,25.664,5.328
2026-05-20 17:31:50.489,1181849945,354489,1,-0.30884,0.18311,1.53613,-13.031,16.351,4.603
2026-05-20 17:31:50.489,1181849945,354489,2,0.37329,-0.19263,0.8064,-1.099,8.771,1.733
2026-05-20 17:31:50.689,1181850145,354689,1,-0.13452,-0.04492,1.31445,6.962,-5.664,3.389
2026-05-20 17:31:50.689,1181850145,354689,2,0.49097,-0.16553,0.89404,-25.527,-57.359,0.565
2026-05-20 17:31:50.889,1181850345,354889,1,0.02417,0.00757,1.22534,5.511,-54.527,4.748
2026-05-20 17:31:50.889,1181850345,354889,2,0.73047,-0.24634,0.54907,-24.45,-94.374,-4.504
2026-05-20 17:31:50.156,1181849612,355155,1,0.39868,0.00146,0.82642,8.664,-106.878,21.511
2026-05-20 17:31:50.156,1181849612,355155,2,0.89966,-0.29028,0.27124,-12.58,-78.412,-4.542
2026-05-20 17:31:50.355,1181849811,355355,1,0.72021,-0.02563,0.62988,13.122,-98.214,37.496
2026-05-20 17:31:50.355,1181849811,355355,2,1.01196,-0.24609,0.1626,34.183,-73.412,-8.397
2026-05-20 17:31:51.555,1181851011,355555,1,0.89844,-0.17407,0.50903,86.16,-52.771,41.885
2026-05-20 17:31:51.555,1181851011,355555,2,1.0249,-0.2937,-0.08301,-2.023,-6.817,-0.061
2026-05-20 17:31:51.929,1181851385,355929,1,1.02979,-0.07031,0.3396,-26.87,-4.611,-4.0
2026-05-20 17:31:51.929,1181851385,355929,2,1.0022,-0.25537,-0.18091,7.275,-3.229,1.45
2026-05-20 17:31:51.129,1181850585,356129,1,1.03882,-0.11304,0.3418,-25.214,-6.542,-6.74
2026-05-20 17:31:51.129,1181850585,356129,2,1.0293,-0.29712,-0.14355,-8.137,-4.061,0.527
2026-05-20 17:31:51.329,1181850785,356329,1,1.06445,-0.13354,0.29199,2.145,5.252,-12.122
2026-05-20 17:31:51.329,1181850785,356329,2,0.99341,-0.2876,-0.18481,5.183,-5.252,-5.0
2026-05-20 17:31:52.529,1181851985,356529,1,1.03882,-0.08789,0.30151,4.725,6.313,0.092
2026-05-20 17:31:52.529,1181851985,356529,2,1.00879,-0.23853,-0.22852,15.359,-8.947,-5.649
2026-05-20 17:31:52.729,1181852185,356729,1,1.03613,-0.09521,0.3042,-8.427,3.061,-5.481
2026-05-20 17:31:52.729,1181852185,356729,2,0.95386,-0.26831,-0.1748,-2.817,7.382,-1.656
2026-05-20 17:31:52.929,1181852385,356929,1,1.04443,-0.02026,0.29761,8.282,0.443,-1.626
2026-05-20 17:31:52.929,1181852385,356929,2,0.98804,-0.2478,-0.15747,5.473,-3.107,-1.153
2026-05-20 17:31:52.129,1181851585,357129,1,1.03296,-0.0332,0.31396,14.382,3.573,3.328
2026-05-20 17:31:52.129,1181851585,357129,2,0.98755,-0.23022,-0.18188,10.55,-3.695,-0.389
2026-05-20 17:31:52.329,1181851785,357329,1,1.03467,-0.04199,0.29932,-5.412,-1.115,0.977
2026-05-20 17:31:52.329,1181851785,357329,2,0.9978,-0.24683,-0.16968,-2.313,1.298,0.603
2026-05-20 17:31:53.529,1181852985,357529,1,1.02832,-0.05493,0.31934,-17.916,0.305,-1.366
2026-05-20 17:31:53.529,1181852985,357529,2,0.99634,-0.24927,-0.17822,-4.84,3.481,2.588
2026-05-20 17:31:53.885,1181853341,357885,1,1.03906,-0.06812,0.31689,-3.137,1.733,0.992
2026-05-20 17:31:53.885,1181853341,357885,2,0.98535,-0.26538,-0.17041,-3.901,-1.153,2.939
2026-05-20 17:31:53.085,1181852541,358085,1,1.02612,-0.06812,0.32349,2.634,5.206,0.74
2026-05-20 17:31:53.085,1181852541,358085,2,0.99438,-0.27271,-0.1731,-0.824,3.046,1.305
2026-05-20 17:31:53.285,1181852741,358285,1,1.02832,-0.06787,0.36353,-2.076,4.603,-1.924
2026-05-20 17:31:53.285,1181852741,358285,2,0.96509,-0.31641,-0.14648,-5.153,10.611,8.878
2026-05-20 17:31:54.548,1181854004,358548,1,0.99634,-0.10278,0.38062,-7.893,-0.977,0.107
2026-05-20 17:31:54.548,1181854004,358548,2,0.97095,-0.29004,-0.08862,-3.641,7.634,-1.328
2026-05-20 17:31:54.748,1181854204,358748,1,1.00854,-0.06885,0.37329,-6.939,-1.962,-0.397
2026-05-20 17:31:54.748,1181854204,358748,2,0.98584,-0.28149,-0.13477,-0.718,0.786,0.718
2026-05-20 17:31:54.948,1181854404,358948,1,1.02905,-0.08521,0.35522,2.908,-1.573,0.695
2026-05-20 17:31:54.948,1181854404,358948,2,1.00415,-0.26514,-0.11255,-0.191,-1.206,-1.489
2026-05-20 17:31:54.148,1181853604,359148,1,1.03394,-0.06714,0.33984,4.954,0.58,-0.916
2026-05-20 17:31:54.148,1181853604,359148,2,0.9917,-0.26099,-0.11987,-1.481,0.985,-0.939
2026-05-20 17:31:54.348,1181853804,359348,1,1.0332,-0.05859,0.33936,0.237,0.084,-1.863
2026-05-20 17:31:54.348,1181853804,359348,2,1.01465,-0.25464,-0.13354,1.015,-2.305,-1.176
2026-05-20 17:31:55.548,1181855004,359548,1,1.02246,-0.06372,0.36011,-2.954,3.45,-2.504
2026-05-20 17:31:55.548,1181855004,359548,2,0.98975,-0.25903,-0.13525,-2.534,0.198,-0.092
2026-05-20 17:31:55.748,1181855204,359748,1,1.01392,-0.07104,0.35645,-6.824,2.397,-1.893
2026-05-20 17:31:55.748,1181855204,359748,2,0.99292,-0.25879,-0.13013,-4.702,1.122,0.473
2026-05-20 17:31:55.948,1181855404,359948,1,1.01758,-0.05737,0.36963,-1.702,0.55,-0.702
2026-05-20 17:31:55.948,1181855404,359948,2,0.98218,-0.26953,-0.13623,-2.557,-2.084,0.214
2026-05-20 17:31:55.148,1181854604,360148,1,1.02783,-0.07764,0.33472,-17.153,-6.527,2.282
2026-05-20 17:31:55.148,1181854604,360148,2,0.97729,-0.25806,-0.11719,-1.71,-4.115,1.718
2026-05-20 17:31:55.348,1181854804,360348,1,1.06494,-0.10425,0.25317,-10.298,7.779,1.588
2026-05-20 17:31:55.348,1181854804,360348,2,1.05615,-0.27734,-0.16528,-0.992,2.901,-1.168
2026-05-20 17:31:56.548,1181856004,360548,1,1.04932,-0.1228,0.32568,-16.359,40.702,-10.168
2026-05-20 17:31:56.548,1181856004,360548,2,1.02246,-0.2439,-0.10547,-10.237,46.672,-2.237
2026-05-20 17:31:56.750,1181856206,360750,1,0.81738,-0.08618,0.42065,-18.183,94.443,-27.023
2026-05-20 17:31:56.750,1181856206,360750,2,0.79614,-0.37476,-0.09766,-13.641,111.26,14.29
2026-05-20 17:31:56.024,1181855480,361024,1,0.29883,0.00708,0.89502,6.092,116.504,-20.313
2026-05-20 17:31:56.024,1181855480,361024,2,0.62695,-0.17236,0.29419,40.947,96.832,-3.107
2026-05-20 17:31:56.224,1181855680,361224,1,0.04419,0.12939,1.08936,10.145,14.71,3.626
2026-05-20 17:31:56.224,1181855680,361224,2,0.74536,-0.22437,0.37695,-54.198,-80.015,5.076
2026-05-20 17:31:57.488,1181856944,361488,1,0.56738,-0.10986,0.83032,-23.672,-155.206,9.489
2026-05-20 17:31:57.488,1181856944,361488,2,1.01904,-0.33252,0.56299,-37.87,-77.58,-4.282
2026-05-20 17:31:57.688,1181857144,361688,1,1.48901,-0.1731,0.88232,-19.031,-47.107,-11.137
2026-05-20 17:31:57.688,1181857144,361688,2,1.60352,-0.61621,0.61377,-13.267,-29.542,-4.458
2026-05-20 17:31:57.888,1181857344,361888,1,0.6665,-0.02368,0.45093,18.863,16.443,-6.656
2026-05-20 17:31:57.888,1181857344,361888,2,0.62646,-0.2207,0.20605,12.053,13.855,-2.55
2026-05-20 17:31:57.088,1181856544,362088,1,0.96484,-0.00781,0.78345,-11.282,-0.397,-13.305
2026-05-20 17:31:57.088,1181856544,362088,2,1.1731,-0.40771,0.43066,2.641,6.374,-3.702
2026-05-20 17:31:57.316,1181856772,362315,1,1.13745,0.12866,0.7146,-27.687,42.359,-15.435
2026-05-20 17:31:57.316,1181856772,362315,2,1.06592,-0.31689,0.21118,5.901,48.626,10.298
2026-05-20 17:31:58.515,1181857971,362515,1,0.78711,0.11597,0.93042,-11.122,42.641,-12.282
2026-05-20 17:31:58.515,1181857971,362515,2,0.95752,-0.38232,0.53198,-12.26,22.863,-11.321
2026-05-20 17:31:58.715,1181858171,362715,1,0.64258,-0.05444,1.04175,-12.351,15.71,-4.0
2026-05-20 17:31:58.715,1181858171,362715,2,0.84253,-0.37915,0.47974,-13.626,-37.45,-2.893
2026-05-20 17:31:58.915,1181858371,362915,1,0.62671,-0.11792,0.93433,2.573,-36.748,4.046
2026-05-20 17:31:58.915,1181858371,362915,2,0.77832,-0.43042,0.36768,-7.466,-45.282,-0.366
2026-05-20 17:31:58.115,1181857571,363115,1,0.39819,0.02173,0.67139,66.443,-72.061,24.71
2026-05-20 17:31:58.115,1181857571,363115,2,0.95752,-0.37769,0.29834,29.588,-52.71,2.313
2026-05-20 17:31:58.315,1181857771,363315,1,1.09692,-0.04395,0.50391,-2.061,-10.702,19.733
2026-05-20 17:31:58.315,1181857771,363315,2,0.81567,-0.25684,-0.04028,49.901,-32.626,-2.122
2026-05-20 17:31:59.515,1181858971,363515,1,0.92212,-0.03833,0.47339,17.008,57.962,-9.74
2026-05-20 17:31:59.515,1181858971,363515,2,0.92554,-0.28101,0.20386,-9.061,65.695,-3.603
2026-05-20 17:31:59.845,1181859301,363844,1,0.56421,-0.04517,0.79004,-16.985,80.817,-16.786
2026-05-20 17:31:59.845,1181859301,363844,2,0.77686,-0.22754,0.62183,36.725,71.328,9.908
2026-05-20 17:31:59.208,1181858664,364208,1,0.1062,-0.01465,1.08887,-20.107,62.282,-13.71
2026-05-20 17:31:59.208,1181858664,364208,2,0.4812,-0.1167,0.82104,9.817,48.481,0.153
2026-05-20 17:32:00.475,1181859931,364475,1,-0.22583,0.00366,1.05005,-1.473,45.695,-6.435
2026-05-20 17:32:00.475,1181859931,364475,2,0.14233,-0.02295,1.22363,3.573,8.969,0.122
2026-05-20 17:32:00.675,1181860131,364675,1,-0.31763,0.04956,1.02026,-5.748,-31.634,1.748
2026-05-20 17:32:00.675,1181860131,364675,2,0.29297,-0.0271,0.98413,-5.412,-12.405,3.198
2026-05-20 17:32:00.875,1181860331,364875,1,-0.31958,-0.02759,1.33276,4.344,-24.137,4.252
2026-05-20 17:32:00.875,1181860331,364875,2,0.51465,-0.1499,0.81372,-39.153,-88.153,2.115
2026-05-20 17:32:00.116,1181859572,365116,1,0.02661,0.00293,1.08032,-0.046,-102.176,10.733
2026-05-20 17:32:00.116,1181859572,365116,2,0.90332,-0.33789,0.34937,-29.229,-105.878,0.679
2026-05-20 17:32:00.371,1181859827,365371,1,0.51489,0.03271,0.77661,15.634,-124.809,26.389
2026-05-20 17:32:00.371,1181859827,365371,2,0.97656,-0.3125,0.16553,-21.679,-91.992,-18.389
2026-05-20 17:32:01.571,1181861027,365571,1,0.79468,-0.06934,0.52539,29.878,-99.176,47.069
2026-05-20 17:32:01.571,1181861027,365571,2,0.91187,-0.29004,0.05884,27.29,-47.145,8.687
2026-05-20 17:32:01.771,1181861227,365771,1,1.08154,-0.13574,0.30859,61.16,-43.985,23.252
2026-05-20 17:32:01.771,1181861227,365771,2,1.08203,-0.3125,-0.15112,25.382,-20.977,-15.885
2026-05-20 17:32:01.971,1181861427,365971,1,1.04395,-0.11572,0.29443,46.679,-20.664,14.435
2026-05-20 17:32:01.971,1181861427,365971,2,1.02319,-0.24805,-0.17822,27.351,-11.878,-4.618
2026-05-20 17:32:01.171,1181860627,366171,1,1.04834,-0.12988,0.29053,21.511,-2.359,5.71
2026-05-20 17:32:01.171,1181860627,366171,2,1.02002,-0.24072,-0.19214,19.863,-9.305,-8.023
2026-05-20 17:32:01.371,1181860827,366371,1,1.0415,-0.10034,0.27637,17.26,-4.198,8.321
2026-05-20 17:32:01.371,1181860827,366371,2,0.97607,-0.25464,-0.21948,7.969,-7.45,4.069
2026-05-20 17:32:02.571,1181862027,366571,1,1.05859,-0.10254,0.24829,-17.939,-2.489,0.481
2026-05-20 17:32:02.571,1181862027,366571,2,0.98071,-0.25098,-0.18726,-5.84,-4.221,8.115
2026-05-20 17:32:02.771,1181862227,366771,1,1.05029,-0.10059,0.22144,-46.321,3.13,-15.962
2026-05-20 17:32:02.771,1181862227,366771,2,1.06787,-0.25195,-0.2439,-3.466,-3.122,-6.397
2026-05-20 17:32:02.971,1181862427,366971,1,1.04517,-0.1123,0.25171,-23.702,7.733,-6.214
2026-05-20 17:32:02.971,1181862427,366971,2,0.95605,-0.25879,-0.21069,-6.344,10.427,1.298
2026-05-20 17:32:02.171,1181861627,367171,1,0.99561,-0.0769,0.3147,-21.305,12.702,1.069
2026-05-20 17:32:02.171,1181861627,367171,2,0.98438,-0.25269,-0.20117,0.13,7.756,0.588
2026-05-20 17:32:02.371,1181861827,367371,1,0.96411,-0.17188,0.32813,31.038,11.275,-3.382
2026-05-20 17:32:02.371,1181861827,367371,2,0.93896,-0.11914,-0.10767,45.771,10.763,-1.115
2026-05-20 17:32:03.571,1181863027,367571,1,1.18262,-0.02173,0.36646,-31.221,-10.542,-6.023
2026-05-20 17:32:03.571,1181863027,367571,2,1.01855,-0.23242,-0.21558,10.221,2.069,-0.099
2026-05-20 17:32:03.771,1181863227,367771,1,1.02563,-0.03027,0.32471,-6.305,9.092,-6.374
2026-05-20 17:32:03.771,1181863227,367771,2,0.97681,-0.19189,-0.16895,-4.046,-0.519,-1.794
2026-05-20 17:32:03.971,1181863427,367971,1,1.0127,-0.07983,0.29761,5.588,-9.191,2.382
2026-05-20 17:32:03.971,1181863427,367971,2,0.99658,-0.2168,-0.17139,2.84,-1.649,0.962
2026-05-20 17:32:03.171,1181862627,368171,1,1.04102,-0.05005,0.31055,-18.321,-11.893,8.275
2026-05-20 17:32:03.171,1181862627,368171,2,1.04614,-0.23267,-0.21606,-6.573,1.443,10.374
2026-05-20 17:32:03.371,1181862827,368371,1,1.07202,-0.05957,0.15723,-59.557,0.954,6.939
2026-05-20 17:32:03.371,1181862827,368371,2,0.9624,-0.28101,-0.19727,-31.275,3.13,12.328
2026-05-20 17:32:04.571,1181864027,368571,1,0.94043,-0.21777,0.33276,-86.496,48.389,-35.496
2026-05-20 17:32:04.571,1181864027,368571,2,0.90527,-0.27002,-0.3418,-57.649,34.733,8.244
2026-05-20 17:32:04.771,1181864227,368771,1,1.07617,-0.17212,0.29224,-30.878,-17.847,-2.84
2026-05-20 17:32:04.771,1181864227,368771,2,0.96655,-0.28125,-0.27124,-49.122,-3.901,2.023
2026-05-20 17:32:04.971,1181864427,368971,1,1.01733,-0.2124,0.2915,17.74,-6.084,3.382
2026-05-20 17:32:04.971,1181864427,368971,2,1.14185,-0.17822,-0.07593,15.031,1.824,-10.16
2026-05-20 17:32:04.230,1181863686,369230,1,0.97241,-0.10742,0.31274,-0.344,-0.893,2.076
2026-05-20 17:32:04.230,1181863686,369230,2,1.00049,-0.23022,-0.17578,15.29,-1.504,1.573
2026-05-20 17:32:05.430,1181864886,369430,1,1.0564,-0.08423,0.29883,-7.038,3.374,-2.542
2026-05-20 17:32:05.430,1181864886,369430,2,0.97241,-0.29321,-0.19482,3.008,-4.573,5.344
2026-05-20 17:32:05.630,1181865086,369630,1,0.99927,-0.10254,0.29126,-1.511,13.496,-1.794
2026-05-20 17:32:05.630,1181865086,369630,2,0.8877,-0.31787,-0.17725,-10.122,7.351,-1.359
2026-05-20 17:32:05.830,1181865286,369830,1,1.05005,-0.13818,0.34204,30.939,-5.313,2.817
2026-05-20 17:32:05.830,1181865286,369830,2,0.896,-0.35791,-0.21997,14.71,5.916,8.374
2026-05-20 17:32:05.030,1181864486,370030,1,1.05103,-0.19287,0.33911,38.122,13.328,9.771
2026-05-20 17:32:05.030,1181864486,370030,2,0.93848,-0.35522,-0.18213,30.198,-1.443,-14.42
2026-05-20 17:32:05.230,1181864686,370230,1,0.97852,-0.21338,0.39453,34.313,0.664,-3.221
2026-05-20 17:32:05.230,1181864686,370230,2,1.14697,-0.12378,-0.03247,42.015,39.214,0.763
2026-05-20 17:32:06.430,1181865886,370430,1,1.17969,0.01294,0.36743,-20.176,20.962,-8.13
2026-05-20 17:32:06.430,1181865886,370430,2,0.86841,-0.16553,-0.27393,6.275,-11.817,-7.87
2026-05-20 17:32:06.630,1181866086,370630,1,1.04907,-0.02026,0.35107,100.198,-5.824,20.282
2026-05-20 17:32:06.630,1181866086,370630,2,1.13696,-0.25562,-0.0918,25.763,-31.969,-26.45
2026-05-20 17:32:06.830,1181866286,370830,1,0.97144,-0.08472,0.31543,29.084,2.153,-4.42
2026-05-20 17:32:06.830,1181866286,370830,2,1.11206,-0.18286,-0.11865,56.55,-9.733,-15.603
2026-05-20 17:32:06.030,1181865486,371030,1,1.05249,0.00488,0.32275,8.244,-9.527,7.023
2026-05-20 17:32:06.030,1181865486,371030,2,0.94141,-0.14307,-0.15088,1.634,-8.252,-12.42
2026-05-20 17:32:06.230,1181865686,371230,1,1.03613,-0.05835,0.36499,10.115,13.962,9.473
2026-05-20 17:32:06.230,1181865686,371230,2,0.91626,-0.04272,-0.11719,-0.359,26.344,-5.87
2026-05-20 17:32:07.430,1181866886,371430,1,1.07227,,0.33472,-3.45,1.282,-0.366
2026-05-20 17:32:07.430,1181866886,371430,2,0.9939,-0.15625,-0.15967,-2.382,-4.137,2.824
2026-05-20 17:32:07.630,1181867086,371630,1,1.0249,-0.03149,0.33325,-28.511,1.634,-3.183
2026-05-20 17:32:07.630,1181867086,371630,2,0.98804,-0.25684,-0.177,-32.962,7.542,6.573
2026-05-20 17:32:07.830,1181867286,371830,1,1.02441,-0.05518,0.34497,-31.443,6.069,-4.481
2026-05-20 17:32:07.830,1181867286,371830,2,0.98828,-0.25537,-0.15332,-32.725,10.634,6.008
2026-05-20 17:32:07.030,1181866486,372030,1,1.02417,-0.08765,0.34546,-1.374,-6.412,1.412
2026-05-20 17:32:07.030,1181866486,372030,2,0.99512,-0.24707,-0.15381,-4.221,-6.802,3.267
2026-05-20 17:32:07.230,1181866686,372230,1,1.07593,-0.0979,0.30884,-13.244,5.099,0.824
2026-05-20 17:32:07.230,1181866686,372230,2,1.03564,-0.22241,-0.16675,-2.901,6.122,-1.939
2026-05-20 17:32:08.430,1181867886,372430,1,1.05688,-0.08618,0.27661,-8.389,36.962,-17.038
2026-05-20 17:32:08.430,1181867886,372430,2,1.02686,-0.23755,-0.14111,6.13,32.985,-8.42
2026-05-20 17:32:08.630,1181868086,372630,1,0.84229,-0.07251,0.26245,5.519,139.45,-20.504
2026-05-20 17:32:08.630,1181868086,372630,2,0.8252,-0.04761,-0.11865,-7.076,127.107,6.198
2026-05-20 17:32:08.830,1181868286,372830,1,0.32617,-0.01245,1.06323,-22.206,135.885,-9.366
2026-05-20 17:32:08.830,1181868286,372830,2,0.86011,-0.27417,0.60107,20.702,129.198,25.252
2026-05-20 17:32:08.030,1181867486,373030,1,0.01196,0.02368,1.26685,4.809,83.603,-9.763
2026-05-20 17:32:08.030,1181867486,373030,2,0.48291,-0.17676,0.69897,25.511,66.855,2.695
2026-05-20 17:32:08.230,1181867686,373230,1,-0.11157,0.06152,1.23706,2.069,26.412,-8.16
2026-05-20 17:32:08.230,1181867686,373230,2,0.31787,-0.13037,0.88257,4.832,18.389,-0.206
2026-05-20 17:32:09.455,1181868911,373454,1,-0.15869,0.08325,1.01904,-21.527,-3.29,-1.702
2026-05-20 17:32:09.455,1181868911,373454,2,0.33472,-0.13867,0.9707,6.321,3.092,-3.061
2026-05-20 17:32:09.654,1181869110,373654,1,-0.07104,0.02881,1.18604,-3.565,-9.595,-1.382
2026-05-20 17:32:09.654,1181869110,373654,2,0.40015,-0.10107,0.90308,-13.626,-12.84,1.443
2026-05-20 17:32:09.854,1181869310,373854,1,-0.05005,-0.01123,1.24072,-15.947,-30.649,-2.145
2026-05-20 17:32:09.854,1181869310,373854,2,0.49023,-0.23511,0.83521,-28.534,-59.26,1.153
2026-05-20 17:32:09.054,1181868510,374054,1,0.05884,-0.03784,1.11597,-0.13,-67.55,3.069
2026-05-20 17:32:09.054,1181868510,374054,2,0.64258,-0.29248,0.55591,-25.695,-94.038,1.748
2026-05-20 17:32:09.254,1181868710,374254,1,0.27002,0.00586,0.91528,20.557,-90.359,5.267
2026-05-20 17:32:09.254,1181868710,374254,2,0.86841,-0.35425,0.28369,-11.939,-88.962,-11.802
2026-05-20 17:32:10.454,1181869910,374454,1,0.64844,0.04175,0.7937,-14.29,-94.908,25.107
2026-05-20 17:32:10.454,1181869910,374454,2,0.87573,-0.34985,0.12549,0.191,-60.763,-8.298
2026-05-20 17:32:10.654,1181870110,374654,1,0.95703,-0.02734,0.56323,32.763,-44.473,24.718
2026-05-20 17:32:10.654,1181870110,374654,2,0.96021,-0.37598,0.06396,25.519,-23.168,2.107
2026-05-20 17:32:10.854,1181870310,374854,1,1.01416,-0.11694,0.4519,2.687,-9.366,2.718
2026-05-20 17:32:10.854,1181870310,374854,2,1.10083,-0.25708,0.08105,20.916,-7.71,-9.053
2026-05-20 17:32:10.054,1181869510,375054,1,0.59009,-0.00806,0.51074,-16.672,29.71,-27.84
2026-05-20 17:32:10.054,1181869510,375054,2,0.64038,-0.09131,-0.15942,-3.427,15.336,-9.962
2026-05-20 17:32:10.254,1181869710,375254,1,0.66406,0.21997,0.51733,-2.664,29.916,-22.466
2026-05-20 17:32:10.254,1181869710,375254,2,0.91138,-0.24805,0.10547,-13.901,-0.328,-1.55
2026-05-20 17:32:11.454,1181870910,375454,1,0.95142,0.13867,0.71582,4.748,-12.641,-4.84
2026-05-20 17:32:11.454,1181870910,375454,2,1.00659,-0.31274,0.21777,-33.634,-7.389,6.344
2026-05-20 17:32:11.654,1181871110,375654,1,1.06543,0.03638,0.68774,-27.038,-38.618,-4.496
2026-05-20 17:32:11.654,1181871110,375654,2,1.00586,-0.30396,-0.03442,2.244,1.305,-3.176
2026-05-20 17:32:14.821,1181874277,378821,1,1.10498,-0.11011,0.34302,-46.168,19.061,-12.489
2026-05-20 17:32:14.821,1181874277,378821,2,1.0564,-0.27295,-0.09375,0.137,10.756,-9.916
2026-05-20 17:32:14.021,1181873477,379021,1,0.94604,-0.11255,0.27319,-42.366,101.664,-35.771
2026-05-20 17:32:14.021,1181873477,379021,2,1.08423,-0.3147,0.03589,-48.595,89.16,-1.695
2026-05-20 17:32:14.221,1181873677,379221,1,0.5625,0.02832,0.93237,-19.26,137.687,-26.763
2026-05-20 17:32:14.221,1181873677,379221,2,0.87329,-0.34399,0.47461,19.412,101.336,3.992
2026-05-20 17:32:15.421,1181874877,379421,1,0.15088,-0.01123,1.17212,3.725,99.992,-12.214
2026-05-20 17:32:15.421,1181874877,379421,2,0.54419,-0.17627,0.79395,27.702,72.908,-7.794
2026-05-20 17:32:15.634,1181875090,379634,1,-0.09399,0.04272,1.24805,2.863,53.962,-9.672
2026-05-20 17:32:15.634,1181875090,379634,2,0.18481,-0.104,0.79468,21.779,17.237,-2.221
2026-05-20 17:32:15.834,1181875290,379834,1,-0.2085,0.11279,1.17432,7.565,17.779,-2.947
2026-05-20 17:32:15.834,1181875290,379834,2,0.2583,-0.05054,0.9187,2.84,2.565,2.252
2026-05-20 17:32:15.034,1181874490,380034,1,-0.07642,0.10059,1.16992,12.153,-10.893,10.015
2026-05-20 17:32:15.034,1181874490,380034,2,0.3999,-0.04248,0.8269,-28.664,-34.008,9.695
2026-05-20 17:32:15.253,1181874709,380252,1,-0.06714,0.03833,1.23535,-19.878,-47.145,0.74
2026-05-20 17:32:15.253,1181874709,380252,2,0.53174,-0.18115,0.69092,-38.275,-80.611,7.603
2026-05-20 17:32:16.452,1181875908,380452,1,0.0437,-0.00415,1.09473,1.695,-79.847,2.595
2026-05-20 17:32:16.452,1181875908,380452,2,0.67969,-0.26294,0.63354,-42.13,-94.0,-7.786
2026-05-20 17:32:16.652,1181876108,380652,1,0.33911,0.1875,1.0,49.969,-92.16,19.725
2026-05-20 17:32:16.652,1181876108,380652,2,0.69653,-0.37109,0.30127,-36.405,-87.305,-16.351
2026-05-20 17:32:16.852,1181876308,380852,1,0.81543,0.00415,0.46387,46.389,-64.481,21.664
2026-05-20 17:32:16.852,1181876308,380852,2,0.71631,-0.30371,0.02661,14.0,-36.374,-3.733
2026-05-20 17:32:16.052,1181875508,381052,1,0.50757,-0.06348,0.39893,-31.115,-36.084,4.55
2026-05-20 17:32:16.052,1181875508,381052,2,0.88403,-0.27222,0.00854,-22.305,-29.672,-16.74
2026-05-20 17:32:16.252,1181875708,381252,1,0.87573,-0.0061,0.62378,-26.214,-8.214,-7.817
2026-05-20 17:32:16.252,1181875708,381252,2,1.05444,-0.34888,0.22754,-16.092,-24.947,-12.473
2026-05-20 17:32:17.462,1181876918,381462,1,1.01978,0.13428,0.64624,-6.901,-10.366,-13.321
2026-05-20 17:32:17.462,1181876918,381462,2,1.2373,-0.34766,0.22876,-33.534,31.481,-5.214
2026-05-20 17:32:17.662,1181877118,381662,1,1.21997,-0.01367,0.65723,-32.435,-6.794,-5.458
2026-05-20 17:32:17.662,1181877118,381662,2,1.073,-0.479,0.09912,-10.985,10.0,9.611
2026-05-20 17:32:17.862,1181877318,381862,1,0.95581,0.01245,0.65063,5.656,11.786,1.122
2026-05-20 17:32:17.862,1181877318,381862,2,0.92578,-0.31299,0.1521,14.076,4.672,0.435
2026-05-20 17:32:17.107,1181876563,382107,1,0.91382,0.14209,0.65967,-1.511,11.733,3.183
2026-05-20 17:32:17.107,1181876563,382107,2,1.22412,-0.41504,0.38086,6.748,5.511,9.939
2026-05-20 17:32:17.377,1181876833,382377,1,1.08398,0.01294,0.98706,13.023,49.038,13.595
2026-05-20 17:32:17.377,1181876833,382377,2,0.98364,-0.35449,0.30127,14.855,46.779,17.626
2026-05-20 17:32:18.597,1181878053,382597,1,0.85327,-0.02979,0.896,17.573,-3.359,16.786
2026-05-20 17:32:18.597,1181878053,382597,2,1.01733,-0.31909,0.15234,13.076,-3.969,20.328
2026-05-20 17:32:18.797,1181878253,382797,1,0.74219,-0.08594,0.72485,19.115,-22.282,21.389
2026-05-20 17:32:18.797,1181878253,382797,2,0.59668,-0.23267,0.03418,20.695,-39.664,8.374
2026-05-20 17:32:18.041,1181877497,383041,1,0.54688,-0.12061,0.45874,1.382,-42.641,11.229
2026-05-20 17:32:18.041,1181877497,383041,2,0.75317,-0.4375,0.05493,0.588,-39.809,-4.573
2026-05-20 17:32:18.241,1181877697,383241,1,1.00635,-0.12451,0.34399,9.527,-37.061,-6.695
2026-05-20 17:32:18.241,1181877697,383241,2,0.92358,-0.51758,-0.11963,-21.557,-25.366,4.977
2026-05-20 17:32:19.441,1181878897,383441,1,1.0,-0.17017,0.32227,6.069,-7.42,-6.336
2026-05-20 17:32:19.441,1181878897,383441,2,0.91821,-0.39063,-0.10669,-4.282,-4.611,-7.466
2026-05-20 17:32:19.641,1181879097,383641,1,1.0415,-0.08154,0.2998,12.557,-2.74,-3.954
2026-05-20 17:32:19.641,1181879097,383641,2,0.97607,-0.31958,-0.09399,-2.13,-8.595,-6.649
2026-05-20 17:32:19.841,1181879297,383841,1,0.90137,-0.13086,0.37842,8.725,6.405,-10.015
2026-05-20 17:32:19.841,1181879297,383841,2,1.0769,-0.24463,-0.04346,5.939,-6.565,3.42
2026-05-20 17:32:19.041,1181878497,384041,1,0.91699,-0.04492,0.44409,26.443,-32.855,15.405
2026-05-20 17:32:19.041,1181878497,384041,2,1.17407,-0.12769,-0.16333,-3.794,-44.137,6.328
2026-05-20 17:32:19.241,1181878697,384241,1,1.41479,-0.12598,-0.32764,-6.191,5.481,-12.244
2026-05-20 17:32:19.241,1181878697,384241,2,1.17383,-0.27271,0.03027,17.374,11.496,-7.878
2026-05-20 17:32:20.458,1181879914,384458,1,0.87671,-0.08911,0.36914,-1.221,31.244,-12.008
2026-05-20 17:32:20.458,1181879914,384458,2,0.99561,-0.25439,-0.146,21.0,9.725,-4.275
2026-05-20 17:32:20.658,1181880114,384658,1,0.98706,0.00562,0.30981,78.183,16.55,0.924
2026-05-20 17:32:20.658,1181880114,384658,2,1.10571,-0.21924,-0.10254,25.221,24.359,-14.687
2026-05-20 17:32:20.858,1181880314,384858,1,0.8335,0.00586,0.38379,118.023,-24.977,43.015
2026-05-20 17:32:20.858,1181880314,384858,2,1.27197,-0.22266,-0.03931,5.756,-3.954,11.634
2026-05-20 17:32:20.058,1181879514,385058,1,1.17334,-0.01611,0.17798,-169.733,39.672,-30.42
2026-05-20 17:32:20.058,1181879514,385058,2,1.00439,-0.25,0.05713,-18.931,29.038,11.214
2026-05-20 17:32:20.270,1181879726,385270,1,1.05103,-0.05615,0.32642,-27.573,25.58,-4.519
2026-05-20 17:32:20.270,1181879726,385270,2,0.7915,-0.37329,-0.29321,13.145,2.939,0.473
2026-05-20 17:32:21.470,1181880926,385470,1,1.08398,-0.02515,0.354,62.45,22.718,-0.344
2026-05-20 17:32:21.470,1181880926,385470,2,1.00488,-0.24023,-0.24585,5.229,-13.427,-10.687
2026-05-20 17:32:21.670,1181881126,385670,1,1.06738,-0.08813,0.33203,-13.359,-5.183,1.756
2026-05-20 17:32:21.670,1181881126,385670,2,1.00854,-0.27319,-0.19458,-17.863,2.641,8.466
2026-05-20 17:32:21.870,1181881326,385870,1,1.02515,-0.09399,0.29663,-18.198,-7.87,7.557
2026-05-20 17:32:21.870,1181881326,385870,2,0.94751,-0.26514,-0.1626,-19.443,14.702,14.977
2026-05-20 17:32:21.070,1181880526,386070,1,1.02026,-0.09717,0.31665,-14.496,17.565,-3.809
2026-05-20 17:32:21.070,1181880526,386070,2,0.87061,-0.37036,-0.25269,-4.824,-5.71,4.198
2026-05-20 17:32:21.270,1181880726,386270,1,1.04248,-0.11084,0.29517,11.252,6.443,-2.71
2026-05-20 17:32:21.270,1181880726,386270,2,0.96191,-0.32495,-0.21045,2.145,-0.679,-3.695
2026-05-20 17:32:22.470,1181881926,386470,1,1.02588,-0.1123,0.29224,-8.412,-0.237,-2.084
2026-05-20 17:32:22.470,1181881926,386470,2,0.97437,-0.28857,-0.17529,-3.511,4.107,-1.817
2026-05-20 17:32:22.670,1181882126,386670,1,1.05371,-0.07935,0.25391,1.947,4.053,-0.847
2026-05-20 17:32:22.670,1181882126,386670,2,0.99658,-0.29639,-0.15576,2.679,-2.115,-1.588
2026-05-20 17:32:22.870,1181882326,386870,1,1.02832,-0.09961,0.28931,7.885,13.519,-3.588
2026-05-20 17:32:22.870,1181882326,386870,2,0.98218,-0.27832,-0.12524,3.611,1.809,-2.198
2026-05-20 17:32:22.070,1181881526,387070,1,1.03271,-0.09619,0.3606,-14.244,2.366,-0.412
2026-05-20 17:32:22.070,1181881526,387070,2,1.02124,-0.25146,-0.02759,11.366,-9.168,-2.099
2026-05-20 17:32:22.270,1181881726,387270,1,1.07031,-0.13232,0.28491,-15.29,47.939,-16.519
2026-05-20 17:32:22.270,1181881726,387270,2,0.95947,-0.29956,0.10059,-32.45,57.992,1.435
2026-05-20 17:32:23.470,1181882926,387470,1,0.57666,0.12231,0.67529,-4.389,147.611,-22.71
2026-05-20 17:32:23.470,1181882926,387470,2,0.4729,-0.26782,0.27515,-17.763,115.916,9.466
2026-05-20 17:32:23.670,1181883126,387670,1,0.18066,-0.03564,0.73315,8.198,8.901,-21.672
2026-05-20 17:32:23.670,1181883126,387670,2,0.48804,-0.09106,0.19141,-5.58,13.26,5.985
2026-05-20 17:32:23.870,1181883326,387870,1,0.68896,-0.00049,1.03369,-4.679,-67.321,-5.298
2026-05-20 17:32:23.870,1181883326,387870,2,0.90137,-0.41309,0.38965,-30.153,-29.076,-5.702
2026-05-20 17:32:23.070,1181882526,388070,1,1.41113,0.17822,1.1333,3.298,-71.603,-2.351
2026-05-20 17:32:23.070,1181882526,388070,2,1.89868,-0.61548,0.57129,-13.977,-47.656,-14.679
2026-05-20 17:32:23.270,1181882726,388270,1,0.68579,0.14575,0.38843,22.366,-0.725,9.756
2026-05-20 17:32:23.270,1181882726,388270,2,0.58643,-0.21899,0.09424,-12.305,-14.595,6.145
2026-05-20 17:32:24.470,1181883926,388470,1,0.99512,-0.00098,0.71118,-16.046,-1.137,-14.359
2026-05-20 17:32:24.470,1181883926,388470,2,1.21143,-0.44336,0.20679,0.939,8.802,15.687
2026-05-20 17:32:24.670,1181884126,388670,1,1.54712,0.03467,0.72681,18.481,44.061,-6.534
2026-05-20 17:32:24.670,1181884126,388670,2,0.92407,-0.32104,0.22632,13.618,88.107,4.794
2026-05-20 17:32:24.995,1181884451,388995,1,0.55737,0.38892,1.01563,5.198,61.214,4.87
2026-05-20 17:32:24.995,1181884451,388995,2,0.8125,-0.302,0.48413,10.084,36.267,6.519
2026-05-20 17:32:24.195,1181883651,389195,1,0.52295,0.21973,1.02417,-11.069,-20.641,14.534
2026-05-20 17:32:24.195,1181883651,389195,2,0.78003,-0.22192,0.3103,11.771,-42.84,10.908
2026-05-20 17:32:24.395,1181883851,389395,1,0.36938,0.01416,0.68335,54.962,-53.183,42.168
2026-05-20 17:32:24.395,1181883851,389395,2,0.58081,-0.14087,0.10522,-4.847,-61.725,-3.092
2026-05-20 17:32:25.595,1181885051,389595,1,1.01245,0.01807,0.40479,12.305,-57.595,29.145
2026-05-20 17:32:25.595,1181885051,389595,2,1.08496,-0.22485,0.15308,-52.725,-23.298,7.023
2026-05-20 17:32:25.795,1181885251,389795,1,1.04272,-0.0813,0.4209,-6.511,10.618,-8.519
2026-05-20 17:32:25.795,1181885251,389795,2,1.02466,-0.28198,0.05322,22.611,8.832,-5.29
2026-05-20 17:32:25.995,1181885451,389995,1,0.91528,0.01587,0.51587,-7.603,38.252,-11.779
2026-05-20 17:32:25.995,1181885451,389995,2,0.99707,-0.1626,0.09326,-13.962,42.603,0.023
2026-05-20 17:32:25.195,1181884651,390195,1,0.70703,-0.00122,0.62646,-38.847,81.824,-18.725
2026-05-20 17:32:25.195,1181884651,390195,2,0.94531,-0.43457,0.198,-17.847,83.618,7.076
2026-05-20 17:32:25.395,1181884851,390395,1,0.45215,0.06616,0.94336,6.45,91.863,-16.779
2026-05-20 17:32:25.395,1181884851,390395,2,0.74634,-0.24585,0.54272,24.794,70.351,9.176
2026-05-20 17:32:26.595,1181886051,390595,1,0.1438,0.10742,1.07373,-0.962,84.092,-15.656
2026-05-20 17:32:26.595,1181886051,390595,2,0.63916,-0.21387,0.7085,27.985,62.611,-6.679
2026-05-20 17:32:26.795,1181886251,390795,1,0.05737,0.08936,1.14063,-3.489,58.74,-7.405
2026-05-20 17:32:26.795,1181886251,390795,2,0.42212,-0.04785,0.81689,23.405,46.0,1.718
2026-05-20 17:32:26.995,1181886451,390995,1,-0.13892,0.06909,1.15479,-1.519,38.725,-5.42
2026-05-20 17:32:26.995,1181886451,390995,2,0.30981,-0.02686,0.96655,5.198,19.786,1.855
2026-05-20 17:32:26.195,1181885651,391195,1,-0.23291,0.0625,1.14551,-11.679,-12.809,5.336
2026-05-20 17:32:26.195,1181885651,391195,2,0.33862,-0.13794,0.87476,-15.901,-11.84,8.817
2026-05-20 17:32:26.395,1181885851,391395,1,-0.16626,0.07495,1.35278,-1.176,-55.595,12.427
2026-05-20 17:32:26.395,1181885851,391395,2,0.55908,-0.18408,0.79932,-32.527,-77.122,6.076
2026-05-20 17:32:27.595,1181887051,391595,1,0.14526,0.02637,1.02759,3.13,-89.229,15.603
2026-05-20 17:32:27.595,1181887051,391595,2,0.76489,-0.25781,0.46631,-28.061,-100.847,-1.756
2026-05-20 17:32:27.795,1181887251,391795,1,0.4707,0.01392,0.8584,16.427,-105.954,27.275
2026-05-20 17:32:27.795,1181887251,391795,2,0.94775,-0.22656,0.07129,2.023,-68.351,-2.611
2026-05-20 17:32:27.044,1181886500,392044,1,0.85986,0.04712,0.35645,24.733,-86.13,41.053
2026-05-20 17:32:27.044,1181886500,392044,2,0.94702,-0.27759,0.04736,-3.763,-47.557,14.0
2026-05-20 17:32:27.244,1181886700,392244,1,1.04248,-0.18555,0.29028,37.565,-71.153,38.519
2026-05-20 17:32:27.244,1181886700,392244,2,1.05127,-0.33301,-0.23242,-7.42,-24.305,-6.664
2026-05-20 17:32:28.500,1181887956,392500,1,1.11475,-0.31079,0.09497,-12.267,-9.954,-2.092
2026-05-20 17:32:28.500,1181887956,392500,2,1.04785,-0.43213,-0.20459,0.725,6.053,-14.008
2026-05-20 17:32:28.700,1181888156,392700,1,1.04688,-0.16406,0.1958,4.71,48.489,-27.023
2026-05-20 17:32:28.700,1181888156,392700,2,0.89038,-0.27881,-0.07129,-3.206,29.519,-16.603
2026-05-20 17:32:28.130,1181887586,393130,1,0.95068,-0.01709,0.20435,63.099,25.679,1.626
2026-05-20 17:32:28.130,1181887586,393130,2,1.06592,-0.17944,-0.02417,49.26,-11.664,0.122
2026-05-20 17:32:28.330,1181887786,393330,1,1.0835,-0.06396,0.12036,-2.076,-57.779,55.435
2026-05-20 17:32:28.330,1181887786,393330,2,0.99731,0.01489,-0.04272,-70.122,23.26,8.481
2026-05-20 17:32:29.530,1181888986,393530,1,1.12451,0.00537,0.1123,-52.26,11.466,-9.748
2026-05-20 17:32:29.530,1181888986,393530,2,1.04565,-0.2334,-0.1106,9.176,-3.977,9.26
2026-05-20 17:32:29.730,1181889186,393730,1,1.09937,-0.08008,0.24243,1.519,1.458,-9.794
2026-05-20 17:32:29.730,1181889186,393730,2,1.03564,-0.2356,-0.20947,10.435,2.695,-0.038
2026-05-20 17:32:29.951,1181889407,393951,1,1.04785,0.03467,0.24463,10.985,11.595,-9.122
2026-05-20 17:32:29.951,1181889407,393951,2,0.98853,-0.18921,-0.16943,17.847,0.878,-5.023
2026-05-20 17:32:29.151,1181888607,394151,1,0.98389,0.00391,0.26758,32.496,11.046,7.626
2026-05-20 17:32:29.151,1181888607,394151,2,1.05273,-0.2251,-0.16382,-3.71,4.489,-4.282
2026-05-20 17:32:29.351,1181888807,394351,1,0.99365,-0.04004,0.33032,27.534,11.893,8.748
2026-05-20 17:32:29.351,1181888807,394351,2,1.05933,-0.1936,-0.18408,48.595,37.748,1.122
2026-05-20 17:32:30.551,1181890007,394551,1,0.94629,0.01221,0.43896,19.87,5.885,8.229
2026-05-20 17:32:30.551,1181890007,394551,2,0.95532,-0.2478,-0.13135,24.344,-10.794,2.702
2026-05-20 17:32:30.751,1181890207,394751,1,0.9895,0.00342,0.34155,33.702,-11.374,16.763
2026-05-20 17:32:30.751,1181890207,394751,2,1.05054,-0.1377,-0.17261,14.969,-25.313,4.0
2026-05-20 17:32:30.951,1181890407,394951,1,1.02637,-0.07031,0.29395,14.954,-7.046,12.115
2026-05-20 17:32:30.951,1181890407,394951,2,0.99536,-0.20093,-0.20776,10.641,-4.962,6.649
2026-05-20 17:32:30.151,1181889607,395151,1,1.0332,-0.10571,0.22705,-10.924,-4.985,4.45
2026-05-20 17:32:30.151,1181889607,395151,2,0.96045,-0.18408,-0.13623,-20.206,-1.267,5.511
2026-05-20 17:32:30.351,1181889807,395351,1,1.10449,-0.12061,0.2854,-77.336,0.74,-2.763
2026-05-20 17:32:30.351,1181889807,395351,2,1.07715,-0.26636,-0.28247,-89.267,15.985,17.305
2026-05-20 17:32:31.551,1181891007,395551,1,0.97876,-0.20996,0.12842,-65.481,23.901,-4.763
2026-05-20 17:32:31.551,1181891007,395551,2,1.06592,-0.271,-0.33423,-78.038,41.031,9.832
2026-05-20 17:32:33.232,1181892688,398231,1,1.02979,-0.13135,0.2915,-15.641,3.267,-1.466
2026-05-20 17:32:33.232,1181892688,398231,2,0.97021,-0.27368,-0.18677,-9.26,8.733,0.107
2026-05-20 17:32:34.431,1181893887,398431,1,1.052,-0.08545,0.30054,-15.916,5.885,-6.374
2026-05-20 17:32:34.431,1181893887,398431,2,0.96509,-0.30933,-0.24805,-11.427,3.252,2.573
2026-05-20 17:32:34.631,1181894087,398631,1,1.04321,-0.10498,0.28979,-24.695,10.588,-3.595
2026-05-20 17:32:34.631,1181894087,398631,2,0.99878,-0.27368,-0.12207,-4.099,14.198,-2.015
2026-05-20 17:32:34.924,1181894380,398924,1,1.05493,-0.15649,0.31982,-31.046,27.496,-8.534
2026-05-20 17:32:34.924,1181894380,398924,2,1.00635,-0.26099,0.02661,-12.214,49.885,-8.435
2026-05-20 17:32:34.124,1181893580,399124,1,0.88428,-0.13086,0.38892,7.924,92.42,-17.611
2026-05-20 17:32:34.124,1181893580,399124,2,0.74731,-0.31885,0.15283,-21.74,100.244,9.832
2026-05-20 17:32:34.324,1181893780,399324,1,0.37988,-0.00464,0.74341,-16.87,167.656,-33.046
2026-05-20 17:32:34.324,1181893780,399324,2,0.53906,-0.26953,0.37549,10.252,142.931,33.924
2026-05-20 17:32:35.524,1181894980,399524,1,0.11499,0.03662,1.20435,9.878,98.115,-3.893
2026-05-20 17:32:35.524,1181894980,399524,2,0.59253,-0.20215,0.79248,23.679,83.115,-10.046
2026-05-20 17:32:35.724,1181895180,399724,1,-0.14404,0.03442,1.21191,8.611,44.855,-8.038
2026-05-20 17:32:35.724,1181895180,399724,2,0.33667,-0.01709,0.89917,11.695,27.26,-0.794
2026-05-20 17:32:35.924,1181895380,399924,1,-0.19312,0.07715,1.17163,-6.305,-9.321,-0.206
2026-05-20 17:32:35.924,1181895380,399924,2,0.33008,-0.1272,0.87915,-2.092,-13.16,0.115
2026-05-20 17:32:35.124,1181894580,400124,1,-0.05005,0.11206,1.25195,-13.824,-19.565,0.939
2026-05-20 17:32:35.124,1181894580,400124,2,0.45679,-0.17212,0.85083,-23.618,-53.756,7.802
2026-05-20 17:32:35.324,1181894780,400324,1,-0.03101,0.02979,1.13135,-10.458,-59.122,10.321
2026-05-20 17:32:35.324,1181894780,400324,2,0.60596,-0.20166,0.61035,-36.695,-103.366,7.992
2026-05-20 17:32:36.524,1181895980,400524,1,0.25537,0.07349,0.89966,14.725,-88.282,13.511
2026-05-20 17:32:36.524,1181895980,400524,2,0.75757,-0.31714,0.41699,-22.168,-87.641,-2.649
2026-05-20 17:32:36.724,1181896180,400724,1,0.64014,0.01709,0.69116,34.031,-86.969,25.756
2026-05-20 17:32:36.724,1181896180,400724,2,1.06323,-0.33594,0.16309,7.557,-59.702,-7.191
2026-05-20 17:32:36.924,1181896380,400924,1,0.92993,-0.11963,0.45093,-31.58,-47.412,3.321
2026-05-20 17:32:36.924,1181896380,400924,2,1.09058,-0.38989,0.08081,5.481,-21.733,-0.672
2026-05-20 17:32:36.124,1181895580,401124,1,0.99951,-0.10767,0.45581,-30.427,18.656,-12.13
2026-05-20 17:32:36.124,1181895580,401124,2,1.00488,-0.28076,0.1001,3.183,50.183,-8.069
2026-05-20 17:32:36.324,1181895780,401324,1,0.73218,-0.00757,0.64478,-9.313,90.359,-25.71
2026-05-20 17:32:36.324,1181895780,401324,2,0.90845,-0.26245,0.34692,11.901,86.519,4.168
2026-05-20 17:32:37.524,1181896980,401524,1,0.39551,0.01929,0.94922,-19.603,94.038,-20.565
2026-05-20 17:32:37.524,1181896980,401524,2,0.70654,-0.36548,0.52808,29.435,89.779,14.0
2026-05-20 17:32:37.724,1181897180,401724,1,0.17651,0.07275,1.0376,-2.046,87.702,-10.885
2026-05-20 17:32:37.724,1181897180,401724,2,0.58374,-0.20532,0.69507,24.214,57.954,7.046
2026-05-20 17:32:37.924,1181897380,401924,1,-0.10278,0.07666,1.16406,17.336,69.985,-8.122
2026-05-20 17:32:37.924,1181897380,401924,2,0.48462,-0.1543,0.80811,7.802,44.84,-5.351
2026-05-20 17:32:37.124,1181896580,402124,1,-0.39795,0.15088,1.0708,25.802,62.053,1.053
2026-05-20 17:32:37.124,1181896580,402124,2,0.32764,-0.03833,0.8811,0.176,3.0,3.511
2026-05-20 17:32:37.324,1181896780,402324,1,-0.33545,0.07568,1.18555,-6.802,-18.733,4.817
2026-05-20 17:32:37.324,1181896780,402324,2,0.25391,-0.12915,0.94678,-22.611,-38.794,3.313
2026-05-20 17:32:38.524,1181897980,402524,1,-0.26978,0.11963,1.23218,-11.992,-71.313,11.305
2026-05-20 17:32:38.524,1181897980,402524,2,0.57104,-0.29932,0.68823,-43.214,-104.244,0.145
2026-05-20 17:32:38.724,1181898180,402724,1,0.12524,0.01709,1.04175,-3.389,-111.374,12.954
2026-05-20 17:32:38.724,1181898180,402724,2,0.91675,-0.26538,0.3374,-20.557,-107.038,-9.519
2026-05-20 17:32:38.924,1181898380,402924,1,0.55005,-0.00342,0.74634,14.351,-117.45,23.863
2026-05-20 17:32:38.924,1181898380,402924,2,0.90479,-0.33154,0.14771,-15.107,-100.817,-16.87
2026-05-20 17:32:38.124,1181897580,403124,1,0.90649,-0.07642,0.45215,42.794,-92.198,44.863
2026-05-20 17:32:38.124,1181897580,403124,2,1.10547,-0.14551,-0.09351,32.557,-53.962,-2.443
2026-05-20 17:32:38.324,1181897780,403324,1,1.02417,-0.07813,0.33203,57.969,-45.908,42.183
2026-05-20 17:32:38.324,1181897780,403324,2,1.05737,-0.30981,-0.16846,5.107,-33.802,-5.527
2026-05-20 17:32:39.809,1181899265,403809,1,1.00391,-0.14648,0.32275,-24.893,7.099,-2.023
2026-05-20 17:32:39.809,1181899265,403809,2,0.96582,-0.31982,-0.20825,-2.45,14.015,-3.351
2026-05-20 17:32:39.072,1181898528,404072,1,0.9668,-0.14038,0.42212,4.55,18.374,-13.084
2026-05-20 17:32:39.072,1181898528,404072,2,0.84399,-0.28516,-0.09692,8.87,45.588,14.191
2026-05-20 17:32:39.272,1181898728,404272,1,1.0957,0.05664,0.33276,12.931,35.809,-15.832
2026-05-20 17:32:39.272,1181898728,404272,2,0.76831,-0.42407,-0.24805,-21.893,-6.16,3.832
2026-05-20 17:32:40.472,1181899928,404472,1,1.0979,-0.0144,0.32153,-32.824,-8.389,-1.145
2026-05-20 17:32:40.472,1181899928,404472,2,1.13013,-0.13257,-0.30029,-14.71,-11.435,-5.603
2026-05-20 17:32:40.672,1181900128,404672,1,1.05859,-0.07593,0.30835,-32.389,8.939,-9.748
2026-05-20 17:32:40.672,1181900128,404672,2,0.98657,-0.28198,-0.16504,7.939,2.939,1.832
2026-05-20 17:32:40.898,1181900354,404898,1,1.0188,-0.01514,0.34106,-2.45,8.145,-2.481
2026-05-20 17:32:40.898,1181900354,404898,2,1.00781,-0.25122,-0.09766,-4.389,7.221,1.275
2026-05-20 17:32:40.098,1181899554,405098,1,1.07544,-0.08521,0.2981,-37.229,16.458,-13.214
2026-05-20 17:32:40.098,1181899554,405098,2,1.04858,-0.28955,-0.05322,3.092,18.748,-8.817
2026-05-20 17:32:40.298,1181899754,405298,1,0.54639,-0.03711,0.27979,19.145,73.634,-30.198
2026-05-20 17:32:40.298,1181899754,405298,2,0.34229,-0.14478,-0.18774,2.824,72.573,5.366
2026-05-20 17:32:41.498,1181900954,405498,1,0.61694,0.02515,0.59033,-32.015,50.45,-15.031
2026-05-20 17:32:41.498,1181900954,405498,2,0.80957,-0.17285,0.14502,-55.267,57.977,4.824
2026-05-20 17:32:41.698,1181901154,405698,1,0.86182,0.14404,0.85669,-20.725,-6.229,-9.489
2026-05-20 17:32:41.698,1181901154,405698,2,1.04175,-0.2998,0.31201,-20.053,-11.168,10.061
2026-05-20 17:32:41.898,1181901354,405898,1,1.177,-0.00024,0.97314,-0.397,-32.931,-9.443
2026-05-20 17:32:41.898,1181901354,405898,2,1.3999,-0.5459,0.55981,-21.0,-19.473,-3.061
2026-05-20 17:32:41.098,1181900554,406098,1,0.81226,0.06714,0.49219,23.038,12.595,-2.023
2026-05-20 17:32:41.098,1181900554,406098,2,0.77905,-0.23071,0.10938,2.763,2.038,7.443
2026-05-20 17:32:41.298,1181900754,406298,1,1.56543,0.14258,0.66968,-1.374,40.847,-6.511
2026-05-20 17:32:41.298,1181900754,406298,2,1.11206,-0.39575,0.18579,3.244,90.26,6.435
2026-05-20 17:32:42.498,1181901954,406498,1,0.69116,0.10669,0.98096,-12.115,85.74,-18.763
2026-05-20 17:32:42.498,1181901954,406498,2,0.81152,-0.34985,0.41626,-3.252,23.351,-6.237
2026-05-20 17:32:42.698,1181902154,406698,1,0.60034,0.01514,1.03003,-8.405,22.427,-2.855
2026-05-20 17:32:42.698,1181902154,406698,2,0.68237,-0.39014,0.46802,-13.023,-1.405,5.466
2026-05-20 17:32:42.898,1181902354,406898,1,0.44897,0.0437,0.81079,40.863,-2.374,21.29
2026-05-20 17:32:42.898,1181902354,406898,2,0.4397,-0.24634,0.16943,14.504,-20.931,3.55
2026-05-20 17:32:42.098,1181901554,407098,1,0.48511,0.01147,0.53564,80.863,-97.786,66.573
2026-05-20 17:32:42.098,1181901554,407098,2,0.89087,-0.2605,0.32422,34.374,-54.733,-0.588
2026-05-20 17:32:42.298,1181901754,407298,1,0.92041,-0.02661,0.49902,11.473,-22.573,22.107
2026-05-20 17:32:42.298,1181901754,407298,2,1.12744,-0.19263,0.10938,37.901,-20.725,1.244
2026-05-20 17:32:43.498,1181902954,407498,1,0.75244,0.0166,0.52637,3.573,56.092,-25.122
2026-05-20 17:32:43.498,1181902954,407498,2,0.68188,-0.20215,0.14063,8.252,61.244,-2.221
2026-05-20 17:32:43.698,1181903154,407698,1,0.54224,0.06519,0.49731,-66.824,-9.595,-25.557
2026-05-20 17:32:43.698,1181903154,407698,2,0.8208,-0.48218,0.24487,-64.634,42.618,-6.519
2026-05-20 17:32:43.898,1181903354,407898,1,0.85156,0.04541,0.83203,-33.603,-30.206,-12.153
2026-05-20 17:32:43.898,1181903354,407898,2,1.04199,-0.28735,0.48047,4.29,-0.58,-11.191
2026-05-20 17:32:43.098,1181902554,408098,1,1.0144,0.16235,0.81299,16.725,-12.511,1.87
2026-05-20 17:32:43.098,1181902554,408098,2,1.0625,-0.44922,0.22632,4.687,29.305,4.702
2026-05-20 17:32:44.695,1181904151,408695,1,0.80029,-0.00903,0.74585,11.45,13.656,-6.779
2026-05-20 17:32:44.695,1181904151,408695,2,1.09277,-0.39258,0.40015,14.084,28.832,11.321
2026-05-20 17:32:44.059,1181903515,409059,1,0.78857,-0.06592,0.83081,-9.191,1.244,11.557
2026-05-20 17:32:44.059,1181903515,409059,2,0.85815,-0.35596,0.39966,3.435,-48.328,-17.985
2026-05-20 17:32:44.259,1181903715,409259,1,0.83105,0.02368,0.77173,26.336,-13.321,19.794
2026-05-20 17:32:44.259,1181903715,409259,2,0.88672,-0.31909,0.37134,36.351,8.092,19.183
2026-05-20 17:32:45.459,1181904915,409459,1,0.62964,0.03857,0.5542,63.13,-16.496,26.832
2026-05-20 17:32:45.459,1181904915,409459,2,0.51221,-0.24512,-0.04004,27.221,-33.641,20.115
2026-05-20 17:32:45.659,1181905115,409659,1,0.79395,-0.05054,0.42456,-0.771,-48.962,22.794
2026-05-20 17:32:45.659,1181905115,409659,2,1.08276,-0.26294,0.16113,7.359,-21.718,1.679
2026-05-20 17:32:45.859,1181905315,409859,1,0.9502,-0.02783,0.46289,6.191,-24.237,8.924
2026-05-20 17:32:45.859,1181905315,409859,2,1.04224,-0.27271,0.04883,22.603,-19.191,9.183
2026-05-20 17:32:45.059,1181904515,410059,1,0.94482,-0.00659,0.35815,17.656,-13.618,10.504
2026-05-20 17:32:45.059,1181904515,410059,2,0.87646,-0.28125,-0.01196,-2.275,-43.672,-3.29
2026-05-20 17:32:45.259,1181904715,410259,1,1.08105,-0.11987,0.28711,51.038,-9.527,13.863
2026-05-20 17:32:45.259,1181904715,410259,2,0.89087,-0.34326,-0.06567,2.496,-2.71,14.206
2026-05-20 17:32:46.459,1181905915,410459,1,1.09741,-0.21411,0.302,-21.237,-6.718,1.947
2026-05-20 17:32:46.459,1181905915,410459,2,1.00659,-0.32861,-0.14893,-17.855,8.16,-3.344
2026-05-20 17:32:46.659,1181906115,410659,1,1.00757,-0.15601,0.3064,-20.45,2.763,-8.74
2026-05-20 17:32:46.659,1181906115,410659,2,1.00757,-0.33838,-0.18555,-9.931,1.595,2.748
2026-05-20 17:32:46.859,1181906315,410859,1,1.02026,-0.12036,0.31641,0.405,4.626,-8.107
2026-05-20 17:32:46.859,1181906315,410859,2,0.9104,-0.32593,-0.18555,9.641,17.115,6.084
2026-05-20 17:32:46.059,1181905515,411059,1,1.1665,-0.06323,0.3147,4.252,-3.718,-3.298
2026-05-20 17:32:46.059,1181905515,411059,2,0.99219,-0.30688,-0.18408,3.061,-0.908,-6.824
2026-05-20 17:32:46.259,1181905715,411259,1,1.04492,-0.11646,0.33276,19.916,-1.084,4.634
2026-05-20 17:32:46.259,1181905715,411259,2,1.021,-0.25757,-0.13257,13.557,-9.672,-3.237
2026-05-20 17:32:47.459,1181906915,411459,1,1.05103,-0.0564,0.2666,4.015,-7.733,1.847
2026-05-20 17:32:47.459,1181906915,411459,2,1.02563,-0.22412,-0.08765,1.931,5.832,-0.099
2026-05-20 17:32:47.659,1181907115,411659,1,1.04272,-0.08179,0.25806,-13.244,-0.634,-4.595
2026-05-20 17:32:47.659,1181907115,411659,2,0.99243,-0.27124,-0.13721,-9.351,1.817,1.084
2026-05-20 17:32:47.859,1181907315,411859,1,1.02856,-0.07861,0.2915,0.794,8.824,-2.992
2026-05-20 17:32:47.859,1181907315,411859,2,0.98486,-0.2627,-0.15967,-10.954,-2.718,1.092
2026-05-20 17:32:47.059,1181906515,412059,1,1.03784,-0.05762,0.28882,-6.069,4.832,-2.534
2026-05-20 17:32:47.059,1181906515,412059,2,0.98242,-0.28613,-0.15356,-8.069,0.015,2.489
2026-05-20 17:32:47.259,1181906715,412259,1,1.04541,-0.0835,0.30493,-4.351,1.55,-3.466
2026-05-20 17:32:47.259,1181906715,412259,2,0.99316,-0.28784,-0.16626,-1.206,0.87,0.252
2026-05-20 17:32:48.569,1181908025,412569,1,1.04321,-0.073,0.29346,-1.893,-1.542,0.824
2026-05-20 17:32:48.569,1181908025,412569,2,0.98901,-0.28198,-0.16455,2.237,2.145,0.267
2026-05-20 17:32:48.769,1181908225,412769,1,1.03784,-0.05664,0.28027,-10.344,-2.282,0.191
2026-05-20 17:32:48.769,1181908225,412769,2,0.98364,-0.27417,-0.14624,-3.038,1.977,2.237
2026-05-20 17:32:48.979,1181908435,412979,1,1.04883,-0.08862,0.27002,-19.313,-0.947,-0.099
2026-05-20 17:32:48.979,1181908435,412979,2,1.00024,-0.28369,-0.15454,-5.519,2.695,1.847
2026-05-20 17:32:48.179,1181907635,413179,1,1.0354,-0.08276,0.26196,-10.084,4.71,-0.634
2026-05-20 17:32:48.179,1181907635,413179,2,0.98877,-0.2832,-0.14917,-9.885,3.176,2.779
2026-05-20 17:32:48.379,1181907835,413379,1,1.03711,-0.07446,0.28101,-1.779,3.847,3.42
2026-05-20 17:32:48.379,1181907835,413379,2,0.99243,-0.29932,-0.1709,-8.794,-1.565,4.282
2026-05-20 17:32:49.579,1181909035,413579,1,1.03052,-0.11621,0.29541,-12.763,6.366,-1.87
2026-05-20 17:32:49.579,1181909035,413579,2,0.98535,-0.30225,-0.17798,-10.649,1.885,1.023
2026-05-20 17:32:49.779,1181909235,413779,1,1.02588,-0.11133,0.3103,-10.214,6.695,-4.198
2026-05-20 17:32:49.779,1181909235,413779,2,0.97778,-0.30054,-0.16235,-10.366,5.0,1.947
2026-05-20 17:32:49.979,1181909435,413979,1,1.02466,-0.09937,0.31055,-16.695,-0.794,-0.702
2026-05-20 17:32:49.979,1181909435,413979,2,0.9751,-0.31201,-0.13867,-4.282,4.496,2.756
2026-05-20 17:32:49.179,1181908635,414179,1,1.03882,-0.11523,0.29272,-10.069,1.939,0.298
2026-05-20 17:32:49.179,1181908635,414179,2,0.99927,-0.31738,-0.15674,-4.13,6.58,0.656
2026-05-20 17:32:49.379,1181908835,414379,1,1.06006,-0.15625,0.27417,-18.756,14.947,-3.878
2026-05-20 17:32:49.379,1181908835,414379,2,1.02515,-0.34985,-0.02441,11.366,15.145,3.916
2026-05-20 17:32:50.579,1181910035,414579,1,1.00415,-0.19751,0.22852,-3.947,90.29,-18.58
2026-05-20 17:32:50.579,1181910035,414579,2,1.00537,-0.28589,0.11084,-9.817,92.13,-6.382
2026-05-20 17:32:50.779,1181910235,414779,1,0.35742,-0.02734,0.61841,10.542,155.374,-10.748
2026-05-20 17:32:50.779,1181910235,414779,2,0.71484,-0.2395,0.45288,21.336,151.198,7.321
2026-05-20 17:32:50.979,1181910435,414979,1,0.05859,0.02881,1.19922,14.55,132.008,-15.527
2026-05-20 17:32:50.979,1181910435,414979,2,0.40942,-0.14746,0.85791,36.855,72.504,-5.023
2026-05-20 17:32:50.179,1181909635,415179,1,-0.20581,0.09766,1.36768,4.305,50.832,-6.351
2026-05-20 17:32:50.179,1181909635,415179,2,0.28564,-0.06152,0.99976,3.298,20.42,4.221
2026-05-20 17:32:50.379,1181909835,415379,1,-0.18872,0.08228,1.22168,-11.588,-9.595,6.672
2026-05-20 17:32:50.379,1181909835,415379,2,0.33057,-0.09619,0.86523,-5.565,-10.374,2.992
2026-05-20 17:32:51.579,1181911035,415579,1,-0.02075,0.05908,1.17798,-4.473,3.29,0.664
2026-05-20 17:32:51.579,1181911035,415579,2,0.40967,-0.16357,0.896,-19.313,-29.145,3.55
2026-05-20 17:32:51.779,1181911235,415779,1,-0.04272,0.01685,1.14868,-8.794,-24.832,0.45
2026-05-20 17:32:51.779,1181911235,415779,2,0.40747,-0.14624,0.6958,-31.344,-75.634,7.008
2026-05-20 17:32:51.979,1181911435,415979,1,0.11377,-0.07837,1.07764,1.084,-104.618,10.511
2026-05-20 17:32:51.979,1181911435,415979,2,0.75708,-0.31177,0.49146,-10.603,-86.565,-2.58
2026-05-20 17:32:51.179,1181910635,416179,1,1.41357,-0.36084,0.4624,151.206,-47.267,16.198
2026-05-20 17:32:51.179,1181910635,416179,2,0.93555,-0.13208,0.37183,-13.565,-63.031,-5.168
2026-05-20 17:32:51.379,1181910835,416379,1,0.87866,0.05444,0.57764,33.626,-53.924,32.153
2026-05-20 17:32:51.379,1181910835,416379,2,0.98047,-0.26538,0.20605,-8.87,-24.046,8.069
2026-05-20 17:32:52.579,1181912035,416579,1,0.93774,0.04761,0.54077,-25.0,-32.748,4.527
2026-05-20 17:32:52.579,1181912035,416579,2,0.98389,-0.34473,0.09814,9.344,-8.908,0.435
2026-05-20 17:32:52.779,1181912235,416779,1,0.9231,0.00195,0.53369,0.611,47.176,-15.55
2026-05-20 17:32:52.779,1181912235,416779,2,0.95581,-0.24878,0.25757,7.794,59.374,-12.298
2026-05-20 17:32:52.979,1181912435,416979,1,0.59277,0.03491,0.7207,-3.214,109.145,-26.832
2026-05-20 17:32:52.979,1181912435,416979,2,0.86475,-0.19214,0.66602,-1.626,69.931,0.45
2026-05-20 17:32:52.179,1181911635,417179,1,0.32397,0.06104,1.01709,4.466,124.229,-23.145
2026-05-20 17:32:52.179,1181911635,417179,2,0.6499,-0.30273,0.69897,13.267,67.046,5.87
2026-05-20 17:32:53.503,1181912959,417503,1,-0.04834,0.09863,1.11157,-14.962,56.756,-11.634
2026-05-20 17:32:53.503,1181912959,417503,2,0.41382,-0.17651,0.81104,16.702,39.13,7.588
2026-05-20 17:32:53.703,1181913159,417703,1,-0.58667,0.11377,1.37671,0.45,51.824,-5.176
2026-05-20 17:32:53.703,1181913159,417703,2,0.28564,-0.20093,0.83643,0.374,1.443,-3.023
2026-05-20 17:32:53.903,1181913359,417903,1,-0.28906,0.01538,1.2417,-9.328,-24.931,7.565
2026-05-20 17:32:53.903,1181913359,417903,2,0.40088,-0.12891,0.85376,-27.198,-62.924,-3.084
2026-05-20 17:32:53.103,1181912559,418103,1,-0.08154,0.04077,1.2019,-1.725,-89.71,5.878
2026-05-20 17:32:53.103,1181912559,418103,2,0.62842,-0.22266,0.61792,-38.153,-90.679,1.847
2026-05-20 17:32:53.303,1181912759,418303,1,0.39478,-0.02832,0.9082,14.511,-87.649,9.626
2026-05-20 17:32:53.303,1181912759,418303,2,0.86621,-0.34253,0.26245,-30.511,-81.763,-7.733
2026-05-20 17:32:54.503,1181913959,418503,1,0.60474,-0.02515,0.71631,20.786,-108.443,30.42
2026-05-20 17:32:54.503,1181913959,418503,2,0.92505,-0.37964,0.14844,-11.618,-68.924,-12.725
2026-05-20 17:32:54.703,1181914159,418703,1,0.88477,-0.1189,0.55713,50.282,-89.023,51.817
2026-05-20 17:32:54.703,1181914159,418703,2,1.0376,-0.271,-0.05078,7.214,-21.252,2.855
2026-05-20 17:32:54.903,1181914359,418903,1,1.07104,-0.09058,0.30957,74.908,-39.115,38.298
2026-05-20 17:32:54.903,1181914359,418903,2,0.98022,-0.26294,-0.04077,14.16,-19.183,-1.87
2026-05-20 17:32:54.103,1181913559,419103,1,1.05127,-0.10864,0.28662,21.267,-9.168,6.427
2026-05-20 17:32:54.103,1181913559,419103,2,1.00269,-0.27075,-0.14795,13.885,-8.046,-7.817
2026-05-20 17:32:54.303,1181913759,419303,1,1.05884,-0.08569,0.25464,8.344,-4.084,1.038
2026-05-20 17:32:54.303,1181913759,419303,2,1.02319,-0.22632,-0.11768,14.611,-2.366,-0.939
2026-05-20 17:32:55.503,1181914959,419503,1,1.0459,-0.06665,0.23193,-29.275,0.901,-5.183
2026-05-20 17:32:55.503,1181914959,419503,2,0.99121,-0.23975,-0.16235,-4.519,4.756,8.718
2026-05-20 17:32:55.703,1181915159,419703,1,1.05151,-0.11182,0.26099,-47.84,2.84,-12.511
2026-05-20 17:32:55.703,1181915159,419703,2,0.97827,-0.2937,-0.14917,-1.618,-11.992,-6.298
2026-05-20 17:32:55.903,1181915359,419903,1,1.07349,-0.09473,0.22949,-21.084,3.534,-4.519
2026-05-20 17:32:55.903,1181915359,419903,2,0.97876,-0.26416,-0.17456,-16.992,1.573,4.038
2026-05-20 17:32:55.103,1181914559,420103,1,1.00024,-0.09106,0.27954,7.656,12.466,-1.313
2026-05-20 17:32:55.103,1181914559,420103,2,0.98169,-0.29541,-0.1333,-6.298,1.069,1.023
2026-05-20 17:32:55.303,1181914759,420303,1,1.0376,-0.10718,0.30664,-4.0,0.618,1.695
2026-05-20 17:32:55.303,1181914759,420303,2,1.04248,-0.24805,-0.1272,7.443,-6.947,1.237
2026-05-20 17:32:56.503,1181915959,420503,1,1.06641,-0.13452,0.24854,-25.221,34.321,-19.611
2026-05-20 17:32:56.503,1181915959,420503,2,1.07202,-0.27344,-0.08545,-5.122,22.008,-10.947
2026-05-20 17:32:56.703,1181916159,420703,1,0.4917,-0.03418,0.30444,-46.863,38.183,-37.015
2026-05-20 17:32:56.703,1181916159,420703,2,0.61304,-0.02637,0.00244,-20.718,79.244,17.191
2026-05-20 17:32:56.903,1181916359,420903,1,0.58228,-0.00439,0.62646,-23.947,21.595,-14.718
2026-05-20 17:32:56.903,1181916359,420903,2,0.93604,-0.2749,0.11377,-10.153,36.084,2.527
2026-05-20 17:32:56.103,1181915559,421103,1,0.92065,-0.02319,0.92822,-5.046,-10.031,-13.267
2026-05-20 17:32:56.103,1181915559,421103,2,1.15796,-0.48535,0.42627,-36.618,20.71,-0.122
2026-05-20 17:32:56.303,1181915759,421303,1,1.26001,-0.04688,0.99536,5.603,-8.916,-7.756
2026-05-20 17:32:56.303,1181915759,421303,2,1.05127,-0.38818,0.32959,-5.298,-8.153,5.855
2026-05-20 17:32:57.503,1181916959,421503,1,0.67651,0.06079,0.49438,-13.763,-6.763,-8.55
2026-05-20 17:32:57.503,1181916959,421503,2,0.74268,-0.44067,0.1123,-16.115,-22.076,2.099
2026-05-20 17:32:57.703,1181917159,421703,1,1.8501,-0.01929,0.72925,6.031,18.214,9.229
2026-05-20 17:32:57.703,1181917159,421703,2,1.19507,-0.43701,0.10693,15.092,70.893,0.076
2026-05-20 17:32:57.923,1181917379,421923,1,0.74438,0.14429,0.83057,41.58,123.084,-5.176
2026-05-20 17:32:57.923,1181917379,421923,2,0.84595,-0.30542,0.34717,6.031,18.076,-1.969
2026-05-20 17:32:57.123,1181916579,422123,1,0.6167,-0.00293,1.03442,-1.061,28.107,1.702
2026-05-20 17:32:57.123,1181916579,422123,2,0.79395,-0.38672,0.40234,7.908,18.069,7.29
2026-05-20 17:32:57.323,1181916779,422323,1,0.52881,0.06567,0.87598,20.458,-16.725,10.802
2026-05-20 17:32:57.323,1181916779,422323,2,0.6106,-0.25195,0.21899,11.626,-18.176,-7.802
2026-05-20 17:32:58.523,1181917979,422523,1,0.31909,0.09326,0.50854,53.313,-84.191,46.885
2026-05-20 17:32:58.523,1181917979,422523,2,0.73193,0.03442,0.05615,-49.557,-243.969,-39.832
2026-05-20 17:32:58.723,1181918179,422723,1,0.89429,-0.01953,0.50366,-3.908,-23.046,7.588
2026-05-20 17:32:58.723,1181918179,422723,2,1.3269,-0.44116,0.01831,20.656,5.916,19.802
2026-05-20 17:32:58.923,1181918379,422923,1,0.87524,0.01489,0.65503,-15.26,33.779,-15.443
2026-05-20 17:32:58.923,1181918379,422923,2,0.93628,-0.31177,0.35181,13.985,42.015,-3.206
2026-05-20 17:32:58.123,1181917579,423123,1,0.5918,0.02881,0.86938,-29.626,73.511,-19.137
2026-05-20 17:32:58.123,1181917579,423123,2,0.79761,-0.42529,0.36597,20.832,68.229,12.176
2026-05-20 17:32:58.323,1181917779,423323,1,0.29053,0.08276,1.04785,-15.618,77.282,-9.221
2026-05-20 17:32:58.323,1181917779,423323,2,0.71802,-0.30713,0.55835,20.107,53.305,18.084
2026-05-20 17:32:59.523,1181918979,423523,1,0.04907,0.08862,1.12427,11.885,82.618,4.313
2026-05-20 17:32:59.523,1181918979,423523,2,0.63013,-0.17871,0.72388,30.74,48.84,9.901
2026-05-20 17:32:59.723,1181919179,423723,1,-0.12378,0.06372,1.14282,10.206,57.763,-0.229
2026-05-20 17:32:59.723,1181919179,423723,2,0.40869,-0.15869,0.8103,8.107,45.344,-5.427
2026-05-20 17:32:59.923,1181919379,423923,1,-0.2356,0.03052,1.07422,1.931,28.542,-1.595
2026-05-20 17:32:59.923,1181919379,423923,2,0.15405,0.00024,0.93921,-1.687,11.221,-3.458
2026-05-20 17:32:59.123,1181918579,424123,1,-0.44946,0.03735,1.32446,-9.328,-41.702,2.74
2026-05-20 17:32:59.123,1181918579,424123,2,0.36743,-0.07227,0.87988,-26.435,-66.084,0.908
2026-05-20 17:32:59.323,1181918779,424323,1,-0.08594,0.02173,1.05371,-10.534,-106.641,12.58
2026-05-20 17:32:59.323,1181918779,424323,2,0.69507,-0.26245,0.66528,-50.985,-100.71,-1.42
2026-05-20 17:33:00.523,1181919979,424523,1,0.23633,-0.08203,0.86084,0.458,-131.779,12.26
2026-05-20 17:33:00.523,1181919979,424523,2,1.00952,-0.33179,0.19849,-2.405,-69.405,-18.687
2026-05-20 17:33:00.784,1181920240,424784,1,0.84985,-0.14429,0.56616,29.611,-104.756,16.244
2026-05-20 17:33:00.784,1181920240,424784,2,1.06567,-0.34888,0.01001,14.023,-51.298,-8.611
2026-05-20 17:33:00.984,1181920440,424984,1,1.00562,-0.05933,0.45581,61.863,-58.427,28.511
2026-05-20 17:33:00.984,1181920440,424984,2,1.04346,-0.34497,-0.06738,19.595,-9.702,-16.802
2026-05-20 17:33:00.184,1181919640,425184,1,1.01147,0.00439,0.30005,19.763,-11.214,13.237
2026-05-20 17:33:00.184,1181919640,425184,2,0.99365,-0.2417,-0.08838,21.954,-10.885,1.145
2026-05-20 17:33:00.384,1181919840,425384,1,1.03369,0.10132,0.35229,-1.809,4.305,-1.198
2026-05-20 17:33:00.384,1181919840,425384,2,0.96143,-0.27515,-0.1792,11.603,-10.863,4.656
2026-05-20 17:33:01.584,1181921040,425584,1,1.09644,0.04541,0.23486,-1.061,-1.649,11.298
2026-05-20 17:33:01.584,1181921040,425584,2,1.01855,-0.15234,-0.16187,-23.374,-0.931,6.008
2026-05-20 17:33:01.784,1181921240,425784,1,1.01172,-0.02148,0.29614,-34.634,10.0,-8.695
2026-05-20 17:33:01.784,1181921240,425784,2,0.97729,-0.27222,-0.20508,-34.107,16.565,3.924
2026-05-20 17:33:01.069,1181920525,426069,1,1.04639,-0.0188,0.30835,-16.305,-2.809,-2.71
2026-05-20 17:33:01.069,1181920525,426069,2,1.01074,-0.26904,-0.16113,-16.771,-1.023,5.611
2026-05-20 17:33:01.290,1181920746,426290,1,1.01758,-0.07104,0.33472,-1.229,3.534,0.977
2026-05-20 17:33:01.290,1181920746,426290,2,0.99121,-0.26123,-0.12891,-3.649,4.305,2.641
2026-05-20 17:33:02.490,1181921946,426490,1,1.0542,-0.03149,0.36011,-14.504,0.641,3.16
2026-05-20 17:33:02.490,1181921946,426490,2,0.92285,-0.28369,-0.16724,6.496,-2.122,2.435
2026-05-20 17:33:02.690,1181922146,426690,1,1.0166,-0.07813,0.34033,-11.275,5.244,-2.336
2026-05-20 17:33:02.690,1181922146,426690,2,1.00854,-0.27051,-0.15259,-11.435,8.397,3.344
2026-05-20 17:33:02.890,1181922346,426890,1,1.02759,-0.09766,0.36133,-13.466,2.603,2.26
2026-05-20 17:33:02.890,1181922346,426890,2,0.98193,-0.30566,-0.17773,-11.695,-0.534,5.565
2026-05-20 17:33:02.101,1181921557,427101,1,0.99121,-0.14673,0.35767,-2.802,-7.977,-1.221
2026-05-20 17:33:02.101,1181921557,427101,2,0.95605,-0.34741,-0.11206,-5.511,-4.305,-6.405
2026-05-20 17:33:02.301,1181921757,427301,1,0.99536,-0.13428,0.32153,40.084,16.87,-6.115
2026-05-20 17:33:02.301,1181921757,427301,2,0.97412,-0.34961,-0.09229,8.824,0.13,-10.023
2026-05-20 17:33:03.501,1181922957,427501,1,1.02588,-0.03955,0.29663,15.863,3.962,-1.16
2026-05-20 17:33:03.501,1181922957,427501,2,0.99414,-0.25366,-0.1748,18.229,-7.0,-11.962
2026-05-20 17:33:03.701,1181923157,427701,1,1.01318,-0.02661,0.32544,14.733,-1.511,4.908
2026-05-20 17:33:03.701,1181923157,427701,2,0.97437,-0.2478,-0.17285,16.115,-5.985,0.695
2026-05-20 17:33:03.901,1181923357,427901,1,1.02881,-0.0603,0.32349,12.534,-0.863,4.031
2026-05-20 17:33:03.901,1181923357,427901,2,1.00195,-0.26709,-0.15381,-0.985,-2.473,-3.466
2026-05-20 17:33:03.101,1181922557,428101,1,1.04419,-0.04883,0.2937,-4.573,-4.763,5.893
2026-05-20 17:33:03.101,1181922557,428101,2,1.00952,-0.20508,-0.16309,1.58,-2.947,3.015
2026-05-20 17:33:03.301,1181922757,428301,1,1.04785,-0.0791,0.27368,-13.718,-1.969,-2.092
2026-05-20 17:33:03.301,1181922757,428301,2,0.99927,-0.24316,-0.21411,-6.733,3.855,-1.26
2026-05-20 17:33:04.501,1181923957,428501,1,1.04663,-0.05933,0.22583,-3.015,-2.351,1.45
2026-05-20 17:33:04.501,1181923957,428501,2,1.00269,-0.19019,-0.21631,5.847,0.977,3.168
2026-05-20 17:33:04.701,1181924157,428701,1,1.0249,-0.12109,0.27173,-4.725,5.641,-6.321
2026-05-20 17:33:04.701,1181924157,428701,2,0.97168,-0.28247,-0.23657,-2.092,0.359,7.198
2026-05-20 17:33:04.901,1181924357,428901,1,1.05273,-0.06177,0.24878,25.748,-6.244,14.947
2026-05-20 17:33:04.901,1181924357,428901,2,0.99609,-0.27417,-0.14111,7.29,-10.908,4.725
2026-05-20 17:33:04.101,1181923557,429101,1,1.04736,-0.13574,0.24463,-37.809,3.336,2.908
2026-05-20 17:33:04.101,1181923557,429101,2,0.99097,-0.23877,-0.25488,-8.443,-3.748,6.389
2026-05-20 17:33:04.301,1181923757,429301,1,1.01221,-0.10986,0.25659,-18.519,-1.855,0.061
2026-05-20 17:33:04.301,1181923757,429301,2,0.97144,-0.31421,-0.21338,-18.137,4.565,5.229
2026-05-20 17:33:05.501,1181924957,429501,1,1.04761,-0.15674,0.24561,-5.046,6.725,-2.061
2026-05-20 17:33:05.501,1181924957,429501,2,0.95386,-0.32861,-0.24365,-3.794,0.473,0.374
2026-05-20 17:33:05.701,1181925157,429701,1,1.02417,-0.10522,0.27295,15.466,4.55,0.374
2026-05-20 17:33:05.701,1181925157,429701,2,0.96094,-0.31104,-0.18896,4.42,10.542,0.389
2026-05-20 17:33:05.901,1181925357,429901,1,1.03857,-0.14551,0.25928,26.313,8.603,-0.466
2026-05-20 17:33:05.901,1181925357,429901,2,1.00781,-0.28809,-0.19556,3.939,0.031,-3.588
2026-05-20 17:33:05.101,1181924557,430101,1,1.02881,-0.12744,0.29956,-6.679,8.153,-7.252
2026-05-20 17:33:05.101,1181924557,430101,2,1.04224,-0.29883,-0.15161,0.466,8.565,0.435
2026-05-20 17:33:05.327,1181924783,430327,1,1.02661,-0.10986,0.30298,-9.305,7.908,-3.427
2026-05-20 17:33:05.327,1181924783,430327,2,1.03223,-0.2583,-0.13989,-5.481,6.885,1.405
2026-05-20 17:33:06.527,1181925983,430527,1,1.05347,-0.13062,0.34155,0.916,34.427,-13.069
2026-05-20 17:33:06.527,1181925983,430527,2,1.02637,-0.26099,-0.0354,-10.244,25.0,-11.534
2026-05-20 17:33:06.727,1181926183,430727,1,0.50708,0.04736,0.50146,22.397,102.183,-31.16
2026-05-20 17:33:06.727,1181926183,430727,2,0.15845,-0.21313,-0.05811,-3.74,95.137,13.733
2026-05-20 17:33:06.927,1181926383,430927,1,1.45654,0.04053,1.00366,16.374,60.061,-35.74
2026-05-20 17:33:06.927,1181926383,430927,2,1.45068,-0.21313,0.31592,16.344,53.656,8.42
2026-05-20 17:33:06.127,1181925583,431127,1,0.43213,-0.00122,0.6001,-8.481,86.221,-16.435
2026-05-20 17:33:06.127,1181925583,431127,2,0.59277,-0.22046,0.40649,17.809,69.954,0.634
2026-05-20 17:33:06.327,1181925783,431327,1,0.24146,0.0415,0.93091,-2.42,110.382,-13.947
2026-05-20 17:33:06.327,1181925783,431327,2,0.66382,-0.19067,0.63354,44.145,83.786,15.573
2026-05-20 17:33:07.527,1181926983,431527,1,-0.12866,0.12036,1.22192,-3.931,91.931,-7.137
2026-05-20 17:33:07.527,1181926983,431527,2,0.40796,-0.16528,0.87085,19.0,49.176,4.397
2026-05-20 17:33:07.727,1181927183,431727,1,-0.31104,0.13525,1.13086,6.069,18.16,-4.214
2026-05-20 17:33:07.727,1181927183,431727,2,0.25562,-0.07886,0.93115,2.939,11.947,3.992
2026-05-20 17:33:07.927,1181927383,431927,1,-0.15845,-0.01025,1.03809,-8.626,-36.649,3.015
2026-05-20 17:33:07.927,1181927383,431927,2,0.40479,-0.2002,0.90698,-19.595,-25.84,-3.947
2026-05-20 17:33:07.127,1181926583,432127,1,-0.12207,0.08691,1.25635,-10.992,-45.679,1.954
2026-05-20 17:33:07.127,1181926583,432127,2,0.53833,-0.29028,0.75806,-25.947,-73.87,-1.351
2026-05-20 17:33:07.327,1181926783,432327,1,0.08105,0.02222,1.05249,2.931,-80.588,-0.763
2026-05-20 17:33:07.327,1181926783,432327,2,0.68945,-0.27344,0.4729,-38.13,-102.489,-17.687
2026-05-20 17:33:08.527,1181927983,432527,1,0.36426,0.15308,0.74341,45.931,-75.916,7.802
2026-05-20 17:33:08.527,1181927983,432527,2,0.97168,-0.3064,0.28345,-11.107,-56.511,-5.214
2026-05-20 17:33:08.727,1181928183,432727,1,0.75366,0.03906,0.74512,32.366,-69.229,24.443
2026-05-20 17:33:08.727,1181928183,432727,2,0.96143,-0.38696,0.13403,13.458,-43.16,-4.16
2026-05-20 17:33:08.927,1181928383,432927,1,0.93652,0.02051,0.51099,9.695,-55.305,25.611
2026-05-20 17:33:08.927,1181928383,432927,2,1.04565,-0.29639,0.00781,-9.771,-21.901,5.687
2026-05-20 17:33:08.127,1181927583,433127,1,0.95459,-0.04443,0.54102,0.221,-0.863,3.588
2026-05-20 17:33:08.127,1181927583,433127,2,0.99463,-0.26587,-0.05908,8.832,4.718,-4.595
2026-05-20 17:33:08.327,1181927783,433327,1,0.97119,-0.01416,0.52246,11.137,36.046,-10.496
2026-05-20 17:33:08.327,1181927783,433327,2,0.90991,-0.20581,0.15479,7.763,45.534,-14.756
2026-05-20 17:33:09.527,1181928983,433527,1,0.40674,0.02466,0.66162,-20.427,57.099,-32.061
2026-05-20 17:33:09.527,1181928983,433527,2,0.54663,-0.03955,0.10522,-38.298,79.763,2.336
2026-05-20 17:33:09.727,1181929183,433727,1,0.60571,0.17236,0.88892,-61.565,-61.183,-6.076
2026-05-20 17:33:09.727,1181929183,433727,2,0.87354,-0.40112,0.36768,-22.466,-40.908,-3.649
2026-05-20 17:33:09.927,1181929383,433927,1,0.86157,0.11548,0.86597,0.443,-15.962,-5.809
2026-05-20 17:33:09.927,1181929383,433927,2,1.02393,-0.30884,0.34399,-18.092,-28.031,6.382
2026-05-20 17:33:09.127,1181928583,434127,1,1.02979,0.22119,0.8396,-6.573,-40.55,-4.206
2026-05-20 17:33:09.127,1181928583,434127,2,1.20264,-0.36914,0.33569,-9.29,-11.321,-13.351
2026-05-20 17:33:09.329,1181928785,434329,1,1.1001,0.07617,0.6145,13.092,0.481,8.237
2026-05-20 17:33:09.329,1181928785,434329,2,0.87378,-0.33252,0.21484,4.786,4.427,8.656
2026-05-20 17:33:10.773,1181930229,434773,1,0.92773,0.04907,0.60278,-3.649,2.664,-3.809
2026-05-20 17:33:10.773,1181930229,434773,2,1.20801,-0.35986,0.17725,9.305,35.176,9.305
2026-05-20 17:33:10.251,1181929707,435251,1,0.80444,0.01001,0.75366,-13.221,21.351,4.176
2026-05-20 17:33:10.251,1181929707,435251,2,0.94897,-0.36377,0.19287,12.198,-36.481,-4.786
2026-05-20 17:33:11.451,1181930907,435451,1,0.8894,0.0127,0.78076,11.878,-26.45,32.817
2026-05-20 17:33:11.451,1181930907,435451,2,0.99731,-0.25415,0.17358,29.565,-43.313,0.504
2026-05-20 17:33:11.651,1181931107,435651,1,0.76587,-0.0127,0.54321,57.618,-16.962,28.267
2026-05-20 17:33:11.651,1181931107,435651,2,0.6687,-0.22583,0.14917,49.359,-40.031,6.084
2026-05-20 17:33:11.851,1181931307,435851,1,0.58228,-0.03271,0.39136,39.023,-35.985,27.992
2026-05-20 17:33:11.851,1181931307,435851,2,1.04175,-0.29932,0.1626,8.115,-18.084,3.145
2026-05-20 17:33:11.051,1181930507,436051,1,1.01367,0.02075,0.44604,3.504,4.511,-6.137
2026-05-20 17:33:11.051,1181930507,436051,2,0.93628,-0.31592,-0.03101,-9.832,-26.534,8.191
2026-05-20 17:33:11.251,1181930707,436251,1,1.03101,-0.08667,0.37061,-5.511,-8.053,-1.901
2026-05-20 17:33:11.251,1181930707,436251,2,0.9436,-0.33496,-0.00732,-13.672,1.565,3.366
2026-05-20 17:33:12.451,1181931907,436451,1,1.00903,-0.07031,0.38208,-6.962,-1.634,1.031
2026-05-20 17:33:12.451,1181931907,436451,2,0.96118,-0.32983,-0.04175,0.748,-8.679,3.031
2026-05-20 17:33:12.651,1181932107,436651,1,1.02002,-0.07422,0.39404,4.481,-1.191,4.061
2026-05-20 17:33:12.651,1181932107,436651,2,0.98608,-0.33057,-0.06592,5.305,-1.687,-0.534
2026-05-20 17:33:12.851,1181932307,436851,1,1.0249,-0.09351,0.37134,-6.191,-4.336,-0.45
2026-05-20 17:33:12.851,1181932307,436851,2,0.9895,-0.31396,-0.06641,2.206,-2.573,-0.695
2026-05-20 17:33:12.051,1181931507,437051,1,1.01489,-0.09399,0.34863,-5.779,-2.702,-0.924
2026-05-20 17:33:12.051,1181931507,437051,2,0.97534,-0.32471,-0.06665,-2.023,-1.321,-0.656
2026-05-20 17:33:12.251,1181931707,437251,1,1.02295,-0.10376,0.34277,8.267,0.527,2.099
2026-05-20 17:33:12.251,1181931707,437251,2,0.95386,-0.30713,-0.07275,1.0,-2.954,-1.611
2026-05-20 17:33:13.451,1181932907,437451,1,1.02637,-0.07935,0.3562,20.282,1.977,0.443
2026-05-20 17:33:13.451,1181932907,437451,2,0.99268,-0.29639,-0.08716,5.389,-5.603,-1.901
2026-05-20 17:33:13.651,1181933107,437651,1,1.01392,-0.05664,0.34521,8.779,0.893,-0.824
2026-05-20 17:33:13.651,1181933107,437651,2,1.00586,-0.28369,-0.10059,4.0,-2.29,-2.962
2026-05-20 17:33:13.851,1181933307,437851,1,1.02246,-0.03809,0.34009,3.336,-0.328,-1.641
2026-05-20 17:33:13.851,1181933307,437851,2,0.98999,-0.28296,-0.08472,-1.153,-1.244,-0.229
2026-05-20 17:33:13.051,1181932507,438051,1,1.03296,-0.04443,0.32739,-3.305,-3.672,-0.771
2026-05-20 17:33:13.051,1181932507,438051,2,1.00073,-0.26294,-0.11157,0.473,0.855,-0.55
2026-05-20 17:33:13.251,1181932707,438251,1,1.03394,-0.04102,0.32324,-7.26,-4.969,-0.145
2026-05-20 17:33:13.251,1181932707,438251,2,1.00488,-0.26636,-0.11182,-1.672,-3.611,0.13
2026-05-20 17:33:14.451,1181933907,438451,1,1.04639,-0.04517,0.28662,-20.511,-3.45,-1.626
2026-05-20 17:33:14.451,1181933907,438451,2,1.00708,-0.26538,-0.11841,-3.282,-4.061,1.664
2026-05-20 17:33:14.651,1181934107,438651,1,1.03955,-0.05444,0.26855,-16.405,1.16,-1.046
2026-05-20 17:33:14.651,1181934107,438651,2,0.99829,-0.27954,-0.12598,-7.198,-0.382,2.115
2026-05-20 17:33:14.851,1181934307,438851,1,1.03979,-0.08374,0.28882,-8.809,5.718,-2.328
2026-05-20 17:33:14.851,1181934307,438851,2,0.97314,-0.29321,-0.13867,-9.305,1.573,2.542
2026-05-20 17:33:14.051,1181933507,439051,1,1.03394,-0.05371,0.31177,6.321,6.275,1.557
2026-05-20 17:33:14.051,1181933507,439051,2,0.98804,-0.28564,-0.12964,-6.901,2.786,2.672
2026-05-20 17:33:14.251,1181933707,439251,1,1.03223,-0.06714,0.32642,-0.771,8.29,-1.206
2026-05-20 17:33:14.251,1181933707,439251,2,0.98242,-0.30151,-0.11206,-6.687,2.397,2.359
2026-05-20 17:33:15.451,1181934907,439451,1,1.01807,-0.0791,0.34839,-9.046,3.466,-2.084
2026-05-20 17:33:15.451,1181934907,439451,2,1.00024,-0.31519,-0.125,-5.992,0.344,1.252
2026-05-20 17:33:15.651,1181935107,439651,1,1.0686,-0.10962,0.3064,-13.321,13.252,-8.214
2026-05-20 17:33:15.651,1181935107,439651,2,1.05859,-0.31177,-0.02295,9.939,6.748,-8.382
2026-05-20 17:33:15.851,1181935307,439851,1,0.30615,-0.03906,0.2937,58.473,92.053,-30.565
2026-05-20 17:33:15.851,1181935307,439851,2,0.86108,-0.27686,0.26758,-38.496,128.061,-2.206
2026-05-20 17:33:15.201,1181934657,440201,1,0.78711,0.04541,0.93066,-30.603,-2.038,-12.939
2026-05-20 17:33:15.201,1181934657,440201,2,0.99902,-0.35596,0.32959,-50.969,-15.534,-4.71
2026-05-20 17:33:15.401,1181934857,440401,1,1.32617,0.0708,0.99854,-22.366,-38.641,-11.191
2026-05-20 17:33:15.401,1181934857,440401,2,1.60742,-0.58569,0.62573,-43.305,-9.038,-1.916
2026-05-20 17:33:16.601,1181936057,440601,1,0.78369,0.01318,0.67798,-0.374,11.359,-13.878
2026-05-20 17:33:16.601,1181936057,440601,2,0.66162,-0.33594,0.20654,-13.084,-14.198,-1.237
2026-05-20 17:33:16.801,1181936257,440801,1,1.26147,0.06421,0.75879,-2.863,-26.763,2.687
2026-05-20 17:33:16.801,1181936257,440801,2,1.90503,-0.71362,0.57837,22.084,-5.176,2.641
2026-05-20 17:33:16.001,1181935457,441001,1,0.875,-0.1311,0.54199,14.061,78.45,-14.389
2026-05-20 17:33:16.001,1181935457,441001,2,0.96777,-0.39673,0.33203,28.176,49.763,0.908
2026-05-20 17:33:16.201,1181935657,441201,1,0.56152,0.25415,1.02344,7.076,75.908,-2.405
2026-05-20 17:33:16.201,1181935657,441201,2,0.78784,-0.35718,0.49194,-2.244,24.282,-6.176
2026-05-20 17:33:16.401,1181935857,441401,1,0.37427,0.06055,1.13354,14.779,9.695,-4.58
2026-05-20 17:33:16.401,1181935857,441401,2,0.58691,-0.26245,0.49878,-3.084,-28.832,-5.176
2026-05-20 17:33:17.601,1181937057,441601,1,0.30127,0.06421,0.82861,47.618,-47.145,38.481
2026-05-20 17:33:17.601,1181937057,441601,2,0.58032,-0.14355,0.20947,10.099,-66.748,5.74
2026-05-20 17:33:17.801,1181937257,441801,1,0.82202,-0.0083,0.64941,-3.29,-66.153,35.664
2026-05-20 17:33:17.801,1181937257,441801,2,1.02856,-0.20117,0.29028,-23.672,-37.588,3.351
2026-05-20 17:33:17.001,1181936457,442001,1,0.92041,0.00073,0.60889,8.328,13.481,2.351
2026-05-20 17:33:17.001,1181936457,442001,2,0.93457,-0.26392,0.24414,4.939,17.527,-4.618
2026-05-20 17:33:17.201,1181936657,442201,1,0.3938,0.07202,0.6814,0.29,66.634,-34.374
2026-05-20 17:33:17.201,1181936657,442201,2,0.32129,-0.32056,0.0813,5.214,68.206,-3.328
2026-05-20 17:33:17.401,1181936857,442401,1,0.5498,0.04248,0.70801,-19.45,-20.542,-5.603
2026-05-20 17:33:17.401,1181936857,442401,2,0.70581,-0.28345,0.1687,-54.771,-43.237,-11.771
2026-05-20 17:33:18.601,1181938057,442601,1,0.8418,0.13818,0.91821,-34.069,-25.053,-17.634
2026-05-20 17:33:18.601,1181938057,442601,2,0.98975,-0.31299,0.31274,-16.924,-31.26,-3.885
2026-05-20 17:33:18.801,1181938257,442801,1,1.09668,0.10449,0.7937,-55.183,-59.069,-2.183
2026-05-20 17:33:18.801,1181938257,442801,2,1.2937,-0.37158,0.42651,-2.511,-8.687,4.924
2026-05-20 17:33:18.001,1181937457,443001,1,0.95239,0.06323,0.73145,-10.359,9.687,5.679
2026-05-20 17:33:18.001,1181937457,443001,2,1.02832,-0.40137,0.22437,-2.008,-6.0,6.145
2026-05-20 17:33:18.201,1181937657,443201,1,0.97656,0.02856,0.70874,5.321,6.466,2.084
2026-05-20 17:33:18.201,1181937657,443201,2,0.93433,-0.31909,0.22974,7.656,10.679,-0.084
2026-05-20 17:33:19.416,1181938872,443416,1,0.85474,0.01001,0.71289,0.42,2.748,4.183
2026-05-20 17:33:19.416,1181938872,443416,2,1.43091,-0.40601,0.50562,25.893,5.924,-8.542
2026-05-20 17:33:19.730,1181939186,443730,1,0.69238,0.01294,0.84839,2.069,26.191,11.42
2026-05-20 17:33:19.730,1181939186,443730,2,0.91162,-0.28003,0.33154,-0.489,-47.626,-15.122
2026-05-20 17:33:19.949,1181939405,443949,1,0.8667,0.00146,0.85156,7.71,-17.42,8.115
2026-05-20 17:33:19.949,1181939405,443949,2,0.98145,-0.34229,0.22852,10.397,16.076,4.229
2026-05-20 17:33:19.149,1181938605,444149,1,0.68677,-0.02783,0.60962,30.458,-26.374,19.809
2026-05-20 17:33:19.149,1181938605,444149,2,0.48193,-0.15991,0.09985,-12.351,-21.863,2.046
2026-05-20 17:33:19.349,1181938805,444349,1,0.56274,-0.11377,0.39697,51.244,-69.626,44.832
2026-05-20 17:33:19.349,1181938805,444349,2,0.95386,-0.39893,0.01123,12.397,-6.153,-6.092
2026-05-20 17:33:20.643,1181940099,444643,1,1.03784,-0.07397,0.4043,20.374,-22.336,11.443
2026-05-20 17:33:20.643,1181940099,444643,2,0.99438,-0.27441,-0.06201,-5.962,-18.87,-1.374
2026-05-20 17:33:20.891,1181940347,444891,1,1.03125,-0.05347,0.34961,-7.092,-9.763,-0.382
2026-05-20 17:33:20.891,1181940347,444891,2,0.96436,-0.28931,-0.07739,6.565,-6.626,-2.115
2026-05-20 17:33:20.091,1181939547,445091,1,1.03296,-0.02393,0.34058,8.702,-1.511,-0.962
2026-05-20 17:33:20.091,1181939547,445091,2,1.01025,-0.29321,-0.07568,-0.092,-3.13,-1.595
2026-05-20 17:33:20.291,1181939747,445291,1,1.04761,-0.05151,0.32373,2.0,-5.588,-0.496
2026-05-20 17:33:20.291,1181939747,445291,2,0.98608,-0.27686,-0.06323,-7.427,-4.443,-0.641
2026-05-20 17:33:21.491,1181940947,445491,1,1.01611,-0.02515,0.34229,2.267,3.435,-1.389
2026-05-20 17:33:21.491,1181940947,445491,2,0.99146,-0.26172,-0.05054,6.763,-11.29,-2.916
2026-05-20 17:33:21.691,1181941147,445691,1,1.0127,-0.02393,0.35693,0.947,2.412,-2.771
2026-05-20 17:33:21.691,1181941147,445691,2,1.01636,-0.26465,-0.0979,3.977,1.16,-1.168
2026-05-20 17:33:21.891,1181941347,445891,1,1.02026,-0.02856,0.32251,-10.321,-1.573,-1.656
2026-05-20 17:33:21.891,1181941347,445891,2,1.00049,-0.26318,-0.12842,2.71,-1.939,-1.87
2026-05-20 17:33:21.091,1181940547,446091,1,1.03979,-0.03662,0.31372,-14.382,-4.374,-1.527
2026-05-20 17:33:21.091,1181940547,446091,2,1.00415,-0.24585,-0.12402,-1.107,3.0,-0.023
2026-05-20 17:33:21.291,1181940747,446291,1,1.03491,-0.0481,0.29541,-8.084,0.145,-0.71
2026-05-20 17:33:21.291,1181940747,446291,2,0.99048,-0.271,-0.12085,-5.099,1.824,2.29
2026-05-20 17:33:22.491,1181941947,446491,1,1.03027,-0.04639,0.31958,2.244,4.45,-0.519
2026-05-20 17:33:22.491,1181941947,446491,2,0.98999,-0.26953,-0.10278,-6.641,2.733,2.023
2026-05-20 17:33:22.691,1181942147,446691,1,1.02856,-0.04272,0.33228,6.687,5.885,0.313
2026-05-20 17:33:22.691,1181942147,446691,2,1.00146,-0.2771,-0.09521,-2.565,2.099,0.389
2026-05-20 17:33:22.891,1181942347,446891,1,1.02222,-0.02075,0.33716,2.351,4.031,-0.718
2026-05-20 17:33:22.891,1181942347,446891,2,0.97949,-0.26563,-0.09863,-1.16,2.115,1.489
2026-05-20 17:33:22.091,1181941547,447091,1,1.02368,-0.0332,0.34497,-11.214,-5.038,-0.29
2026-05-20 17:33:22.091,1181941547,447091,2,1.00098,-0.26563,-0.11572,-1.389,2.282,2.0
2026-05-20 17:33:22.291,1181941747,447291,1,1.02539,-0.04248,0.32715,-21.168,-5.351,-0.084
2026-05-20 17:33:22.291,1181941747,447291,2,0.97656,-0.28857,-0.104,-4.153,-1.695,1.611
2026-05-20 17:33:23.491,1181942947,447491,1,1.02246,-0.07056,0.30322,-15.962,-1.061,0.58
2026-05-20 17:33:23.491,1181942947,447491,2,1.00757,-0.28125,-0.09302,-2.985,1.115,1.412
2026-05-20 17:33:23.691,1181943147,447691,1,1.02637,-0.07739,0.28955,3.252,2.092,1.305
2026-05-20 17:33:23.691,1181943147,447691,2,0.98267,-0.2854,-0.1189,-2.634,-0.427,1.779
2026-05-20 17:33:23.891,1181943347,447891,1,1.03638,-0.06274,0.2981,12.511,6.87,0.458
2026-05-20 17:33:23.891,1181943347,447891,2,0.99243,-0.28003,-0.12231,0.008,-0.695,0.679
2026-05-20 17:33:23.091,1181942547,448091,1,1.03394,-0.07373,0.31958,21.412,5.023,2.603
2026-05-20 17:33:23.091,1181942547,448091,2,0.99707,-0.28442,-0.12964,5.595,-2.389,0.061
2026-05-20 17:33:23.291,1181942747,448291,1,1.02808,-0.07471,0.32764,10.977,2.695,0.252
2026-05-20 17:33:23.291,1181942747,448291,2,0.98169,-0.28149,-0.14941,6.954,-7.496,-2.519
2026-05-20 17:33:24.491,1181943947,448491,1,1.03369,-0.05298,0.32886,10.298,1.885,0.74
2026-05-20 17:33:24.491,1181943947,448491,2,0.99243,-0.26318,-0.14844,6.084,-3.695,-1.298
2026-05-20 17:33:24.691,1181944147,448691,1,1.02612,-0.04785,0.3335,-0.901,-2.878,-0.046
2026-05-20 17:33:24.691,1181944147,448691,2,0.99951,-0.2583,-0.16187,-2.473,-0.153,-0.84
2026-05-20 17:33:24.891,1181944347,448891,1,1.04028,-0.05176,0.30811,-15.519,-4.061,-1.969
2026-05-20 17:33:24.891,1181944347,448891,2,1.00049,-0.26025,-0.146,-3.924,2.924,1.076
2026-05-20 17:33:24.091,1181943547,449091,1,1.04248,-0.05908,0.27832,-21.145,-1.817,-1.168
2026-05-20 17:33:24.091,1181943547,449091,2,1.02515,-0.26465,-0.1521,-3.427,2.321,1.351
2026-05-20 17:33:24.291,1181943747,449291,1,1.05542,-0.07861,0.25854,-20.191,2.794,-2.359
2026-05-20 17:33:24.291,1181943747,449291,2,1.01172,-0.26709,-0.11182,-4.702,2.305,0.74
2026-05-20 17:33:25.506,1181944962,449506,1,1.0979,-0.10107,0.25635,-3.313,22.687,-7.954
2026-05-20 17:33:25.506,1181944962,449506,2,1.0603,-0.23486,-0.00659,14.168,11.511,-9.229
2026-05-20 17:33:25.706,1181945162,449706,1,0.29224,-0.02173,0.19897,21.427,120.427,-46.076
2026-05-20 17:33:25.706,1181945162,449706,2,0.32715,-0.16016,-0.3125,-29.069,85.771,14.038
2026-05-20 17:33:25.906,1181945362,449906,1,0.63696,0.00488,0.65552,-40.74,40.008,-24.252
2026-05-20 17:33:25.906,1181945362,449906,2,0.66919,-0.29932,0.16919,0.511,82.84,13.244
2026-05-20 17:33:25.106,1181944562,450106,1,0.76318,0.0791,0.90332,-8.42,-22.275,-8.931
2026-05-20 17:33:25.106,1181944562,450106,2,0.94507,-0.46899,0.31372,-41.519,-41.351,-8.42
2026-05-20 17:33:25.306,1181944762,450306,1,1.59863,-0.10522,1.0459,-25.641,-23.282,-21.305
2026-05-20 17:33:25.306,1181944762,450306,2,1.15991,-0.48633,0.22632,-15.634,7.191,-1.977
2026-05-20 17:33:26.506,1181945962,450506,1,0.68945,-0.05371,0.43555,-16.405,-23.099,-7.824
2026-05-20 17:33:26.506,1181945962,450506,2,0.84155,-0.36523,0.11206,9.893,-33.313,-2.206
2026-05-20 17:33:26.706,1181946162,450706,1,1.71704,-0.05273,0.65356,29.771,79.282,0.794
2026-05-20 17:33:26.706,1181946162,450706,2,1.41113,-0.47729,0.11353,21.802,82.0,2.779
2026-05-20 17:33:26.906,1181946362,450906,1,0.72021,0.16382,0.8811,40.359,123.939,7.58
2026-05-20 17:33:26.906,1181946362,450906,2,0.75244,-0.18384,0.35938,22.038,27.58,2.992
2026-05-20 17:33:26.106,1181945562,451106,1,0.4978,-0.00952,1.05664,-18.511,19.099,-8.344
2026-05-20 17:33:26.106,1181945562,451106,2,0.76367,-0.26514,0.4519,-3.504,11.206,-3.84
2026-05-20 17:33:26.306,1181945762,451306,1,0.427,0.11377,0.92432,28.832,-19.817,17.046
2026-05-20 17:33:26.306,1181945762,451306,2,0.54346,-0.18677,0.20776,24.931,-55.916,-4.489
2026-05-20 17:33:27.506,1181946962,451506,1,0.3479,0.11938,0.55225,44.725,-83.153,51.061
2026-05-20 17:33:27.506,1181946962,451506,2,1.1814,-0.19385,0.80127,35.901,-91.71,4.336
2026-05-20 17:33:27.741,1181947197,451741,1,1.01221,-0.02783,0.50024,-17.557,-34.817,9.931
2026-05-20 17:33:27.741,1181947197,451741,2,1.07104,-0.30005,0.11938,16.382,12.198,-9.649
2026-05-20 17:33:27.009,1181946465,452009,1,0.37598,0.04956,0.54443,14.756,96.176,-33.908
2026-05-20 17:33:27.009,1181946465,452009,2,0.35449,0.00781,0.04053,-0.878,103.885,-5.969
2026-05-20 17:33:27.209,1181946665,452209,1,0.67505,0.13232,0.69678,-19.817,16.176,-22.221
2026-05-20 17:33:27.209,1181946665,452209,2,0.63086,-0.30908,0.26172,-2.336,-7.16,1.122
2026-05-20 17:33:27.409,1181946865,452409,1,0.802,0.10083,0.90674,-14.534,-29.855,0.458
2026-05-20 17:33:27.409,1181946865,452409,2,0.87988,-0.10132,0.29468,-40.122,-27.389,-4.489
2026-05-20 17:33:28.609,1181948065,452609,1,1.12134,0.10376,0.82397,-21.55,-44.023,-1.954
2026-05-20 17:33:28.609,1181948065,452609,2,1.34692,-0.46094,0.34302,1.748,-9.962,8.221
2026-05-20 17:33:28.809,1181948265,452809,1,1.16504,0.02271,0.729,-15.359,0.038,10.969
2026-05-20 17:33:28.809,1181948265,452809,2,1.03979,-0.40942,0.19971,-7.985,19.137,7.641
2026-05-20 17:33:28.009,1181947465,453009,1,0.85107,-0.03027,0.71289,9.992,7.618,-0.061
2026-05-20 17:33:28.009,1181947465,453009,2,1.19995,-0.56226,0.573,-7.969,-8.145,0.191
2026-05-20 17:33:28.209,1181947665,453209,1,0.90112,0.17017,1.00171,12.229,58.557,-9.191
2026-05-20 17:33:28.209,1181947665,453209,2,0.85767,-0.32349,0.29199,22.053,32.282,15.267
2026-05-20 17:33:28.409,1181947865,453409,1,0.80225,0.08325,0.89038,-3.107,-14.191,15.664
2026-05-20 17:33:28.409,1181947865,453409,2,0.96851,-0.35278,0.31128,6.298,-23.198,8.008
2026-05-20 17:33:29.609,1181949065,453609,1,0.80273,-0.04272,0.6814,17.0,-24.511,19.954
2026-05-20 17:33:29.609,1181949065,453609,2,0.77393,-0.17456,0.17407,18.71,-46.122,-17.389
2026-05-20 17:33:29.809,1181949265,453809,1,0.38135,-0.00684,0.4209,40.252,-51.847,33.382
2026-05-20 17:33:29.809,1181949265,453809,2,0.57104,-0.18164,0.07715,22.58,-28.481,10.313
2026-05-20 17:33:29.009,1181948465,454009,1,1.1416,0.02612,0.44336,36.626,-16.13,9.458
2026-05-20 17:33:29.009,1181948465,454009,2,0.96045,-0.35449,0.06079,-11.046,-5.618,3.29
2026-05-20 17:33:29.209,1181948665,454209,1,1.01636,-0.00732,0.4458,14.779,-13.924,8.779
2026-05-20 17:33:29.209,1181948665,454209,2,1.02637,-0.25073,-0.021,8.115,-9.038,-0.588
2026-05-20 17:33:29.409,1181948865,454409,1,1.04834,-0.04443,0.39282,-16.603,-6.313,-2.137
2026-05-20 17:33:29.409,1181948865,454409,2,1.07349,-0.26147,-0.01514,-7.511,7.336,-5.122
2026-05-20 17:33:30.772,1181950228,454772,1,1.0498,-0.07617,0.30249,-37.71,55.71,-22.344
2026-05-20 17:33:30.772,1181950228,454772,2,1.08423,-0.28906,0.07739,-51.183,76.672,-2.023
2026-05-20 17:33:30.972,1181950428,454972,1,0.66138,-0.05029,0.42236,-26.725,141.618,-27.038
2026-05-20 17:33:30.972,1181950428,454972,2,0.8689,-0.2146,0.29907,10.817,120.237,13.695
2026-05-20 17:33:30.172,1181949628,455172,1,0.1582,0.01465,1.06348,19.13,146.031,-6.015
2026-05-20 17:33:30.172,1181949628,455172,2,0.69971,-0.19604,0.6665,40.58,107.824,9.321
2026-05-20 17:33:30.372,1181949828,455372,1,-0.15601,0.04541,1.31494,0.802,79.046,-6.008
2026-05-20 17:33:30.372,1181949828,455372,2,0.26978,-0.06421,0.8208,11.336,38.481,3.298
2026-05-20 17:33:31.572,1181951028,455572,1,-0.23267,0.08643,1.13379,6.031,9.466,3.511
2026-05-20 17:33:31.572,1181951028,455572,2,0.24121,-0.02222,0.93237,6.916,8.977,2.626
2026-05-20 17:33:31.772,1181951228,455772,1,-0.0459,-0.03979,1.17749,2.42,-40.603,12.588
2026-05-20 17:33:31.772,1181951228,455772,2,0.64258,-0.13818,0.94263,-8.481,-29.031,-0.878
2026-05-20 17:33:31.972,1181951428,455972,1,-0.0415,-0.05664,1.30835,-14.344,-38.588,4.45
2026-05-20 17:33:31.972,1181951428,455972,2,0.57617,-0.23145,0.74341,-30.573,-67.191,-0.763
2026-05-20 17:33:31.172,1181950628,456172,1,0.04541,-0.02271,1.1189,5.603,-60.061,8.13
2026-05-20 17:33:31.172,1181950628,456172,2,0.62573,-0.31201,0.62842,-35.427,-94.809,-11.153
2026-05-20 17:33:31.372,1181950828,456372,1,0.4209,-0.0083,0.77026,51.611,-96.557,36.756
2026-05-20 17:33:31.372,1181950828,456372,2,0.8855,-0.38159,0.37109,-13.427,-63.282,-22.664
2026-05-20 17:33:32.573,1181952029,456573,1,0.80908,-0.03296,0.54541,-7.145,-57.489,8.947
2026-05-20 17:33:32.573,1181952029,456573,2,0.96216,-0.30273,-0.03662,-3.321,-39.733,-1.282
2026-05-20 17:33:32.887,1181952343,456887,1,0.97314,-0.0166,0.53345,-8.443,3.924,-7.252
2026-05-20 17:33:32.887,1181952343,456887,2,1.01611,-0.37036,0.13403,-12.634,35.214,-6.962
2026-05-20 17:33:32.108,1181951564,457108,1,0.69873,0.01025,0.62207,-20.023,68.763,-26.534
2026-05-20 17:33:32.108,1181951564,457108,2,0.83667,-0.27417,0.37305,16.771,78.84,5.908
2026-05-20 17:33:32.326,1181951782,457326,1,0.42017,0.04346,0.9104,-10.336,88.74,-15.0
2026-05-20 17:33:32.326,1181951782,457326,2,0.75708,-0.24878,0.55542,28.947,65.885,2.191
2026-05-20 17:33:33.526,1181952982,457526,1,0.14185,0.07788,1.19604,6.817,75.237,-0.092
2026-05-20 17:33:33.526,1181952982,457526,2,0.46313,-0.13428,0.8584,7.817,32.053,-3.168
2026-05-20 17:33:33.006,1181952462,458006,1,-0.29126,0.03418,1.20508,-22.84,15.046,-6.244
2026-05-20 17:33:33.006,1181952462,458006,2,0.23267,-0.04028,0.93311,-7.099,-6.145,9.939
2026-05-20 17:33:33.206,1181952662,458206,1,-0.28735,0.04395,1.34595,-10.733,-45.519,10.489
2026-05-20 17:33:33.206,1181952662,458206,2,0.45532,-0.17456,0.8479,-28.534,-73.802,9.366
2026-05-20 17:33:33.406,1181952862,458406,1,0.00391,0.09058,1.11426,-3.534,-83.328,14.321
2026-05-20 17:33:33.406,1181952862,458406,2,0.68164,-0.22559,0.57593,-36.588,-93.374,9.649
2026-05-20 17:33:34.693,1181954149,458692,1,0.53247,-0.02905,0.83374,27.496,-115.038,31.313
2026-05-20 17:33:34.693,1181954149,458692,2,0.97803,-0.33862,0.11816,-5.779,-76.099,-2.649
2026-05-20 17:33:34.068,1181953524,459068,1,0.97607,-0.07104,0.42603,7.55,-52.748,25.656
2026-05-20 17:33:34.068,1181953524,459068,2,0.96509,-0.34717,-0.03711,-22.992,-20.313,9.641
2026-05-20 17:33:34.268,1181953724,459268,1,1.03174,-0.21973,0.36792,-53.206,-3.038,-15.13
2026-05-20 17:33:34.268,1181953724,459268,2,0.92236,-0.42505,-0.17261,-26.588,9.305,5.809
2026-05-20 17:33:35.468,1181954924,459468,1,1.10962,-0.1897,0.33081,-1.168,23.588,-6.901
2026-05-20 17:33:35.468,1181954924,459468,2,0.87866,-0.35815,-0.12329,-19.924,28.336,-5.55
2026-05-20 17:33:35.668,1181955124,459668,1,0.95215,-0.11719,0.53149,6.557,5.794,-4.038
2026-05-20 17:33:35.668,1181955124,459668,2,0.95264,-0.34546,-0.07422,6.336,1.45,-5.0
2026-05-20 17:33:35.868,1181955324,459868,1,0.95117,-0.01855,0.53979,-0.489,-6.366,-0.824
2026-05-20 17:33:35.868,1181955324,459868,2,0.92139,-0.28857,-0.00317,16.748,2.382,1.611
2026-05-20 17:33:35.068,1181954524,460068,1,1.12524,0.02368,0.44385,-27.313,-10.16,1.885
2026-05-20 17:33:35.068,1181954524,460068,2,1.03101,-0.28076,-0.17554,-2.756,-7.084,-17.878
2026-05-20 17:33:35.268,1181954724,460268,1,1.15649,0.02954,0.30664,-19.649,-15.336,-19.809
2026-05-20 17:33:35.268,1181954724,460268,2,1.00146,-0.13184,-0.12549,29.954,-0.847,-10.198
2026-05-20 17:33:36.468,1181955924,460468,1,1.03687,0.00708,0.41992,16.084,-0.038,9.137
2026-05-20 17:33:36.468,1181955924,460468,2,0.93774,-0.18433,-0.11548,25.634,0.824,5.214
2026-05-20 17:33:36.668,1181956124,460668,1,0.97949,0.05444,0.40649,74.771,2.626,29.176
2026-05-20 17:33:36.668,1181956124,460668,2,1.03223,-0.18994,-0.12256,5.916,-8.115,-0.794
2026-05-20 17:33:36.868,1181956324,460868,1,1.0498,-0.01978,0.37866,2.252,4.664,1.313
2026-05-20 17:33:36.868,1181956324,460868,2,0.97559,-0.27979,-0.09082,-35.321,2.557,2.672
2026-05-20 17:33:36.068,1181955524,461068,1,1.02588,-0.15015,0.35571,-39.733,-22.206,3.504
2026-05-20 17:33:36.068,1181955524,461068,2,1.05469,-0.31177,-0.15674,0.992,-10.504,9.29
2026-05-20 17:33:36.268,1181955724,461268,1,0.99536,-0.10059,0.33423,-40.908,-8.641,-3.748
2026-05-20 17:33:36.268,1181955724,461268,2,1.0376,-0.2998,-0.11743,7.115,-13.45,2.634
2026-05-20 17:33:37.468,1181956924,461468,1,1.11353,-0.18262,0.21924,-1.13,32.473,-15.542
2026-05-20 17:33:37.468,1181956924,461468,2,1.01489,-0.31494,-0.15039,0.061,21.679,-5.893
2026-05-20 17:33:37.668,1181957124,461668,1,0.94214,-0.14868,0.22705,-41.618,99.145,-33.878
2026-05-20 17:33:37.668,1181957124,461668,2,1.1582,-0.19995,0.12866,-49.695,105.695,-1.855
2026-05-20 17:33:37.868,1181957324,461868,1,0.29053,-0.04858,0.53857,-2.321,173.496,-26.458
2026-05-20 17:33:37.868,1181957324,461868,2,0.81714,-0.34155,0.38647,15.076,166.466,15.023
2026-05-20 17:33:37.068,1181956524,462068,1,-0.01465,0.00854,1.18384,10.427,133.863,-3.176
2026-05-20 17:33:37.068,1181956524,462068,2,0.42139,-0.14429,0.73779,38.221,94.023,-2.687
2026-05-20 17:33:37.268,1181956724,462268,1,-0.26221,0.06226,1.29858,8.718,52.893,-6.435
2026-05-20 17:33:37.268,1181956724,462268,2,0.25977,-0.05811,0.96484,13.076,25.313,1.947
2026-05-20 17:33:38.468,1181957924,462468,1,-0.28003,0.073,1.1687,-20.214,-20.496,-1.885
2026-05-20 17:33:38.468,1181957924,462468,2,0.39697,-0.15503,0.88281,-6.87,-35.901,0.611
2026-05-20 17:33:38.668,1181958124,462668,1,-0.00488,0.11108,1.26587,6.237,-8.74,0.748
2026-05-20 17:33:38.668,1181958124,462668,2,0.61621,-0.27588,0.90088,-39.847,-46.153,8.748
2026-05-20 17:33:38.868,1181958324,462868,1,-0.05908,0.01807,1.17627,0.573,-44.427,7.115
2026-05-20 17:33:38.868,1181958324,462868,2,0.62866,-0.21289,0.60107,-33.771,-91.076,3.504
2026-05-20 17:33:38.068,1181957524,463068,1,0.21045,-0.021,0.84741,45.809,-104.336,22.015
2026-05-20 17:33:38.068,1181957524,463068,2,0.93335,-0.27417,0.39722,-10.87,-54.298,-14.496
2026-05-20 17:33:38.319,1181957775,463319,1,0.72046,0.07544,0.77539,24.794,-57.336,34.214
2026-05-20 17:33:38.319,1181957775,463319,2,0.9436,-0.20703,0.13062,-13.427,-31.13,3.473
2026-05-20 17:33:39.525,1181958981,463525,1,0.91602,-0.01855,0.59155,10.794,-2.137,1.649
2026-05-20 17:33:39.525,1181958981,463525,2,1.00171,-0.33203,0.18701,-15.458,12.748,-1.489
2026-05-20 17:33:39.725,1181959181,463725,1,0.88403,0.00122,0.54614,-27.863,34.885,-28.45
2026-05-20 17:33:39.725,1181959181,463725,2,0.96436,-0.3418,0.2085,-4.878,57.977,-7.763
2026-05-20 17:33:39.925,1181959381,463925,1,0.49805,0.07593,0.80078,-13.115,100.855,-31.679
2026-05-20 17:33:39.925,1181959381,463925,2,0.78247,-0.25708,0.58301,0.687,76.84,11.832
2026-05-20 17:33:39.125,1181958581,464125,1,0.22974,-0.05566,0.98315,-33.45,81.794,-15.641
2026-05-20 17:33:39.125,1181958581,464125,2,0.48853,-0.34351,0.76978,26.061,51.771,-5.13
2026-05-20 17:33:40.528,1181959984,464528,1,-0.0459,0.0354,1.2334,-0.969,33.168,2.679
2026-05-20 17:33:40.528,1181959984,464528,2,0.4519,-0.15381,0.90112,-0.901,-5.489,3.328
2026-05-20 17:33:40.758,1181960214,464757,1,-0.1543,-0.00269,1.2937,-11.847,-26.672,2.412
2026-05-20 17:33:40.758,1181960214,464757,2,0.38281,-0.16699,0.91504,-26.374,-40.649,6.771
2026-05-20 17:33:40.957,1181960413,464957,1,0.04077,-0.03711,1.22192,6.908,-54.519,4.412
2026-05-20 17:33:40.957,1181960413,464957,2,0.61768,-0.21777,0.67773,-18.527,-84.481,8.756
2026-05-20 17:33:40.157,1181959613,465157,1,0.19556,0.04492,0.95117,12.397,-94.061,19.588
2026-05-20 17:33:40.157,1181959613,465157,2,0.77563,-0.24438,0.40698,-17.664,-90.168,3.405
2026-05-20 17:33:40.357,1181959813,465357,1,0.55884,0.02417,0.78735,13.206,-105.153,33.198
2026-05-20 17:33:40.357,1181959813,465357,2,0.98364,-0.28784,0.146,-15.71,-73.053,-6.84
2026-05-20 17:33:41.557,1181961013,465557,1,0.87744,-0.00757,0.50073,39.901,-82.794,39.832
2026-05-20 17:33:41.557,1181961013,465557,2,1.04468,-0.33496,0.04663,-23.122,-33.244,6.427
2026-05-20 17:33:41.757,1181961213,465757,1,1.04517,-0.11719,0.30298,21.992,-35.16,18.382
2026-05-20 17:33:41.757,1181961213,465757,2,1.00146,-0.31152,-0.05151,1.015,-10.176,-5.076
2026-05-20 17:33:41.957,1181961413,465957,1,1.04907,-0.09229,0.31201,17.252,-4.618,7.58
2026-05-20 17:33:41.957,1181961413,465957,2,0.99756,-0.3396,-0.06689,-0.038,-6.206,1.748
2026-05-20 17:33:41.157,1181960613,466157,1,1.03174,-0.10596,0.33667,4.374,2.84,-0.412
2026-05-20 17:33:41.157,1181960613,466157,2,0.99121,-0.32349,-0.07202,0.802,1.031,0.389
2026-05-20 17:33:41.357,1181960813,466357,1,1.01465,-0.06543,0.34644,-5.336,-0.298,-3.893
2026-05-20 17:33:41.357,1181960813,466357,2,0.98145,-0.3125,-0.08423,-0.405,0.366,-0.634
2026-05-20 17:33:42.557,1181962013,466557,1,1.02734,-0.06812,0.31982,-24.092,-5.74,-5.901
2026-05-20 17:33:42.557,1181962013,466557,2,0.97559,-0.31006,-0.05518,4.13,-2.031,-0.076
2026-05-20 17:33:42.757,1181962213,466757,1,1.02783,-0.10278,0.29395,1.107,10.237,-2.939
2026-05-20 17:33:42.757,1181962213,466757,2,0.99316,-0.271,-0.09399,4.321,4.702,-1.947
2026-05-20 17:33:42.957,1181962413,466957,1,0.99561,-0.04492,0.40381,26.168,11.031,1.924
2026-05-20 17:33:42.957,1181962413,466957,2,0.98291,-0.27173,-0.04199,22.527,-6.344,-1.931
2026-05-20 17:33:42.157,1181961613,467157,1,0.99536,-0.0188,0.40527,11.145,12.695,1.267
2026-05-20 17:33:42.157,1181961613,467157,2,1.00098,-0.21777,-0.09326,15.977,0.908,-0.802
2026-05-20 17:33:42.357,1181961813,467357,1,0.97827,0.00342,0.45605,-4.679,7.359,-4.603
2026-05-20 17:33:42.357,1181961813,467357,2,1.01196,-0.22046,-0.05103,-12.74,7.74,1.649
2026-05-20 17:33:43.557,1181963013,467557,1,0.98511,-0.02856,0.4541,-17.053,8.153,-9.115
2026-05-20 17:33:43.557,1181963013,467557,2,1.02539,-0.26758,-0.04541,-9.473,10.992,-0.733
2026-05-20 17:33:43.757,1181963213,467757,1,0.98975,-0.02246,0.39038,-12.847,23.611,-8.26
2026-05-20 17:33:43.757,1181963213,467757,2,1.01221,-0.19092,-0.0144,-8.466,27.641,-4.565
2026-05-20 17:33:43.957,1181963413,467957,1,0.84424,-0.07666,0.3811,-23.321,85.588,-32.13
2026-05-20 17:33:43.957,1181963413,467957,2,0.55347,-0.22485,0.01929,-6.916,77.802,3.916
2026-05-20 17:33:43.157,1181962613,468157,1,0.35864,0.06494,0.63037,-90.473,1.008,-23.679
2026-05-20 17:33:43.157,1181962613,468157,2,0.74268,-0.19897,0.15356,-21.0,58.748,5.29
2026-05-20 17:33:43.357,1181962813,468357,1,0.78198,0.06177,0.98145,5.969,-6.115,-2.466
2026-05-20 17:33:43.357,1181962813,468357,2,0.9917,-0.34497,0.40234,-26.931,-11.092,1.71
2026-05-20 17:33:44.557,1181964013,468557,1,1.17041,-0.08374,0.96655,-9.038,-61.046,-12.13
2026-05-20 17:33:44.557,1181964013,468557,2,1.43604,-0.49976,0.56519,-37.489,-35.366,-10.008
2026-05-20 17:33:44.757,1181964213,468757,1,1.00684,0.06055,0.64526,-30.313,-25.725,-9.321
2026-05-20 17:33:44.757,1181964213,468757,2,1.19897,-0.5603,0.17798,-8.511,-20.763,2.405
2026-05-20 17:33:44.957,1181964413,468957,1,1.04321,-0.09375,0.46387,-4.229,67.443,-21.305
2026-05-20 17:33:44.957,1181964413,468957,2,0.92505,-0.45068,0.2356,14.695,51.588,4.725
2026-05-20 17:33:44.157,1181963613,469157,1,0.61133,0.13306,0.9165,-17.42,46.221,15.511
2026-05-20 17:33:44.157,1181963613,469157,2,0.79541,-0.32373,0.34814,14.008,47.809,14.427
2026-05-20 17:33:44.357,1181963813,469357,1,0.60254,-0.0437,1.07568,9.679,23.237,11.267
2026-05-20 17:33:44.357,1181963813,469357,2,0.68701,-0.3457,0.32104,-12.282,-53.092,-9.565
2026-05-20 17:33:45.571,1181965027,469570,1,0.38647,0.05835,0.80859,56.069,-28.893,24.756
2026-05-20 17:33:45.571,1181965027,469570,2,0.49561,-0.18774,0.17261,-2.237,-81.122,-18.626
2026-05-20 17:33:45.815,1181965271,469815,1,1.17627,0.19775,0.49097,4.908,-62.618,23.794
2026-05-20 17:33:45.815,1181965271,469815,2,0.75342,-0.46924,0.20996,-13.13,-6.656,10.435
2026-05-20 17:33:45.015,1181964471,470015,1,0.97192,0.00708,0.58398,10.473,32.641,-10.176
2026-05-20 17:33:45.015,1181964471,470015,2,0.92603,-0.22168,0.22437,5.183,19.214,-3.947
2026-05-20 17:33:45.215,1181964671,470215,1,0.42114,-0.0144,0.63281,20.214,39.962,-14.183
2026-05-20 17:33:45.215,1181964671,470215,2,0.61475,0.23877,0.05811,24.191,50.321,19.611
2026-05-20 17:33:46.415,1181965871,470415,1,0.64282,0.11597,0.74243,-51.145,-49.908,-1.664
2026-05-20 17:33:46.415,1181965871,470415,2,1.0791,-0.0293,0.2998,-4.42,-54.611,-2.366
2026-05-20 17:33:46.615,1181966071,470615,1,0.90527,0.08911,0.89795,-46.13,-54.954,-10.061
2026-05-20 17:33:46.615,1181966071,470615,2,1.00513,-0.31885,0.39624,-38.893,-28.71,-1.229
2026-05-20 17:33:46.815,1181966271,470815,1,1.11865,0.08618,0.73633,-36.969,-46.679,-7.802
2026-05-20 17:33:46.815,1181966271,470815,2,1.23364,-0.48413,0.29907,-29.0,-18.16,9.145
2026-05-20 17:33:46.015,1181965471,471015,1,1.09302,0.01587,0.55176,-23.45,-4.557,12.45
2026-05-20 17:33:46.015,1181965471,471015,2,1.0498,-0.42822,0.10791,-13.511,2.969,2.527
2026-05-20 17:33:46.215,1181965671,471215,1,1.0105,-0.09204,0.49414,7.336,2.45,-0.374
2026-05-20 17:33:46.215,1181965671,471215,2,1.28271,-0.54712,0.323,11.885,-1.305,2.664
2026-05-20 17:33:47.445,1181966901,471445,1,1.02881,0.12598,0.87695,14.252,61.008,2.29
2026-05-20 17:33:47.445,1181966901,471445,2,0.83813,-0.37402,0.29565,12.687,-4.29,0.832
2026-05-20 17:33:47.670,1181967126,471670,1,0.80957,0.01245,0.84863,30.107,4.382,19.427
2026-05-20 17:33:47.670,1181967126,471670,2,0.95947,-0.32446,0.28247,21.977,-12.947,5.87
2026-05-20 17:33:47.870,1181967326,471870,1,0.80078,-0.03369,0.76172,24.061,-22.267,17.443
2026-05-20 17:33:47.870,1181967326,471870,2,0.70264,-0.20703,0.14966,14.824,-42.893,-11.901
2026-05-20 17:33:47.070,1181966526,472070,1,0.4021,0.03979,0.45532,61.809,-45.481,32.122
2026-05-20 17:33:47.070,1181966526,472070,2,0.51855,-0.16821,0.06909,25.366,-34.206,0.26
2026-05-20 17:33:47.270,1181966726,472270,1,1.10181,0.09131,0.46655,13.519,-33.427,13.84
2026-05-20 17:33:47.270,1181966726,472270,2,1.08643,-0.31006,0.17163,9.115,-13.099,4.321
2026-05-20 17:33:48.470,1181967926,472470,1,1.03955,0.05176,0.44507,15.229,-14.0,10.237
2026-05-20 17:33:48.470,1181967926,472470,2,1.05518,-0.30273,0.02002,34.656,-18.458,5.366
2026-05-20 17:33:48.670,1181968126,472670,1,1.01025,0.0332,0.40649,-4.191,-3.855,5.069
2026-05-20 17:33:48.670,1181968126,472670,2,0.98779,-0.23633,-0.00879,3.023,-11.924,0.603
2026-05-20 17:33:48.870,1181968326,472870,1,1.021,-0.00586,0.37769,-22.573,-7.969,0.145
2026-05-20 17:33:48.870,1181968326,472870,2,1.01367,-0.22876,-0.04102,-7.901,-0.321,-1.962
2026-05-20 17:33:48.070,1181967526,473070,1,1.01147,-0.02881,0.40063,-4.916,3.985,-3.092
2026-05-20 17:33:48.070,1181967526,473070,2,0.99414,-0.26196,-0.02417,-9.702,-0.855,1.359
2026-05-20 17:33:48.270,1181967726,473270,1,0.99365,0.01514,0.40942,-6.008,3.626,-0.618
2026-05-20 17:33:48.270,1181967726,473270,2,0.99976,-0.28589,-0.01807,-7.389,-4.588,2.443
2026-05-20 17:33:49.470,1181968926,473470,1,0.98877,-0.03662,0.43164,-15.137,-1.0,-2.763
2026-05-20 17:33:49.470,1181968926,473470,2,0.99268,-0.2688,-0.03491,-7.58,1.351,0.893
2026-05-20 17:33:49.670,1181969126,473670,1,0.98828,0.00952,0.40967,-4.084,-4.244,-4.084
2026-05-20 17:33:49.670,1181969126,473670,2,1.00806,-0.26343,-0.05786,2.939,-4.107,0.092
2026-05-20 17:33:49.870,1181969326,473870,1,1.01685,0.00098,0.38208,-13.947,-9.16,0.672
2026-05-20 17:33:49.870,1181969326,473870,2,1.02148,-0.26855,-0.05615,2.214,-4.076,1.122
2026-05-20 17:33:49.070,1181968526,474070,1,1.02686,-0.02661,0.35547,-24.679,-4.443,0.122
2026-05-20 17:33:49.070,1181968526,474070,2,1.0022,-0.26709,-0.08496,-9.023,2.237,2.908
2026-05-20 17:33:49.270,1181968726,474270,1,1.02734,-0.07129,0.34155,-45.473,-3.565,-1.55
2026-05-20 17:33:49.270,1181968726,474270,2,0.99609,-0.2793,-0.08789,-5.435,0.267,1.374
2026-05-20 17:33:50.605,1181970061,474604,1,1.02539,-0.10767,0.31812,-21.802,4.618,0.031
2026-05-20 17:33:50.605,1181970061,474604,2,1.0,-0.2793,-0.06958,-2.84,4.756,1.763
2026-05-20 17:33:50.804,1181970260,474804,1,1.03076,-0.11841,0.34741,-8.16,8.885,-2.076
2026-05-20 17:33:50.804,1181970260,474804,2,1.01196,-0.26758,-0.05054,-4.237,7.176,1.725
2026-05-20 17:33:50.004,1181969460,475004,1,1.02588,-0.10645,0.30664,-14.664,37.695,-10.031
2026-05-20 17:33:50.004,1181969460,475004,2,1.08301,-0.33301,0.0188,-15.664,45.511,0.542
2026-05-20 17:33:50.225,1181969681,475225,1,0.70361,-0.09473,0.34961,-3.901,131.603,-18.397
2026-05-20 17:33:50.225,1181969681,475225,2,0.93579,-0.46289,0.32056,-11.725,143.275,11.015
2026-05-20 17:33:51.425,1181970881,475425,1,0.37085,-0.02661,0.88623,-6.374,147.122,-12.389
2026-05-20 17:33:51.425,1181970881,475425,2,0.73901,-0.30396,0.57886,43.832,116.458,2.893
2026-05-20 17:33:51.625,1181971081,475625,1,0.00244,-0.01514,1.32324,-7.023,61.565,-1.939
2026-05-20 17:33:51.625,1181971081,475625,2,0.44629,-0.14111,0.91528,26.26,43.679,-3.832
2026-05-20 17:33:51.825,1181971281,475825,1,-0.09863,0.14478,1.20117,-3.733,5.504,-0.863
2026-05-20 17:33:51.825,1181971281,475825,2,0.31763,-0.05859,0.91919,-8.45,3.702,6.855
2026-05-20 17:33:51.025,1181970481,476025,1,0.15308,-0.06348,1.05396,0.588,-35.992,0.924
2026-05-20 17:33:51.025,1181970481,476025,2,0.52881,-0.19409,0.86743,-22.672,-17.13,-5.702
2026-05-20 17:33:51.225,1181970681,476225,1,0.09546,-0.07593,1.28247,-8.115,0.13,-6.534
2026-05-20 17:33:51.225,1181970681,476225,2,0.50098,-0.28125,0.81738,-27.496,-45.298,5.656
2026-05-20 17:33:52.425,1181971881,476425,1,0.00977,-0.03271,1.15649,-6.061,-62.351,7.298
2026-05-20 17:33:52.425,1181971881,476425,2,0.61279,-0.26904,0.59546,-32.473,-105.466,-9.244
2026-05-20 17:33:52.625,1181972081,476625,1,0.17212,0.07788,0.81274,76.389,-94.076,25.901
2026-05-20 17:33:52.625,1181972081,476625,2,0.95044,-0.41382,0.41895,-22.115,-64.771,-3.397
2026-05-20 17:33:52.825,1181972281,476825,1,0.69946,0.10278,0.75854,166.504,-12.069,31.176
2026-05-20 17:33:52.825,1181972281,476825,2,1.01978,-0.47949,0.20825,-15.618,-46.84,-5.244
2026-05-20 17:33:52.025,1181971481,477025,1,0.95947,-0.00146,0.54053,-4.939,2.939,-0.489
2026-05-20 17:33:52.025,1181971481,477025,2,1.07788,-0.34521,0.19678,-2.084,30.061,-12.511
2026-05-20 17:33:52.225,1181971681,477225,1,0.48364,0.18018,0.67432,31.267,94.061,-19.702
2026-05-20 17:33:52.225,1181971681,477225,2,0.52295,-0.22681,0.18408,13.954,88.679,5.405
2026-05-20 17:33:53.425,1181972881,477425,1,0.30298,0.07544,0.79395,-16.237,9.29,-22.198
2026-05-20 17:33:53.425,1181972881,477425,2,0.53369,-0.12427,0.37891,3.42,-33.809,-9.45
2026-05-20 17:33:53.625,1181973081,477625,1,0.79443,0.17822,0.86816,-26.87,-45.0,1.954
2026-05-20 17:33:53.625,1181973081,477625,2,0.95874,-0.24512,0.40771,-9.328,-14.641,9.046
2026-05-20 17:33:53.825,1181973281,477825,1,0.88574,-0.00732,0.80176,-27.237,-33.107,0.885
2026-05-20 17:33:53.825,1181973281,477825,2,1.00293,-0.42798,0.32471,-33.191,-22.679,-1.351
2026-05-20 17:33:53.025,1181972481,478025,1,1.06201,0.01709,0.81274,5.84,-33.702,-9.931
2026-05-20 17:33:53.025,1181972481,478025,2,1.63257,-0.51025,0.57446,-2.237,-11.84,-6.313
2026-05-20 17:33:53.225,1181972681,478225,1,0.9707,-0.04077,0.85352,-1.802,31.557,11.198
2026-05-20 17:33:53.225,1181972681,478225,2,0.92358,-0.45923,0.37378,25.618,7.481,12.786
2026-05-20 17:33:54.425,1181973881,478425,1,0.75098,-0.07788,0.95996,19.748,19.534,6.13
2026-05-20 17:33:54.425,1181973881,478425,2,0.91357,-0.31128,0.37012,3.26,-18.099,0.824
2026-05-20 17:33:54.719,1181974175,478719,1,0.71216,0.04346,0.81934,15.252,-20.649,13.321
2026-05-20 17:33:54.719,1181974175,478719,2,0.49219,-0.30078,0.19678,18.069,-47.771,8.023
2026-05-20 17:33:54.033,1181973489,479033,1,0.93335,-0.06763,0.64941,-21.641,-41.412,12.366
2026-05-20 17:33:54.033,1181973489,479033,2,0.98242,-0.25952,0.15381,1.885,-31.84,-0.542
2026-05-20 17:33:54.233,1181973689,479233,1,0.92041,-0.06274,0.57495,-3.817,-29.74,11.718
2026-05-20 17:33:54.233,1181973689,479233,2,0.97192,-0.28296,-0.05737,-12.031,-34.145,8.527
2026-05-20 17:33:55.433,1181974889,479433,1,1.03174,-0.1731,0.46875,-41.344,-38.107,0.534
2026-05-20 17:33:55.433,1181974889,479433,2,1.07227,-0.43188,-0.14209,-17.527,-15.427,0.153
2026-05-20 17:33:55.633,1181975089,479633,1,0.94263,-0.17505,0.41943,25.137,-12.557,13.359
2026-05-20 17:33:55.633,1181975089,479633,2,1.12866,-0.34839,-0.13086,17.214,-2.878,-4.893
2026-05-20 17:33:55.833,1181975289,479833,1,1.00537,-0.03101,0.35986,-9.176,-12.099,-0.58
2026-05-20 17:33:55.833,1181975289,479833,2,0.96021,-0.3064,-0.07129,9.061,-2.473,-3.786
2026-05-20 17:33:55.033,1181974489,480033,1,0.99854,-0.11694,0.39355,-14.427,0.511,-22.649
2026-05-20 17:33:55.033,1181974489,480033,2,0.98169,-0.35303,-0.07764,-7.656,6.198,-13.863
2026-05-20 17:33:55.233,1181974689,480233,1,1.08618,0.10327,0.34985,22.0,-3.298,-0.527
2026-05-20 17:33:55.233,1181974689,480233,2,1.03931,-0.1792,-0.2915,36.626,-18.382,-0.435
2026-05-20 17:33:56.433,1181975889,480433,1,1.11157,0.08911,0.33936,-25.374,-25.42,4.832
2026-05-20 17:33:56.433,1181975889,480433,2,1.08862,-0.34229,-0.12451,-7.71,6.099,4.221
2026-05-20 17:33:56.633,1181976089,480633,1,1.0498,-0.04199,0.36768,-27.412,-1.137,-7.221
2026-05-20 17:33:56.633,1181976089,480633,2,0.98828,-0.25977,-0.14355,-9.382,4.427,3.74
2026-05-20 17:33:56.833,1181976289,480833,1,1.02417,-0.06519,0.3623,-13.412,-0.664,2.55
2026-05-20 17:33:56.833,1181976289,480833,2,1.00317,-0.24561,-0.11597,6.504,6.061,
2026-05-20 17:33:56.033,1181975489,481033,1,1.02026,-0.03149,0.34473,3.71,4.573,-0.725
2026-05-20 17:33:56.033,1181975489,481033,2,1.00903,-0.27759,-0.08081,-8.321,4.42,2.427
2026-05-20 17:33:56.233,1181975689,481233,1,1.02637,-0.03662,0.35303,-2.405,5.412,-1.992
2026-05-20 17:33:56.233,1181975689,481233,2,0.99927,-0.28101,-0.0979,-3.786,0.908,1.412
2026-05-20 17:33:57.433,1181976889,481433,1,1.04102,-0.06885,0.3562,-11.802,12.092,-6.0
2026-05-20 17:33:57.433,1181976889,481433,2,1.08032,-0.25562,-0.05591,4.962,1.046,-3.153
2026-05-20 17:33:57.633,1181977089,481633,1,0.78687,-0.07861,0.22656,-2.023,98.435,-37.122
2026-05-20 17:33:57.633,1181977089,481633,2,0.3855,-0.20679,-0.08789,-17.427,93.13,-11.687
2026-05-20 17:33:57.833,1181977289,481833,1,0.55664,-0.00317,0.63965,-53.374,54.55,-48.435
2026-05-20 17:33:57.833,1181977289,481833,2,0.54443,-0.16284,0.4165,-1.458,83.061,19.626
2026-05-20 17:33:57.033,1181976489,482033,1,0.74438,0.08716,0.95483,-5.809,-11.351,-3.076
2026-05-20 17:33:57.033,1181976489,482033,2,0.92554,-0.50952,0.43091,-47.695,-14.458,-1.145
2026-05-20 17:33:57.233,1181976689,482233,1,1.47119,-0.11475,1.07813,-6.115,-38.595,-4.534
2026-05-20 17:33:57.233,1181976689,482233,2,1.54712,-0.63989,0.61011,-15.305,-24.206,-6.267
2026-05-20 17:33:58.433,1181977889,482433,1,0.86035,0.06885,0.58179,-22.962,-40.076,0.191
2026-05-20 17:33:58.433,1181977889,482433,2,1.67383,-0.70239,0.51831,20.038,-3.878,-5.878
2026-05-20 17:33:58.633,1181978089,482633,1,0.96704,-0.14722,0.49023,-1.954,69.45,-15.542
2026-05-20 17:33:58.633,1181978089,482633,2,0.90723,-0.44458,0.46655,19.366,55.939,-3.313
2026-05-20 17:33:58.833,1181978289,482833,1,0.52612,0.12402,1.10596,24.695,111.519,11.13
2026-05-20 17:33:58.833,1181978289,482833,2,0.6875,-0.31738,0.65869,-13.779,46.519,20.969
2026-05-20 17:33:58.033,1181977489,483033,1,0.42261,-0.04272,1.11548,2.267,6.748,-0.489
