datetime,epoch_ms,ts_millis,mpu_id,ax,ay,az,gx,gy,gz
2026-05-22 16:30:45.135,1350984591,1772134,2,0.92139,0.38037,0.38867,6.023,-1.901,-8.916
2026-05-22 16:31:00.210,1350999666,1787210,1,0.04028,-0.05664,0.8584,-5.725,3.13,2.397
2026-05-22 16:31:00.210,1350999666,1787210,2,0.5271,-0.44629,1.125,-3.061,1.802,-0.916
2026-05-22 16:31:01.692,1351001148,1787691,1,0.02881,-0.07007,0.84326,-4.496,0.695,-2.84
2026-05-22 16:31:01.692,1351001148,1787691,2,0.52271,-0.43823,1.10815,-0.595,0.756,-2.298
2026-05-22 16:31:01.947,1351001403,1787947,1,0.04346,-0.08179,0.83691,-3.55,-2.595,-2.115
2026-05-22 16:31:01.947,1351001403,1787947,2,0.54419,-0.44116,1.1062,-2.481,-1.58,-2.26
2026-05-22 16:31:01.147,1351000603,1788147,1,0.06348,-0.08545,0.84033,-0.405,-2.947,-1.305
2026-05-22 16:31:01.147,1351000603,1788147,2,0.552,-0.43335,1.12695,-0.359,-0.13,-2.16
2026-05-22 16:31:01.347,1351000803,1788347,1,0.07373,-0.08813,0.8374,-3.145,-2.656,-1.588
2026-05-22 16:31:01.347,1351000803,1788347,2,0.55078,-0.42407,1.10962,-0.962,0.069,0.473
2026-05-22 16:31:01.547,1351001003,1788547,1,0.09058,-0.10156,0.83545,-0.977,-1.702,-0.076
2026-05-22 16:31:01.547,1351001003,1788547,2,0.55615,-0.41699,1.12183,-0.763,1.229,2.992
2026-05-22 16:31:02.911,1351002367,1788911,1,0.07886,-0.08813,0.83838,-3.099,1.794,1.061
2026-05-22 16:31:02.911,1351002367,1788911,2,0.54004,-0.42163,1.11304,-2.611,2.55,4.099
2026-05-22 16:31:02.111,1351001567,1789111,1,0.07031,-0.10303,0.84302,-2.992,3.588,0.321
2026-05-22 16:31:02.111,1351001567,1789111,2,0.54346,-0.43213,1.10522,-4.962,1.389,2.626
2026-05-22 16:31:02.322,1351001778,1789322,1,0.05029,-0.09644,0.83521,-1.206,1.053,0.832
2026-05-22 16:31:02.322,1351001778,1789322,2,0.53394,-0.44751,1.11304,-2.855,0.16,1.794
2026-05-22 16:31:02.522,1351001978,1789522,1,0.05396,-0.09839,0.83398,-0.153,-0.603,-0.244
2026-05-22 16:31:02.522,1351001978,1789522,2,0.54199,-0.43213,1.0896,4.046,-0.687,0.214
2026-05-22 16:31:03.722,1351003178,1789722,1,0.06372,-0.09521,0.8313,1.13,-4.702,2.771
2026-05-22 16:31:03.722,1351003178,1789722,2,0.54614,-0.42188,1.11865,2.824,2.389,0.588
2026-05-22 16:31:03.922,1351003378,1789922,1,0.07715,-0.07935,0.84277,-3.13,-1.947,-1.977
2026-05-22 16:31:03.922,1351003378,1789922,2,0.54468,-0.40552,1.12329,-0.244,-0.275,0.458
2026-05-22 16:31:03.122,1351002578,1790122,1,0.09155,-0.08496,0.83643,-2.084,-2.321,-3.183
2026-05-22 16:31:03.122,1351002578,1790122,2,0.552,-0.4104,1.12573,-0.817,-0.344,-0.756
2026-05-22 16:31:03.322,1351002778,1790322,1,0.11768,-0.09253,0.81958,-3.55,0.069,-1.664
2026-05-22 16:31:03.322,1351002778,1790322,2,0.55493,-0.37646,1.11206,-9.275,-1.641,0.931
2026-05-22 16:31:03.522,1351002978,1790522,1,0.10474,-0.05908,0.84253,0.534,2.45,3.107
2026-05-22 16:31:03.522,1351002978,1790522,2,0.54102,-0.37817,1.14209,-2.931,1.198,1.481
2026-05-22 16:31:04.722,1351004178,1790722,1,0.09399,-0.07349,0.83423,-6.344,2.664,-2.198
2026-05-22 16:31:04.722,1351004178,1790722,2,0.55176,-0.40479,1.12256,-3.954,-0.374,1.802
2026-05-22 16:31:04.922,1351004378,1790922,1,0.09106,-0.1001,0.83716,-1.214,3.55,2.084
2026-05-22 16:31:04.922,1351004378,1790922,2,0.54224,-0.40991,1.11475,-0.908,3.313,3.252
2026-05-22 16:31:04.122,1351003578,1791122,1,0.05884,-0.09424,0.84521,-2.664,2.588,0.588
2026-05-22 16:31:04.122,1351003578,1791122,2,0.53979,-0.43164,1.10693,-0.511,0.053,1.618
2026-05-22 16:31:04.322,1351003778,1791322,1,0.05249,-0.08838,0.86792,-1.992,-1.977,1.168
2026-05-22 16:31:04.322,1351003778,1791322,2,0.5376,-0.42773,1.09155,5.168,-2.84,-1.038
2026-05-22 16:31:04.522,1351003978,1791522,1,0.09521,-0.1228,0.8772,11.985,-9.26,3.527
2026-05-22 16:31:04.522,1351003978,1791522,2,0.54517,-0.32324,0.91821,35.656,10.084,4.634
2026-05-22 16:31:05.722,1351005178,1791722,1,0.11914,-0.10229,0.95337,10.87,-40.244,1.229
2026-05-22 16:31:05.722,1351005178,1791722,2,0.68311,-0.36279,1.04712,44.603,-14.328,-12.802
2026-05-22 16:31:05.922,1351005378,1791922,1,0.24902,-0.07983,0.8894,-5.832,-71.137,-3.962
2026-05-22 16:31:05.922,1351005378,1791922,2,0.71387,-0.14966,1.03906,32.176,-32.084,-27.71
2026-05-22 16:31:05.122,1351004578,1792122,1,0.51807,0.00659,0.55103,36.702,-88.55,0.466
2026-05-22 16:31:05.122,1351004578,1792122,2,0.74536,0.21069,0.92285,83.939,-33.901,-36.008
2026-05-22 16:31:05.322,1351004778,1792322,1,0.81226,0.25781,0.33594,49.878,-59.053,10.771
2026-05-22 16:31:05.322,1351004778,1792322,2,0.80225,0.44897,0.84839,55.313,-12.374,-19.466
2026-05-22 16:31:05.522,1351004978,1792522,1,0.91357,0.28394,0.24243,25.832,-27.832,25.557
2026-05-22 16:31:05.522,1351004978,1792522,2,0.69775,0.55518,0.69556,54.351,-5.947,5.702
2026-05-22 16:31:06.722,1351006178,1792722,1,0.95361,0.3103,0.15991,35.282,-32.565,30.901
2026-05-22 16:31:06.722,1351006178,1792722,2,0.64014,0.71826,0.53516,55.046,-16.115,-3.198
2026-05-22 16:31:06.922,1351006378,1792922,1,1.0332,-0.02026,0.18872,17.031,-22.84,25.458
2026-05-22 16:31:06.922,1351006378,1792922,2,0.88062,0.56519,0.46289,63.031,-25.458,-29.076
2026-05-22 16:31:06.122,1351005578,1793122,1,1.2644,0.04419,0.04321,43.046,9.267,12.718
2026-05-22 16:31:06.122,1351005578,1793122,2,0.95703,0.4834,0.3313,58.015,33.634,42.71
2026-05-22 16:31:06.322,1351005778,1793322,1,1.01025,-0.021,0.06763,5.534,27.053,25.885
2026-05-22 16:31:06.322,1351005778,1793322,2,0.87061,0.45337,0.375,44.29,25.641,12.939
2026-05-22 16:31:06.522,1351005978,1793522,1,0.9458,-0.03931,0.14282,40.595,15.794,11.473
2026-05-22 16:31:06.522,1351005978,1793522,2,0.84546,0.38623,0.45215,36.947,26.718,-15.359
2026-05-22 16:31:07.722,1351007178,1793722,1,1.11523,0.12329,0.08276,39.908,17.748,-23.458
2026-05-22 16:31:07.722,1351007178,1793722,2,0.98315,0.43652,0.48096,10.298,24.74,13.214
2026-05-22 16:31:07.922,1351007378,1793922,1,0.84155,0.21948,0.2959,77.595,30.611,19.084
2026-05-22 16:31:07.922,1351007378,1793922,2,0.85205,0.58252,0.82764,48.672,37.29,-27.962
2026-05-22 16:31:07.122,1351006578,1794122,1,0.89111,0.271,0.21045,30.008,13.046,3.458
2026-05-22 16:31:07.122,1351006578,1794122,2,0.70752,0.57104,0.59375,4.008,6.0,-21.595
2026-05-22 16:31:07.322,1351006778,1794322,1,0.78784,0.35352,0.25977,-36.771,-35.58,12.634
2026-05-22 16:31:07.322,1351006778,1794322,2,0.79761,0.47632,0.54126,3.252,-45.443,11.969
2026-05-22 16:31:07.522,1351006978,1794522,1,0.97461,0.09814,0.18237,12.252,3.603,41.237
2026-05-22 16:31:07.522,1351006978,1794522,2,0.63623,0.3042,1.04053,74.336,-32.405,-13.427
2026-05-22 16:31:08.722,1351008178,1794722,1,1.12671,-0.05933,0.33154,-38.076,20.275,-26.611
2026-05-22 16:31:08.722,1351008178,1794722,2,0.79199,0.54932,0.45435,-27.038,-4.359,33.42
2026-05-22 16:31:08.922,1351008378,1794922,1,0.88989,-0.0752,0.27539,-43.527,9.046,-29.099
2026-05-22 16:31:08.922,1351008378,1794922,2,0.8938,0.27026,0.21484,-56.672,-17.29,-8.725
2026-05-22 16:31:08.122,1351007578,1795122,1,0.77271,0.13477,0.34985,-48.733,-1.145,-40.855
2026-05-22 16:31:08.122,1351007578,1795122,2,1.09814,0.74316,0.53491,-14.504,17.924,-4.931
2026-05-22 16:31:08.322,1351007778,1795322,1,0.89087,0.11597,0.25098,18.366,17.84,2.939
2026-05-22 16:31:08.322,1351007778,1795322,2,0.89087,0.40112,0.79785,41.45,14.58,-15.603
2026-05-22 16:31:08.522,1351007978,1795522,1,0.86328,0.26465,0.28784,23.756,2.16,9.229
2026-05-22 16:31:08.522,1351007978,1795522,2,0.74097,0.51196,0.48145,-2.031,-3.489,-32.71
2026-05-22 16:31:09.722,1351009178,1795722,1,0.9563,0.30273,0.15649,4.229,-10.16,-3.618
2026-05-22 16:31:09.722,1351009178,1795722,2,0.84692,0.4585,0.56641,25.947,12.855,23.725
2026-05-22 16:31:09.922,1351009378,1795922,1,0.99805,0.25879,0.12891,-25.725,-11.695,19.489
2026-05-22 16:31:09.922,1351009378,1795922,2,0.7771,0.73438,0.42529,-16.137,-31.237,-17.603
2026-05-22 16:31:09.122,1351008578,1796122,1,1.0708,0.05713,0.16504,-64.321,9.687,1.061
2026-05-22 16:31:09.122,1351008578,1796122,2,0.53076,0.56787,0.40234,48.901,-15.137,-3.718
2026-05-22 16:31:09.322,1351008778,1796322,1,0.91528,-0.04785,0.23022,-38.42,4.496,-7.221
2026-05-22 16:31:09.322,1351008778,1796322,2,1.05054,0.38965,0.5918,-34.023,31.992,37.924
2026-05-22 16:31:09.613,1351009069,1796613,1,1.06006,-0.20654,0.31323,71.847,28.008,6.313
2026-05-22 16:31:09.613,1351009069,1796613,2,0.75146,0.26465,1.19067,57.542,47.313,-13.42
2026-05-22 16:31:10.813,1351010269,1796813,1,0.70044,0.49243,0.56787,25.893,5.107,-4.137
2026-05-22 16:31:10.813,1351010269,1796813,2,0.6748,0.61792,0.73535,78.931,9.718,-13.863
2026-05-22 16:31:10.013,1351009469,1797013,1,0.77979,0.49316,0.30566,-5.252,-13.962,13.878
2026-05-22 16:31:10.013,1351009469,1797013,2,0.67871,0.69824,0.69751,-0.863,-7.901,-10.061
2026-05-22 16:31:10.213,1351009669,1797213,1,0.77539,0.50977,0.21362,-19.771,9.992,11.985
2026-05-22 16:31:10.213,1351009669,1797213,2,0.57935,0.69434,0.68384,-8.214,2.145,25.649
2026-05-22 16:31:10.413,1351009869,1797413,1,1.18384,-0.04077,-0.02783,-60.359,24.473,-0.053
2026-05-22 16:31:10.413,1351009869,1797413,2,0.8562,0.55347,0.65918,-81.366,-60.71,-51.145
2026-05-22 16:31:10.613,1351010069,1797613,1,0.7041,-0.26221,0.43286,-87.168,-13.947,-22.954
2026-05-22 16:31:10.613,1351010069,1797613,2,0.77515,0.07764,0.62769,-56.458,-34.55,-6.26
2026-05-22 16:31:11.813,1351011269,1797813,1,0.8396,-0.22534,0.3938,-51.542,-26.198,-37.153
2026-05-22 16:31:11.813,1351011269,1797813,2,0.87817,0.14575,0.63013,-17.557,-27.176,-46.878
2026-05-22 16:31:11.013,1351010469,1798013,1,1.01709,0.16724,0.27441,3.71,30.328,-45.763
2026-05-22 16:31:11.013,1351010469,1798013,2,0.69775,0.29004,0.39551,-0.74,24.405,4.359
2026-05-22 16:31:11.213,1351010669,1798213,1,0.88013,0.30078,0.27417,-38.664,4.153,-24.893
2026-05-22 16:31:11.213,1351010669,1798213,2,0.67529,0.49976,0.49414,-43.015,-17.74,8.214
2026-05-22 16:31:11.413,1351010869,1798413,1,0.91943,0.02808,0.39282,-59.382,-12.779,-14.863
2026-05-22 16:31:11.413,1351010869,1798413,2,0.62256,0.19824,0.36646,29.275,-22.573,95.099
2026-05-22 16:31:11.613,1351011069,1798613,1,0.96094,-0.07544,0.33203,-53.282,-15.817,-17.908
2026-05-22 16:31:11.613,1351011069,1798613,2,0.90356,0.19165,0.54443,-30.382,-22.031,22.809
2026-05-22 16:31:12.813,1351012269,1798813,1,0.9187,-0.09253,0.30981,-43.855,-7.649,-14.046
2026-05-22 16:31:12.813,1351012269,1798813,2,0.83228,0.27686,0.42944,-25.893,-20.947,-0.992
2026-05-22 16:31:12.013,1351011469,1799013,1,0.9519,-0.17798,0.31934,7.511,-46.183,-34.916
2026-05-22 16:31:12.013,1351011469,1799013,2,1.46851,0.61304,0.50537,-16.435,21.229,-135.229
2026-05-22 16:31:12.213,1351011669,1799213,1,0.98901,0.22363,0.12085,-35.023,-19.397,-30.55
2026-05-22 16:31:12.213,1351011669,1799213,2,0.76025,0.55908,0.2627,-4.634,-10.733,-17.359
2026-05-22 16:31:12.413,1351011869,1799413,1,0.97461,0.4126,0.02661,-61.046,1.916,-26.893
2026-05-22 16:31:12.413,1351011869,1799413,2,0.73218,0.58105,0.3479,-71.107,-20.214,5.565
2026-05-22 16:31:12.613,1351012069,1799613,1,0.98071,0.40186,0.16455,-87.496,-18.611,2.183
2026-05-22 16:31:12.613,1351012069,1799613,2,1.91504,0.3877,0.67627,-97.122,28.824,3.992
2026-05-22 16:31:13.813,1351013269,1799813,1,1.09448,-0.10596,0.22656,-80.305,9.137,-15.374
2026-05-22 16:31:13.813,1351013269,1799813,2,0.6731,0.12158,0.84644,-134.092,-42.282,20.053
2026-05-22 16:31:13.013,1351012469,1800013,1,0.98828,-0.22729,0.17236,-69.947,-6.771,-29.641
2026-05-22 16:31:13.013,1351012469,1800013,2,0.89209,0.19727,0.35547,-106.26,-11.237,13.786
2026-05-22 16:31:13.213,1351012669,1800213,1,1.00488,-0.13965,0.16724,-24.206,-8.672,-36.924
2026-05-22 16:31:13.213,1351012669,1800213,2,0.97339,0.23047,0.44385,-48.725,3.214,-2.626
2026-05-22 16:31:13.413,1351012869,1800413,1,0.95459,0.03613,0.15332,-13.496,8.321,-16.71
2026-05-22 16:31:13.413,1351012869,1800413,2,0.74951,0.67725,0.66406,49.901,3.107,-12.611
2026-05-22 16:31:13.613,1351013069,1800613,1,0.81348,0.26147,0.18677,-55.672,-13.565,-10.015
2026-05-22 16:31:13.613,1351013069,1800613,2,0.63501,0.71558,0.15942,-104.038,-37.824,-69.473
2026-05-22 16:31:14.813,1351014269,1800813,1,1.14966,0.12256,-0.15381,-92.176,-14.412,-21.427
2026-05-22 16:31:14.813,1351014269,1800813,2,0.57251,0.3811,0.28174,-87.397,-63.412,-53.435
2026-05-22 16:31:14.013,1351013469,1801013,1,1.18652,-0.23682,0.21948,-54.802,-2.321,5.542
2026-05-22 16:31:14.013,1351013469,1801013,2,0.96387,0.32861,0.40161,-0.511,-24.702,14.504
2026-05-22 16:31:14.213,1351013669,1801213,1,1.03442,-0.14404,0.13037,-49.702,5.672,-10.611
2026-05-22 16:31:14.213,1351013669,1801213,2,0.93384,0.23853,0.30249,-28.45,-11.55,15.366
2026-05-22 16:31:14.413,1351013869,1801413,1,0.95996,-0.11426,0.23438,-51.618,8.443,-15.962
2026-05-22 16:31:14.413,1351013869,1801413,2,0.88501,0.41187,0.33569,-30.901,-10.863,2.237
2026-05-22 16:31:14.613,1351014069,1801613,1,0.99878,-0.125,0.22314,-26.786,-3.015,-6.786
2026-05-22 16:31:14.613,1351014069,1801613,2,0.90991,0.35962,0.35693,-16.817,-10.931,2.504
2026-05-22 16:31:15.813,1351015269,1801813,1,0.98389,-0.11475,0.21655,-2.916,-1.359,4.221
2026-05-22 16:31:15.813,1351015269,1801813,2,0.89893,0.37891,0.40723,9.969,0.802,4.366
2026-05-22 16:31:15.013,1351014469,1802013,1,1.01025,-0.1228,0.23828,-1.55,2.954,3.489
2026-05-22 16:31:15.013,1351014469,1802013,2,0.90942,0.39063,0.40356,-6.366,3.611,2.947
2026-05-22 16:31:15.213,1351014669,1802213,1,0.95825,-0.15552,0.23779,3.603,-3.115,4.198
2026-05-22 16:31:15.213,1351014669,1802213,2,0.89502,0.37622,0.37329,10.947,-0.779,-5.649
2026-05-22 16:31:15.413,1351014869,1802413,1,0.98999,-0.09961,0.20093,9.099,-7.282,-3.015
2026-05-22 16:31:15.413,1351014869,1802413,2,0.87866,0.3916,0.42236,1.229,-0.275,-5.313
2026-05-22 16:31:15.613,1351015069,1802613,1,1.0144,-0.10376,0.20581,-0.481,-2.779,-0.366
2026-05-22 16:31:15.613,1351015069,1802613,2,0.89136,0.43188,0.39307,2.466,0.313,0.542
2026-05-22 16:31:16.813,1351016269,1802813,1,1.01782,-0.0896,0.20264,-2.092,1.313,-2.947
2026-05-22 16:31:16.813,1351016269,1802813,2,0.89282,0.40405,0.41528,-5.153,2.695,4.565
2026-05-22 16:31:16.013,1351015469,1803013,1,0.99268,-0.10107,0.20361,-3.718,8.855,-2.206
2026-05-22 16:31:16.013,1351015469,1803013,2,0.89429,0.4209,0.40747,-7.053,6.427,2.71
2026-05-22 16:31:16.213,1351015669,1803213,1,1.02832,-0.1084,0.1731,3.527,19.252,-7.939
2026-05-22 16:31:16.213,1351015669,1803213,2,0.94507,0.39966,0.45264,-10.71,31.359,9.214
2026-05-22 16:31:16.413,1351015869,1803413,1,1.0061,-0.06299,0.12256,21.855,90.092,-2.336
2026-05-22 16:31:16.413,1351015869,1803413,2,1.10034,0.35938,0.50513,-32.71,103.061,54.053
2026-05-22 16:31:16.613,1351016069,1803613,1,0.33838,0.00488,0.52393,17.756,133.351,12.687
2026-05-22 16:31:16.613,1351016069,1803613,2,0.86816,0.18188,0.75562,-55.344,83.389,40.084
2026-05-22 16:31:17.813,1351017269,1803813,1,0.10376,0.21826,0.97314,19.58,64.817,20.191
2026-05-22 16:31:17.813,1351017269,1803813,2,0.65356,-0.1123,1.04907,-16.908,32.336,43.427
2026-05-22 16:31:17.013,1351016469,1804013,1,0.07861,0.15503,0.90894,-12.084,10.718,8.389
2026-05-22 16:31:17.013,1351016469,1804013,2,0.64624,-0.18066,1.10962,-5.58,0.718,20.786
2026-05-22 16:31:17.213,1351016669,1804213,1,0.14209,0.05859,0.8291,-3.695,0.924,1.71
2026-05-22 16:31:17.213,1351016669,1804213,2,0.6377,-0.17261,1.12256,-1.985,-0.763,1.725
2026-05-22 16:31:17.413,1351016869,1804413,1,0.13208,0.0835,0.81885,0.252,0.832,-5.809
2026-05-22 16:31:17.413,1351016869,1804413,2,0.65332,-0.17114,1.12695,-2.718,3.038,-1.298
2026-05-22 16:31:17.613,1351017069,1804613,1,0.12012,0.10181,0.84351,-6.733,-4.893,-4.954
2026-05-22 16:31:17.613,1351017069,1804613,2,0.65308,-0.14478,1.13257,-1.878,-2.397,-3.603
2026-05-22 16:31:18.813,1351018269,1804813,1,0.16528,0.08252,0.88135,-10.87,2.427,-7.595
2026-05-22 16:31:18.813,1351018269,1804813,2,0.78394,-0.271,0.9458,-12.771,-1.779,13.137
2026-05-22 16:31:18.013,1351017469,1805013,1,0.11084,0.03638,0.88281,-15.656,7.382,1.809
2026-05-22 16:31:18.013,1351017469,1805013,2,0.69751,-0.26685,1.02856,-44.183,-6.229,-11.58
2026-05-22 16:31:18.213,1351017669,1805213,1,0.11792,0.02368,0.7749,14.168,10.863,1.626
2026-05-22 16:31:18.213,1351017669,1805213,2,0.5979,-0.17139,1.15088,-22.168,9.481,6.504
2026-05-22 16:31:18.413,1351017869,1805413,1,0.00635,0.08691,0.85913,0.534,18.008,-9.321
2026-05-22 16:31:18.413,1351017869,1805413,2,0.59668,-0.26538,1.15186,-17.802,14.45,10.191
2026-05-22 16:31:18.613,1351018069,1805613,1,-0.01978,0.08276,0.87646,-3.046,3.13,-4.45
2026-05-22 16:31:18.613,1351018069,1805613,2,0.59619,-0.30005,1.13501,0.244,4.237,2.16
2026-05-22 16:31:19.813,1351019269,1805813,1,-0.00757,0.11426,0.84985,-5.145,-0.214,-1.588
2026-05-22 16:31:19.813,1351019269,1805813,2,0.59082,-0.27808,1.15161,3.809,0.313,1.847
2026-05-22 16:31:19.013,1351018469,1806013,1,0.03296,0.07617,0.82813,-4.534,-4.863,0.298
2026-05-22 16:31:19.013,1351018469,1806013,2,0.5918,-0.27856,1.15088,-0.435,0.084,-0.061
2026-05-22 16:31:19.213,1351018669,1806213,1,0.02295,0.08618,0.83618,-2.145,-0.076,2.527
2026-05-22 16:31:19.213,1351018669,1806213,2,0.5918,-0.27075,1.15601,0.786,-0.427,1.351
2026-05-22 16:31:19.413,1351018869,1806413,1,0.02246,0.08691,0.8396,-1.611,0.992,2.519
2026-05-22 16:31:19.413,1351018869,1806413,2,0.58936,-0.26978,1.13232,1.687,1.0,3.084
2026-05-22 16:31:19.613,1351019069,1806613,1,0.02197,0.07617,0.83325,-0.359,2.626,1.626
2026-05-22 16:31:19.613,1351019069,1806613,2,0.58838,-0.28271,1.14551,-1.046,1.427,2.626
2026-05-22 16:31:20.813,1351020269,1806813,1,0.01587,0.0564,0.84985,-3.069,-1.115,-1.702
2026-05-22 16:31:20.813,1351020269,1806813,2,0.5918,-0.27368,1.15381,1.763,-0.145,-1.374
2026-05-22 16:31:20.013,1351019469,1807013,1,0.03418,0.08984,0.83521,2.527,-3.328,-0.672
2026-05-22 16:31:20.013,1351019469,1807013,2,0.60571,-0.25244,1.13745,1.565,-0.366,-1.099
2026-05-22 16:31:20.213,1351019669,1807213,1,0.05273,0.11426,0.84009,-3.107,-2.947,0.336
2026-05-22 16:31:20.213,1351019669,1807213,2,0.60767,-0.25073,1.14331,-1.458,-2.412,0.573
2026-05-22 16:31:20.413,1351019869,1807413,1,0.0415,0.10889,0.83496,0.618,1.74,-2.015
2026-05-22 16:31:20.413,1351019869,1807413,2,0.60962,-0.2561,1.1416,-4.924,0.832,2.313
2026-05-22 16:31:20.613,1351020069,1807613,1,0.01147,0.06519,0.84155,-5.634,-1.305,-4.305
2026-05-22 16:31:20.613,1351020069,1807613,2,0.61304,-0.2561,1.13281,-3.351,0.435,-3.366
2026-05-22 16:31:21.813,1351021269,1807813,1,0.05322,0.07837,0.82373,-0.374,-3.573,-3.107
2026-05-22 16:31:21.813,1351021269,1807813,2,0.60938,-0.24829,1.15112,-0.458,-0.473,-1.885
2026-05-22 16:31:21.013,1351020469,1808013,1,0.06372,0.09253,0.83594,-2.359,-1.061,-2.015
2026-05-22 16:31:21.013,1351020469,1808013,2,0.61841,-0.23608,1.14014,2.038,0.511,1.115
2026-05-22 16:31:21.213,1351020669,1808213,1,0.06348,0.08911,0.83936,-1.244,-0.511,-2.443
2026-05-22 16:31:21.213,1351020669,1808213,2,0.61694,-0.24219,1.13696,-0.603,1.053,1.374
2026-05-22 16:31:21.487,1351020943,1808486,1,0.02051,0.11475,0.95703,2.405,-23.069,0.908
2026-05-22 16:31:21.487,1351020943,1808486,2,0.62964,-0.20825,1.13867,12.84,-16.344,-15.206
2026-05-22 16:31:22.686,1351022142,1808686,1,0.18311,0.12158,0.86743,-7.702,-59.74,2.16
2026-05-22 16:31:22.686,1351022142,1808686,2,0.69165,-0.02832,1.06396,31.481,-35.962,-27.176
2026-05-22 16:31:22.886,1351022342,1808886,1,0.47314,0.07715,0.72046,-21.931,-65.176,5.038
2026-05-22 16:31:22.886,1351022342,1808886,2,0.73071,0.10449,0.91357,29.168,-44.13,-23.214
2026-05-22 16:31:22.086,1351021542,1809086,1,0.63232,0.06763,0.52051,-11.893,-89.237,-0.122
2026-05-22 16:31:22.086,1351021542,1809086,2,0.83521,0.35059,0.72754,32.656,-74.252,-43.145
2026-05-22 16:31:22.286,1351021742,1809286,1,0.97729,-0.0127,0.23267,-26.16,-75.679,-11.611
2026-05-22 16:31:22.286,1351021742,1809286,2,0.93237,0.40698,0.52124,26.527,-38.374,-18.382
2026-05-22 16:31:22.486,1351021942,1809486,1,1.02905,0.01099,0.14624,-2.015,-31.145,-6.504
2026-05-22 16:31:22.486,1351021942,1809486,2,0.90771,0.40991,0.37451,15.153,-11.557,-2.542
2026-05-22 16:31:23.686,1351023142,1809686,1,1.11621,0.01196,0.08374,-3.298,5.282,0.878
2026-05-22 16:31:23.686,1351023142,1809686,2,0.87354,0.48071,0.4165,-30.542,9.107,6.824
2026-05-22 16:31:23.886,1351023342,1809886,1,1.01172,0.0293,0.16992,-15.206,13.817,2.901
2026-05-22 16:31:23.886,1351023342,1809886,2,0.87842,0.4375,0.42334,-19.557,3.252,14.015
2026-05-22 16:31:23.086,1351022542,1810086,1,0.99976,-0.04541,0.23242,-13.305,9.046,1.443
2026-05-22 16:31:23.086,1351022542,1810086,2,0.87793,0.40137,0.45947,-19.969,1.489,7.389
2026-05-22 16:31:23.286,1351022742,1810286,1,0.97241,-0.0481,0.27271,-5.687,7.489,3.863
2026-05-22 16:31:23.286,1351022742,1810286,2,0.89917,0.38184,0.47461,-0.855,3.45,5.427
2026-05-22 16:31:23.486,1351022942,1810486,1,0.97266,-0.05884,0.27539,2.947,-0.557,-0.947
2026-05-22 16:31:23.486,1351022942,1810486,2,0.89282,0.40747,0.44897,2.695,1.466,-1.458
2026-05-22 16:31:24.686,1351024142,1810686,1,0.99048,-0.01758,0.23853,-2.58,-2.656,-3.534
2026-05-22 16:31:24.686,1351024142,1810686,2,0.89697,0.41406,0.44482,-1.924,-2.008,-0.458
2026-05-22 16:31:24.886,1351024342,1810886,1,0.99658,-0.01709,0.22974,-2.389,-0.275,-2.443
2026-05-22 16:31:24.886,1351024342,1810886,2,0.89526,0.40405,0.43872,-5.679,-0.702,-0.069
2026-05-22 16:31:24.086,1351023542,1811086,1,0.9895,-0.01587,0.24072,-2.214,2.229,0.763
2026-05-22 16:31:24.086,1351023542,1811086,2,0.89233,0.39404,0.4624,-1.206,2.405,2.916
2026-05-22 16:31:24.286,1351023742,1811286,1,0.99097,-0.03198,0.23926,4.725,0.557,4.359
2026-05-22 16:31:24.286,1351023742,1811286,2,0.8938,0.40381,0.46094,5.313,2.87,0.275
2026-05-22 16:31:24.486,1351023942,1811486,1,0.99487,-0.02661,0.22974,2.992,-1.458,2.687
2026-05-22 16:31:24.486,1351023942,1811486,2,0.88403,0.40869,0.45923,1.855,1.939,1.71
2026-05-22 16:31:25.686,1351025142,1811686,1,0.99683,-0.01953,0.22949,-1.282,1.275,1.481
2026-05-22 16:31:25.686,1351025142,1811686,2,0.88721,0.40259,0.45654,1.687,1.489,0.122
2026-05-22 16:31:25.886,1351025342,1811886,1,0.97852,-0.02173,0.23389,3.939,-0.084,6.985
2026-05-22 16:31:25.886,1351025342,1811886,2,0.88599,0.4104,0.45483,6.931,1.458,-0.053
2026-05-22 16:31:25.086,1351024542,1812086,1,0.99023,-0.02979,0.22363,-1.023,-0.42,5.473
2026-05-22 16:31:25.086,1351024542,1812086,2,0.89795,0.41382,0.44653,0.626,0.832,4.198
2026-05-22 16:31:25.286,1351024742,1812286,1,0.99219,-0.05127,0.23804,-3.977,3.031,11.664
2026-05-22 16:31:25.286,1351024742,1812286,2,0.89063,0.39478,0.42236,3.084,1.321,7.756
2026-05-22 16:31:25.486,1351024942,1812486,1,0.96021,-0.10083,0.24512,-0.542,3.45,28.298
2026-05-22 16:31:25.486,1351024942,1812486,2,0.92261,0.3374,0.42236,10.015,-3.786,17.053
2026-05-22 16:31:26.686,1351026142,1812686,1,0.98145,-0.33203,0.2688,5.176,4.809,32.053
2026-05-22 16:31:26.686,1351026142,1812686,2,0.92139,0.3313,0.33325,17.863,1.832,5.42
2026-05-22 16:31:26.886,1351026342,1812886,1,0.94727,-0.39624,0.17944,18.664,5.618,20.023
2026-05-22 16:31:26.886,1351026342,1812886,2,0.97314,0.2251,0.31982,30.58,20.779,11.977
2026-05-22 16:31:26.086,1351025542,1813086,1,0.8877,-0.37817,0.0769,46.58,68.977,37.023
2026-05-22 16:31:26.086,1351025542,1813086,2,1.12061,0.02734,0.37573,21.664,97.336,33.092
2026-05-22 16:31:26.286,1351025742,1813286,1,0.65234,-0.06128,0.36328,86.573,141.336,47.847
2026-05-22 16:31:26.286,1351025742,1813286,2,0.59619,0.5332,1.19458,-80.962,136.023,108.527
2026-05-22 16:31:26.486,1351025942,1813486,1,-0.23047,0.04126,1.0188,20.305,138.214,22.733
2026-05-22 16:31:26.486,1351025942,1813486,2,0.43726,-0.2373,1.37891,-37.137,63.939,28.542
2026-05-22 16:31:27.686,1351027142,1813686,1,-0.46777,0.02905,0.9397,-6.26,61.122,3.137
2026-05-22 16:31:27.686,1351027142,1813686,2,0.17871,-0.58984,1.26123,41.893,9.427,23.763
2026-05-22 16:31:27.886,1351027342,1813886,1,-0.48755,-0.03027,0.76367,-5.084,13.611,7.618
2026-05-22 16:31:27.886,1351027342,1813886,2,0.16602,-0.57104,1.20923,18.763,13.908,0.282
2026-05-22 16:31:27.086,1351026542,1814086,1,-0.44775,-0.06592,0.65967,-27.305,14.931,-5.405
2026-05-22 16:31:27.086,1351026542,1814086,2,0.09692,-0.57886,1.2666,-10.466,10.809,17.29
2026-05-22 16:31:27.286,1351026742,1814286,1,-0.57446,-0.16528,0.75439,-1.046,12.176,8.023
2026-05-22 16:31:27.286,1351026742,1814286,2,0.06128,-0.62573,1.18628,25.595,3.206,7.702
2026-05-22 16:31:27.486,1351026942,1814486,1,-0.54224,-0.17407,0.70264,-16.565,-10.618,1.794
2026-05-22 16:31:27.486,1351026942,1814486,2,0.17041,-0.58911,1.16455,17.534,-20.809,-4.656
2026-05-22 16:31:28.686,1351028142,1814686,1,-0.4375,-0.15894,0.59766,-10.794,-6.252,-3.542
2026-05-22 16:31:28.686,1351028142,1814686,2,0.19238,-0.61768,1.18481,-11.855,8.046,7.595
2026-05-22 16:31:28.886,1351028342,1814886,1,-0.44653,-0.09985,0.66333,-5.221,0.733,-1.573
2026-05-22 16:31:28.886,1351028342,1814886,2,0.18799,-0.55615,1.24292,-3.053,-9.435,11.076
2026-05-22 16:31:28.086,1351027542,1815086,1,-0.49097,-0.12573,0.64893,-12.153,4.435,-0.947
2026-05-22 16:31:28.086,1351027542,1815086,2,0.15186,-0.60986,1.24268,-15.534,-2.954,15.206
2026-05-22 16:31:28.286,1351027742,1815286,1,-0.44946,-0.18188,0.59326,13.771,-6.924,4.511
2026-05-22 16:31:28.286,1351027742,1815286,2,0.24146,-0.38525,1.16333,19.229,12.939,-14.374
2026-05-22 16:31:28.486,1351027942,1815486,1,-0.46582,-0.2207,0.72803,-0.45,5.443,1.802
2026-05-22 16:31:28.486,1351027942,1815486,2,0.19556,-0.58862,1.27417,16.389,6.557,-5.855
2026-05-22 16:31:29.686,1351029142,1815686,1,-0.4834,-0.19067,0.70898,-1.763,-8.099,-3.748
2026-05-22 16:31:29.686,1351029142,1815686,2,0.1748,-0.57715,1.20093,6.496,-13.0,-7.947
2026-05-22 16:31:29.886,1351029342,1815886,1,-0.35083,-0.12036,0.57202,9.496,-16.84,2.351
2026-05-22 16:31:29.886,1351029342,1815886,2,0.24634,-0.47314,1.19751,-6.267,1.71,-3.649
2026-05-22 16:31:29.086,1351028542,1816086,1,-0.45435,-0.13721,0.68018,-9.901,24.786,4.412
2026-05-22 16:31:29.086,1351028542,1816086,2,0.2002,-0.54248,1.22583,-10.924,19.733,16.832
2026-05-22 16:31:29.286,1351028742,1816286,1,-0.51465,-0.09229,0.65234,0.885,10.534,-0.847
2026-05-22 16:31:29.286,1351028742,1816286,2,0.11279,-0.56934,1.23608,-7.374,12.305,13.626
2026-05-22 16:31:29.486,1351028942,1816486,1,-0.56738,-0.18091,0.67334,-4.626,1.099,2.328
2026-05-22 16:31:29.486,1351028942,1816486,2,0.12598,-0.57788,1.24463,3.847,-2.16,-0.756
2026-05-22 16:31:30.686,1351030142,1816686,1,-0.48511,-0.20581,0.58984,-3.519,-2.939,-1.351
2026-05-22 16:31:30.686,1351030142,1816686,2,0.14551,-0.57495,1.17969,-1.748,5.481,6.443
2026-05-22 16:31:30.886,1351030342,1816886,1,-0.52026,-0.14111,0.65479,-1.305,9.221,3.649
2026-05-22 16:31:30.886,1351030342,1816886,2,0.09741,-0.58228,1.22241,-11.321,7.275,3.275
2026-05-22 16:31:30.086,1351029542,1817086,1,-0.56006,-0.12305,0.64526,-1.351,6.954,2.183
2026-05-22 16:31:30.086,1351029542,1817086,2,0.05469,-0.56714,1.21729,1.55,4.893,2.931
2026-05-22 16:31:30.286,1351029742,1817286,1,-0.44922,-0.11157,0.50439,-7.023,2.153,-4.29
2026-05-22 16:31:30.286,1351029742,1817286,2,0.09106,-0.57813,1.22803,-8.366,15.573,0.122
2026-05-22 16:31:30.486,1351029942,1817486,1,-0.66528,-0.16968,0.70093,6.573,-2.069,-0.641
2026-05-22 16:31:30.486,1351029942,1817486,2,0.0708,-0.66211,1.25635,11.511,-17.672,-19.977
2026-05-22 16:31:31.686,1351031142,1817686,1,-0.34277,-0.17358,0.4375,10.008,-17.244,-6.496
2026-05-22 16:31:31.686,1351031142,1817686,2,0.15601,-0.53784,1.16748,3.076,-0.702,-5.802
2026-05-22 16:31:31.886,1351031342,1817886,1,-0.56152,-0.21021,0.63818,-0.962,-2.069,-5.221
2026-05-22 16:31:31.886,1351031342,1817886,2,0.14282,-0.60791,1.3374,-37.611,10.855,6.794
2026-05-22 16:31:31.086,1351030542,1818086,1,-0.57544,-0.12109,0.76538,-1.679,-7.359,0.718
2026-05-22 16:31:31.086,1351030542,1818086,2,0.14502,-0.60303,1.28809,21.901,-14.893,-22.305
2026-05-22 16:31:31.286,1351030742,1818286,1,-0.54712,-0.13281,0.7981,0.092,-39.878,-2.817
2026-05-22 16:31:31.286,1351030742,1818286,2,0.26465,-0.5437,1.20923,30.893,-29.267,-35.931
2026-05-22 16:31:31.486,1351030942,1818486,1,-0.302,-0.14893,0.72339,7.626,-48.779,-0.244
2026-05-22 16:31:31.486,1351030942,1818486,2,0.40405,-0.38818,1.17749,33.817,-25.031,-23.58
2026-05-22 16:31:32.686,1351032142,1818686,1,-0.0769,-0.08228,0.75049,1.893,-40.71,-2.481
2026-05-22 16:31:32.686,1351032142,1818686,2,0.50635,-0.20776,1.15186,21.511,-22.664,-17.542
2026-05-22 16:31:32.886,1351032342,1818886,1,-0.11597,-0.15991,0.75977,-13.504,-18.87,3.008
2026-05-22 16:31:32.886,1351032342,1818886,2,0.66919,-0.22021,1.12793,7.496,-4.16,5.435
2026-05-22 16:31:32.086,1351031542,1819086,1,-0.00562,-0.13818,0.80859,-5.221,-11.008,-0.038
2026-05-22 16:31:32.086,1351031542,1819086,2,0.61743,-0.19385,1.14087,15.863,-2.565,-12.534
2026-05-22 16:31:32.286,1351031742,1819286,1,0.01855,-0.10181,0.81909,-0.527,-9.13,-4.038
2026-05-22 16:31:32.286,1351031742,1819286,2,0.64746,-0.17603,1.12012,-8.481,0.931,4.611
2026-05-22 16:31:32.486,1351031942,1819486,1,0.03052,-0.07959,0.81128,-8.557,-3.275,-4.702
2026-05-22 16:31:32.486,1351031942,1819486,2,0.646,-0.15503,1.12231,-7.305,-1.107,1.855
2026-05-22 16:31:33.686,1351033142,1819686,1,0.03125,-0.13916,0.83984,0.198,0.092,-3.733
2026-05-22 16:31:33.686,1351033142,1819686,2,0.65991,-0.14648,1.1311,2.206,0.878,2.794
2026-05-22 16:31:33.886,1351033342,1819886,1,-0.02808,-0.07715,1.06079,0.351,-45.374,2.588
2026-05-22 16:31:33.886,1351033342,1819886,2,0.7041,-0.07227,1.11523,21.885,-43.748,-38.901
2026-05-22 16:31:33.086,1351032542,1820086,1,0.26343,-0.1438,0.75049,-4.13,-104.916,-1.313
2026-05-22 16:31:33.086,1351032542,1820086,2,0.73706,0.16748,0.88867,42.885,-54.481,-59.908
2026-05-22 16:31:33.286,1351032742,1820286,1,0.62134,-0.09595,0.49097,-13.145,-104.45,-21.344
2026-05-22 16:31:33.286,1351032742,1820286,2,0.85327,0.41113,0.58374,27.847,-66.779,-32.206
2026-05-22 16:31:33.486,1351032942,1820486,1,0.88452,-0.04907,0.19556,-14.519,-84.817,-15.725
2026-05-22 16:31:33.486,1351032942,1820486,2,0.82788,0.51611,0.49854,45.321,-45.427,-19.008
2026-05-22 16:31:34.686,1351034142,1820686,1,1.0498,0.00513,0.13232,-32.588,-16.595,-7.038
2026-05-22 16:31:34.686,1351034142,1820686,2,0.91431,0.50513,0.33984,-16.023,-26.718,-1.336
2026-05-22 16:31:34.886,1351034342,1820886,1,1.05298,-0.20068,0.07715,-42.183,16.198,0.244
2026-05-22 16:31:34.886,1351034342,1820886,2,0.89429,0.39648,0.3728,-48.733,-12.221,30.809
2026-05-22 16:31:34.086,1351033542,1821086,1,0.9646,-0.39551,0.12695,-25.366,47.13,5.733
2026-05-22 16:31:34.086,1351033542,1821086,2,0.91992,0.33008,0.12964,-47.282,20.931,26.061
2026-05-22 16:31:34.286,1351033742,1821286,1,0.93677,-0.43384,0.22119,32.687,24.145,0.473
2026-05-22 16:31:34.286,1351033742,1821286,2,1.07227,0.24512,0.38916,20.412,42.511,9.824
2026-05-22 16:31:34.486,1351033942,1821486,1,0.91211,0.00562,0.48706,81.481,21.221,23.718
2026-05-22 16:31:34.486,1351033942,1821486,2,0.86279,0.52393,0.73047,125.763,48.534,-9.26
2026-05-22 16:31:35.686,1351035142,1821686,1,0.81104,0.10718,0.38965,89.176,-10.649,38.992
2026-05-22 16:31:35.686,1351035142,1821686,2,0.71582,0.53076,0.62671,100.229,28.863,-9.489
2026-05-22 16:31:35.886,1351035342,1821886,1,0.96411,0.2439,0.34253,60.962,-31.008,49.0
2026-05-22 16:31:35.886,1351035342,1821886,2,0.97803,0.36011,0.61304,89.863,15.115,45.382
2026-05-22 16:31:35.086,1351034542,1822086,1,1.00952,-0.11255,0.25171,68.504,-5.908,57.481
2026-05-22 16:31:35.086,1351034542,1822086,2,0.92676,0.50293,0.3269,33.649,11.305,5.412
2026-05-22 16:31:35.286,1351034742,1822286,1,1.02368,-0.29248,0.09937,59.298,-4.672,38.305
2026-05-22 16:31:35.286,1351034742,1822286,2,0.89233,0.38281,0.35718,48.878,35.427,3.656
2026-05-22 16:31:35.486,1351034942,1822486,1,0.94458,-0.29199,0.12988,57.992,16.954,17.832
2026-05-22 16:31:35.486,1351034942,1822486,2,0.92896,0.40796,0.59717,56.733,52.061,-7.847
2026-05-22 16:31:36.686,1351036142,1822686,1,0.85254,0.29468,0.38257,66.924,31.725,9.611
2026-05-22 16:31:36.686,1351036142,1822686,2,0.69458,0.56494,0.72559,43.023,80.176,32.206
2026-05-22 16:31:36.886,1351036342,1822886,1,0.77759,0.35864,0.37524,20.565,39.931,21.969
2026-05-22 16:31:36.886,1351036342,1822886,2,0.82153,0.53882,0.82959,-27.908,13.511,35.015
2026-05-22 16:31:36.086,1351035542,1823086,1,0.50537,0.08154,0.10278,-26.458,135.489,10.084
2026-05-22 16:31:36.086,1351035542,1823086,2,1.36865,-1.72852,1.02588,-250.137,223.198,-155.206
2026-05-22 16:31:36.286,1351035742,1823286,1,0.04004,-0.12305,0.87109,-1.687,162.267,-4.969
2026-05-22 16:31:36.286,1351035742,1823286,2,0.427,-0.75098,1.17505,-8.313,126.916,115.863
2026-05-22 16:31:36.493,1351035949,1823493,1,-0.46143,-0.13574,1.10425,6.611,61.992,-8.046
2026-05-22 16:31:36.493,1351035949,1823493,2,0.05322,-0.73877,1.16748,-55.824,62.763,31.702
2026-05-22 16:31:37.693,1351037149,1823693,1,-0.47754,-0.02515,0.9043,-10.519,14.206,-4.672
2026-05-22 16:31:37.693,1351037149,1823693,2,0.2395,-0.61621,1.3208,10.527,-38.565,7.031
2026-05-22 16:31:37.893,1351037349,1823893,1,-0.29834,-0.20923,0.77734,-6.305,-11.626,1.176
2026-05-22 16:31:37.893,1351037349,1823893,2,0.38184,-0.58521,1.10303,15.588,-0.099,-2.015
2026-05-22 16:31:37.093,1351036549,1824093,1,-0.28003,-0.12646,0.76929,0.74,1.962,1.405
2026-05-22 16:31:37.093,1351036549,1824093,2,0.31396,-0.57397,1.15356,-1.061,-4.305,-0.595
2026-05-22 16:31:37.293,1351036749,1824293,1,-0.31714,-0.10522,0.75757,0.237,-0.145,0.84
2026-05-22 16:31:37.293,1351036749,1824293,2,0.28662,-0.53589,1.19897,0.71,-2.008,-0.069
2026-05-22 16:31:37.493,1351036949,1824493,1,-0.3562,-0.08594,0.74146,-10.947,-1.122,13.282
2026-05-22 16:31:37.493,1351036949,1824493,2,0.29834,-0.5127,1.19287,11.71,3.74,3.855
2026-05-22 16:31:38.693,1351038149,1824693,1,-0.31445,-0.11353,0.76489,-10.076,-3.145,11.748
2026-05-22 16:31:38.693,1351038149,1824693,2,0.26538,-0.51343,1.23145,2.817,-8.893,10.061
2026-05-22 16:31:38.893,1351038349,1824893,1,-0.32495,-0.10132,0.72534,2.588,-3.756,6.504
2026-05-22 16:31:38.893,1351038349,1824893,2,0.30249,-0.44287,1.26831,6.947,-1.557,2.145
2026-05-22 16:31:38.093,1351037549,1825093,1,-0.29541,-0.12793,0.75073,-13.168,0.931,-7.168
2026-05-22 16:31:38.093,1351037549,1825093,2,0.30249,-0.54272,1.21582,-6.985,-0.557,5.397
2026-05-22 16:31:38.293,1351037749,1825293,1,-0.38452,-0.11621,0.83423,-1.16,-3.794,-0.626
2026-05-22 16:31:38.293,1351037749,1825293,2,0.31958,-0.48901,1.19922,9.58,-7.985,-11.328
2026-05-22 16:31:38.493,1351037949,1825493,1,-0.26245,-0.0271,0.76758,27.832,10.336,-5.42
2026-05-22 16:31:38.493,1351037949,1825493,2,0.41479,-0.56519,1.23804,-20.931,5.656,-0.122
2026-05-22 16:31:39.693,1351039149,1825693,1,-0.33374,-0.06592,0.75513,-9.198,-4.649,7.0
2026-05-22 16:31:39.693,1351039149,1825693,2,0.29419,-0.43115,1.21826,-6.107,-10.275,6.244
2026-05-22 16:31:39.893,1351039349,1825893,1,-0.29858,-0.13086,0.73169,0.206,5.382,0.237
2026-05-22 16:31:39.893,1351039349,1825893,2,0.32056,-0.3938,1.17017,27.176,2.13,-12.427
2026-05-22 16:31:39.093,1351038549,1826093,1,-0.42212,-0.15845,0.98169,-4.969,-12.847,-1.122
2026-05-22 16:31:39.093,1351038549,1826093,2,0.34131,-0.64478,1.20898,10.855,-17.977,-24.328
2026-05-22 16:31:39.293,1351038749,1826293,1,-0.30249,-0.20093,0.9292,4.458,-62.55,-10.718
2026-05-22 16:31:39.293,1351038749,1826293,2,0.53809,-0.36646,1.12402,24.992,-47.412,-69.443
2026-05-22 16:31:39.493,1351038949,1826493,1,-0.03882,-0.10767,0.90601,4.992,-95.229,-20.977
2026-05-22 16:31:39.493,1351038949,1826493,2,0.73169,-0.12231,0.96973,31.298,-68.626,-73.595
2026-05-22 16:31:40.693,1351040149,1826693,1,0.36914,-0.02759,0.60132,-1.794,-116.107,-22.076
2026-05-22 16:31:40.693,1351040149,1826693,2,0.86792,0.23804,0.82275,26.237,-67.153,-66.282
2026-05-22 16:31:40.893,1351040349,1826893,1,0.72681,-0.05444,0.37183,3.221,-84.145,-23.214
2026-05-22 16:31:40.893,1351040349,1826893,2,0.82056,0.52808,0.70483,50.313,-24.679,-71.015
2026-05-22 16:31:40.093,1351039549,1827093,1,0.9231,0.28003,0.33984,-18.641,-42.092,-23.763
2026-05-22 16:31:40.093,1351039549,1827093,2,0.74048,0.56885,0.7146,-12.382,-27.069,-0.595
2026-05-22 16:31:40.293,1351039749,1827293,1,1.00708,0.26514,0.21851,-67.29,-34.702,-16.603
2026-05-22 16:31:40.293,1351039749,1827293,2,1.00806,0.521,0.44482,-79.267,-0.382,28.611
2026-05-22 16:31:40.493,1351039949,1827493,1,1.09448,-0.12256,0.18604,-46.779,8.634,-11.511
2026-05-22 16:31:40.493,1351039949,1827493,2,1.05151,0.3855,0.22607,-96.542,-19.16,-19.542
2026-05-22 16:31:41.693,1351041149,1827693,1,0.97095,-0.16382,0.19092,-38.595,-9.611,-18.771
2026-05-22 16:31:41.693,1351041149,1827693,2,0.83643,0.60474,-0.08057,-8.603,18.557,5.573
2026-05-22 16:31:41.940,1351041396,1827940,1,1.00586,0.00366,0.16309,-27.817,-8.855,-18.458
2026-05-22 16:31:41.940,1351041396,1827940,2,0.78833,0.42554,0.43018,-14.924,-49.282,-30.863
2026-05-22 16:31:41.140,1351040596,1828140,1,0.98706,0.05518,0.13501,28.595,4.412,-3.847
2026-05-22 16:31:41.140,1351040596,1828140,2,0.81665,0.448,0.60571,-3.405,4.084,-3.015
2026-05-22 16:31:41.340,1351040796,1828340,1,1.02393,0.10986,0.08447,10.481,-7.565,-11.015
2026-05-22 16:31:41.340,1351040796,1828340,2,0.77954,0.48315,0.49683,-18.901,-28.496,-16.366
2026-05-22 16:31:41.540,1351040996,1828540,1,1.052,0.05396,0.04419,25.916,3.366,5.939
2026-05-22 16:31:41.540,1351040996,1828540,2,0.87524,0.52295,0.39868,37.198,10.229,-4.267
2026-05-22 16:31:42.740,1351042196,1828740,1,1.07227,0.14233,0.05591,21.038,9.298,9.046
2026-05-22 16:31:42.740,1351042196,1828740,2,0.85229,0.45972,0.21606,16.137,22.366,1.122
2026-05-22 16:31:42.940,1351042396,1828940,1,1.01733,0.09668,0.07153,12.977,22.74,0.748
2026-05-22 16:31:42.940,1351042396,1828940,2,0.88721,0.49121,0.13916,-19.916,13.794,27.824
2026-05-22 16:31:42.140,1351041596,1829140,1,0.97461,0.07837,0.12329,1.023,8.55,2.481
2026-05-22 16:31:42.140,1351041596,1829140,2,0.875,0.47778,0.4021,0.527,16.0,5.008
2026-05-22 16:31:42.340,1351041796,1829340,1,1.02393,0.10205,0.14868,-3.328,-4.237,-4.16
2026-05-22 16:31:42.340,1351041796,1829340,2,0.82471,0.47046,0.42383,0.458,-1.794,-2.084
2026-05-22 16:31:42.540,1351041996,1829540,1,1.0354,0.09424,0.11719,-4.786,-5.351,-4.282
2026-05-22 16:31:42.540,1351041996,1829540,2,0.85913,0.49438,0.40649,3.344,-3.397,1.122
2026-05-22 16:31:43.740,1351043196,1829740,1,1.02612,0.10571,0.11401,-3.725,-9.45,-7.206
2026-05-22 16:31:43.740,1351043196,1829740,2,0.84546,0.51123,0.40771,-2.099,-7.099,-0.664
2026-05-22 16:31:43.940,1351043396,1829940,1,1.04321,0.1123,0.07764,-6.137,-5.069,-4.603
2026-05-22 16:31:43.940,1351043396,1829940,2,0.84521,0.51001,0.31738,-11.076,-4.397,0.26
2026-05-22 16:31:43.140,1351042596,1830140,1,1.06812,0.0918,0.04199,6.008,-2.634,2.45
2026-05-22 16:31:43.140,1351042596,1830140,2,0.80322,0.50757,0.33398,2.328,3.824,-2.099
2026-05-22 16:31:43.340,1351042796,1830340,1,1.04883,0.0918,0.03638,8.687,-2.122,5.321
2026-05-22 16:31:43.340,1351042796,1830340,2,0.8374,0.50806,0.33813,10.924,5.687,-0.45
2026-05-22 16:31:43.540,1351042996,1830540,1,1.05542,0.05981,0.04956,24.977,2.366,7.366
2026-05-22 16:31:43.540,1351042996,1830540,2,0.84619,0.54395,0.35449,20.618,18.076,-0.176
2026-05-22 16:31:44.740,1351044196,1830740,1,1.04736,0.11841,0.04004,8.534,19.458,4.176
2026-05-22 16:31:44.740,1351044196,1830740,2,0.84326,0.53833,0.3667,2.168,19.336,6.588
2026-05-22 16:31:44.940,1351044396,1830940,1,1.00366,0.11792,0.13745,17.076,9.878,7.176
2026-05-22 16:31:44.940,1351044396,1830940,2,0.81323,0.52075,0.40845,16.748,11.26,1.931
2026-05-22 16:31:44.140,1351043596,1831140,1,1.02173,0.10718,0.11353,12.832,-2.397,14.901
2026-05-22 16:31:44.140,1351043596,1831140,2,0.84277,0.51489,0.43848,20.977,1.817,3.687
2026-05-22 16:31:44.340,1351043796,1831340,1,1.08154,0.04712,0.10303,0.267,8.794,20.015
2026-05-22 16:31:44.340,1351043796,1831340,2,0.89429,0.50903,0.41797,-9.656,3.412,11.336
2026-05-22 16:31:44.540,1351043996,1831540,1,1.02246,-0.04443,0.16187,-12.893,18.718,15.511
2026-05-22 16:31:44.540,1351043996,1831540,2,0.88257,0.44409,0.37671,-1.649,6.489,19.198
2026-05-22 16:31:45.740,1351045196,1831740,1,0.96216,-0.16138,0.20508,-5.687,12.702,2.015
2026-05-22 16:31:45.740,1351045196,1831740,2,0.89917,0.3396,0.40991,-6.679,0.282,-1.023
2026-05-22 16:31:45.940,1351045396,1831940,1,1.02539,-0.14429,0.25586,1.496,10.038,-4.427
2026-05-22 16:31:45.940,1351045396,1831940,2,0.88818,0.36475,0.47754,-15.977,6.557,5.931
2026-05-22 16:31:45.140,1351044596,1832140,1,0.89429,-0.03442,0.32446,-16.74,16.046,-6.267
2026-05-22 16:31:45.140,1351044596,1832140,2,0.8667,0.38867,0.54712,-18.405,2.275,2.069
2026-05-22 16:31:45.340,1351044796,1832340,1,0.96973,-0.05493,0.30957,-4.931,4.649,-1.664
2026-05-22 16:31:45.340,1351044796,1832340,2,0.93555,0.31323,0.46826,-11.313,1.847,-0.221
2026-05-22 16:31:45.540,1351044996,1832540,1,0.94482,-0.15698,0.35522,3.214,5.176,4.183
2026-05-22 16:31:45.540,1351044996,1832540,2,0.85352,0.29541,0.51904,9.534,6.985,14.435
2026-05-22 16:31:46.740,1351046196,1832740,1,0.92993,-0.00562,0.37866,-25.076,37.969,-0.237
2026-05-22 16:31:46.740,1351046196,1832740,2,0.66479,1.04175,1.51636,-99.504,-33.053,250.13
2026-05-22 16:31:46.940,1351046396,1832940,1,0.9353,-0.21582,0.56763,1.87,24.107,4.427
2026-05-22 16:31:46.940,1351046396,1832940,2,0.88208,0.60815,0.38818,157.519,29.137,-38.489
2026-05-22 16:31:46.140,1351045596,1833140,1,0.90967,-0.08105,0.38135,8.916,-1.656,3.771
2026-05-22 16:31:46.140,1351045596,1833140,2,0.92163,0.53345,0.73804,100.176,-1.649,-38.794
2026-05-22 16:31:46.340,1351045796,1833340,1,0.92407,-0.07153,0.37158,3.099,-0.962,1.55
2026-05-22 16:31:46.340,1351045796,1833340,2,0.78857,0.56958,0.50732,19.214,-5.206,-21.389
2026-05-22 16:31:46.540,1351045996,1833540,1,0.92456,-0.08643,0.34985,-3.107,-0.076,-0.748
2026-05-22 16:31:46.540,1351045996,1833540,2,0.84595,0.57642,0.54932,-68.626,-6.328,32.611
2026-05-22 16:31:47.740,1351047196,1833740,1,0.92578,-0.07544,0.3584,-3.16,-2.221,-1.191
2026-05-22 16:31:47.740,1351047196,1833740,2,0.82251,0.52344,0.56396,-3.832,-2.634,2.527
2026-05-22 16:31:47.940,1351047396,1833940,1,0.93628,-0.09229,0.35059,-2.168,-9.618,0.267
2026-05-22 16:31:47.940,1351047396,1833940,2,0.83813,0.49438,0.50586,1.573,-1.603,3.153
2026-05-22 16:31:47.140,1351046596,1834140,1,0.97388,-0.13281,0.29126,-25.473,-12.42,-6.595
2026-05-22 16:31:47.140,1351046596,1834140,2,0.80737,0.53931,0.50073,-9.496,-24.458,8.908
2026-05-22 16:31:47.340,1351046796,1834340,1,1.01099,-0.07617,0.21655,-38.092,-18.321,-20.802
2026-05-22 16:31:47.340,1351046796,1834340,2,0.86523,0.50098,0.39087,-8.931,-22.344,-11.626
2026-05-22 16:31:47.540,1351046996,1834540,1,1.0144,-0.04907,0.1814,4.733,-6.359,-5.42
2026-05-22 16:31:47.540,1351046996,1834540,2,0.84155,0.5542,0.39966,13.71,1.679,-3.771
2026-05-22 16:31:48.740,1351048196,1834740,1,1.0166,-0.00952,0.15161,20.962,2.229,9.115
2026-05-22 16:31:48.740,1351048196,1834740,2,0.80591,0.56836,0.38843,24.954,23.84,-0.29
2026-05-22 16:31:48.940,1351048396,1834940,1,1.01074,0.02002,0.18237,8.435,0.74,4.153
2026-05-22 16:31:48.940,1351048396,1834940,2,0.78125,0.57983,0.45996,-2.771,3.809,-0.061
2026-05-22 16:31:48.140,1351047596,1835140,1,1.01245,-0.021,0.19141,-12.061,-5.198,-5.756
2026-05-22 16:31:48.140,1351047596,1835140,2,0.80176,0.53467,0.46265,-8.885,-4.687,-0.519
2026-05-22 16:31:48.340,1351047796,1835340,1,1.03027,-0.01758,0.15283,-0.267,-0.374,-4.534
2026-05-22 16:31:48.340,1351047796,1835340,2,0.82251,0.56421,0.41431,-0.588,,-0.687
2026-05-22 16:31:48.540,1351047996,1835540,1,1.02393,-0.01489,0.15283,2.496,-0.565,-2.748
2026-05-22 16:31:48.540,1351047996,1835540,2,0.80933,0.5498,0.41479,0.397,3.931,1.031
2026-05-22 16:31:49.740,1351049196,1835740,1,1.02124,-0.0022,0.15356,-6.527,0.45,-4.313
2026-05-22 16:31:49.740,1351049196,1835740,2,0.81152,0.54736,0.41479,-2.702,-3.809,2.031
2026-05-22 16:31:49.940,1351049396,1835940,1,1.02295,-0.00366,0.16846,-10.466,-3.733,-1.076
2026-05-22 16:31:49.940,1351049396,1835940,2,0.82959,0.54834,0.40308,-4.672,-5.87,0.321
2026-05-22 16:31:49.140,1351048596,1836140,1,1.04102,-0.0188,0.12939,-4.336,-3.641,3.534
2026-05-22 16:31:49.140,1351048596,1836140,2,0.8147,0.56104,0.396,3.084,-0.74,1.794
2026-05-22 16:31:49.340,1351048796,1836340,1,1.03979,-0.01587,0.13428,7.618,3.099,7.206
2026-05-22 16:31:49.340,1351048796,1836340,2,0.79858,0.57715,0.4104,7.496,7.847,3.901
2026-05-22 16:31:49.540,1351048996,1836540,1,1.01221,-0.0249,0.14307,-2.863,2.649,0.763
2026-05-22 16:31:49.540,1351048996,1836540,2,0.80591,0.57446,0.396,-6.008,-0.847,1.16
2026-05-22 16:31:50.740,1351050196,1836740,1,1.02563,-0.01978,0.15259,-9.679,1.42,-2.672
2026-05-22 16:31:50.740,1351050196,1836740,2,0.80054,0.56396,0.41211,-9.267,-3.947,2.092
2026-05-22 16:31:50.940,1351050396,1836940,1,1.02051,-0.03076,0.14648,-8.771,-0.427,-1.168
2026-05-22 16:31:50.940,1351050396,1836940,2,0.80713,0.5498,0.41895,-5.679,-4.473,3.267
2026-05-22 16:31:50.140,1351049596,1837140,1,1.01514,-0.03271,0.15698,-4.84,-3.595,0.687
2026-05-22 16:31:50.140,1351049596,1837140,2,0.80566,0.55078,0.39648,-0.13,-4.458,-1.237
2026-05-22 16:31:50.340,1351049796,1837340,1,1.03613,-0.04443,0.11938,0.756,-3.053,2.695
2026-05-22 16:31:50.340,1351049796,1837340,2,0.80273,0.57129,0.36694,3.267,3.046,-0.191
2026-05-22 16:31:50.540,1351049996,1837540,1,1.02441,-0.06665,0.12939,1.939,-2.031,3.695
2026-05-22 16:31:50.540,1351049996,1837540,2,0.83057,0.54077,0.36816,3.87,0.794,-1.519
2026-05-22 16:31:51.740,1351051196,1837740,1,1.02832,-0.08008,0.11572,9.679,-0.137,5.107
2026-05-22 16:31:51.740,1351051196,1837740,2,0.79541,0.57227,0.36011,5.061,7.069,-1.847
2026-05-22 16:31:51.940,1351051396,1837940,1,1.03711,-0.05688,0.11694,6.038,-0.13,1.107
2026-05-22 16:31:51.940,1351051396,1837940,2,0.79346,0.59277,0.37891,0.038,4.221,-0.84
2026-05-22 16:31:51.140,1351050596,1838140,1,1.03857,-0.05273,0.104,-0.015,0.786,-1.122
2026-05-22 16:31:51.140,1351050596,1838140,2,0.79053,0.59082,0.37622,-1.29,3.885,1.87
2026-05-22 16:31:51.340,1351050796,1838340,1,1.03223,-0.05249,0.11206,-0.718,0.221,-0.496
2026-05-22 16:31:51.340,1351050796,1838340,2,0.79883,0.58594,0.37524,-0.458,-0.542,0.473
2026-05-22 16:31:51.540,1351050996,1838540,1,1.03442,-0.04663,0.11133,-0.786,-3.557,-0.664
2026-05-22 16:31:51.540,1351050996,1838540,2,0.79614,0.58447,0.38135,-2.046,-0.702,
2026-05-22 16:31:52.740,1351052196,1838740,1,1.05005,-0.04932,0.09424,-1.137,0.145,-0.954
2026-05-22 16:31:52.740,1351052196,1838740,2,0.78882,0.59155,0.36206,-0.771,3.252,0.763
2026-05-22 16:31:52.940,1351052396,1838940,1,1.03418,-0.0415,0.1062,2.313,3.748,-1.244
2026-05-22 16:31:52.940,1351052396,1838940,2,0.78979,0.59033,0.37939,0.053,4.863,1.252
2026-05-22 16:31:52.140,1351051596,1839140,1,1.03198,-0.04834,0.11328,2.42,-3.107,-2.267
2026-05-22 16:31:52.140,1351051596,1839140,2,0.80127,0.57544,0.38232,4.382,1.153,-2.511
2026-05-22 16:31:52.340,1351051796,1839340,1,1.03125,-0.02148,0.11157,6.947,0.099,-2.107
2026-05-22 16:31:52.340,1351051796,1839340,2,0.77832,0.59546,0.39429,7.267,6.55,-2.916
2026-05-22 16:31:52.540,1351051996,1839540,1,1.0625,0.0144,0.05688,11.855,4.466,2.046
2026-05-22 16:31:52.540,1351051996,1839540,2,0.73926,0.62573,0.36108,11.084,17.252,-2.038
2026-05-22 16:31:53.740,1351053196,1839740,1,1.03174,0.02271,0.11011,0.603,-0.458,-0.145
2026-05-22 16:31:53.740,1351053196,1839740,2,0.7793,0.59253,0.40137,1.962,-0.382,0.275
2026-05-22 16:31:53.940,1351053396,1839940,1,1.05713,0.00244,0.07813,-1.099,-0.237,0.504
2026-05-22 16:31:53.940,1351053396,1839940,2,0.80713,0.58008,0.39868,0.084,2.321,3.504
2026-05-22 16:31:53.140,1351052596,1840140,1,1.09839,-0.02637,0.03931,1.168,14.908,5.832
2026-05-22 16:31:53.140,1351052596,1840140,2,0.83276,0.54712,0.33398,-7.55,20.427,12.344
2026-05-22 16:31:53.340,1351052796,1840340,1,1.02539,-0.12109,0.14673,16.328,27.0,6.992
2026-05-22 16:31:53.340,1351052796,1840340,2,0.85205,0.48462,0.35059,1.481,26.885,17.924
2026-05-22 16:31:53.540,1351052996,1840540,1,1.05908,-0.16528,0.20093,25.45,24.58,0.771
2026-05-22 16:31:53.540,1351052996,1840540,2,0.28125,0.22314,0.67822,110.389,83.13,57.924
2026-05-22 16:31:54.740,1351054196,1840740,1,0.42017,0.14844,0.04858,-12.099,61.901,6.168
2026-05-22 16:31:54.740,1351054196,1840740,2,0.30029,-0.10474,0.63135,-82.076,8.458,44.031
2026-05-22 16:31:54.940,1351054396,1840940,1,0.9585,0.09497,0.63184,10.901,20.664,7.84
2026-05-22 16:31:54.940,1351054396,1840940,2,1.04272,0.34448,0.69824,-9.588,17.679,30.786
2026-05-22 16:31:54.140,1351053596,1841140,1,0.90332,0.07861,0.84619,20.45,-16.313,17.969
2026-05-22 16:31:54.140,1351053596,1841140,2,1.0376,0.90454,0.68408,104.908,-43.931,-20.931
2026-05-22 16:31:54.340,1351053796,1841340,1,1.06763,0.11768,0.61255,19.0,-48.069,-3.29
2026-05-22 16:31:54.340,1351053796,1841340,2,1.01807,0.60986,0.92896,53.733,-37.496,-42.023
2026-05-22 16:31:54.540,1351053996,1841540,1,1.07739,0.15308,0.15039,4.115,-36.489,-6.931
2026-05-22 16:31:54.540,1351053996,1841540,2,0.78564,0.52954,0.6167,16.076,-20.221,-13.55
2026-05-22 16:31:55.740,1351055196,1841740,1,0.97485,0.0415,0.22681,-10.504,-1.779,2.634
2026-05-22 16:31:55.740,1351055196,1841740,2,0.96143,0.53662,0.64233,-0.466,12.977,3.405
2026-05-22 16:31:55.940,1351055396,1841940,1,1.27856,0.02637,0.32178,-21.878,36.573,13.985
2026-05-22 16:31:55.940,1351055396,1841940,2,1.15088,0.40063,0.60742,0.985,-4.473,5.84
2026-05-22 16:31:55.140,1351054596,1842140,1,1.01294,-0.06226,0.552,7.481,8.389,4.771
2026-05-22 16:31:55.140,1351054596,1842140,2,0.89771,0.48242,0.59497,-8.542,2.733,-21.26
2026-05-22 16:31:55.340,1351054796,1842340,1,0.92285,0.16089,0.33228,-10.092,-35.687,-18.954
2026-05-22 16:31:55.340,1351054796,1842340,2,0.82788,0.57007,0.73901,1.069,-30.427,-24.695
2026-05-22 16:31:55.540,1351054996,1842540,1,1.06494,0.08838,0.11792,-8.382,-23.336,-6.939
2026-05-22 16:31:55.540,1351054996,1842540,2,0.75586,0.41211,0.61523,1.84,-30.817,2.924
2026-05-22 16:31:56.740,1351056196,1842740,1,0.76733,0.06909,0.12549,-8.573,-4.519,-1.237
2026-05-22 16:31:56.740,1351056196,1842740,2,0.5647,0.44141,0.66064,22.824,-13.969,1.16
2026-05-22 16:31:56.940,1351056396,1842940,1,0.91675,0.05371,0.12573,-11.122,-6.16,3.267
2026-05-22 16:31:56.940,1351056396,1842940,2,0.82935,0.59937,0.46216,-3.206,13.374,-0.756
2026-05-22 16:31:56.140,1351055596,1843140,1,0.96582,0.06104,0.18945,-1.779,-0.511,3.344
2026-05-22 16:31:56.140,1351055596,1843140,2,0.7749,0.51733,0.54102,16.107,-0.191,-0.626
2026-05-22 16:31:56.420,1351055876,1843420,1,0.98828,0.10327,0.18188,-5.458,-7.824,-5.824
2026-05-22 16:31:56.420,1351055876,1843420,2,0.83301,0.5249,0.49365,-5.252,2.916,9.023
2026-05-22 16:31:57.800,1351057256,1843800,1,1.00781,0.06445,0.11792,-1.977,48.618,2.458
2026-05-22 16:31:57.800,1351057256,1843800,2,0.85864,0.50781,0.70728,-25.374,47.328,28.229
2026-05-22 16:31:57.000,1351056456,1844000,1,0.69702,-0.01685,0.30933,-8.588,100.626,7.641
2026-05-22 16:31:57.000,1351056456,1844000,2,0.83203,0.13965,0.89746,-37.023,69.305,43.0
2026-05-22 16:31:57.200,1351056656,1844200,1,0.6709,0.07373,0.58765,-12.046,112.45,5.832
2026-05-22 16:31:57.200,1351056656,1844200,2,0.96436,0.19312,0.96973,-126.237,87.298,71.061
2026-05-22 16:31:57.400,1351056856,1844400,1,0.05371,0.04028,0.7981,6.069,108.298,8.809
2026-05-22 16:31:57.400,1351056856,1844400,2,0.49561,-0.0603,1.23413,-52.702,66.282,26.084
2026-05-22 16:31:57.600,1351057056,1844600,1,-0.08545,-0.08081,0.94824,-16.924,56.527,0.382
2026-05-22 16:31:57.600,1351057056,1844600,2,0.31323,-0.37378,1.28345,-20.275,36.802,20.527
2026-05-22 16:31:58.800,1351058256,1844800,1,-0.25684,-0.09399,0.948,-0.29,23.176,-2.374
2026-05-22 16:31:58.800,1351058256,1844800,2,0.31372,-0.49878,1.22729,-25.565,16.74,8.0
2026-05-22 16:31:58.000,1351057456,1845000,1,-0.2312,-0.05029,0.79834,-3.931,-0.534,1.687
2026-05-22 16:31:58.000,1351057456,1845000,2,0.20044,-0.40332,1.15552,37.977,-6.977,-7.313
2026-05-22 16:31:58.200,1351057656,1845200,1,-0.3313,0.01831,0.79712,-6.252,-4.481,-5.45
2026-05-22 16:31:58.200,1351057656,1845200,2,0.41064,-0.35327,1.18018,42.702,-13.321,30.672
2026-05-22 16:31:58.400,1351057856,1845400,1,-0.23901,-0.01978,0.91528,-19.374,-12.122,3.588
2026-05-22 16:31:58.400,1351057856,1845400,2,0.32202,-0.50269,1.23999,-34.13,-31.618,5.305
2026-05-22 16:31:58.600,1351058056,1845600,1,-0.26514,-0.04175,0.78149,0.969,-1.84,-2.855
2026-05-22 16:31:58.600,1351058056,1845600,2,0.35571,-0.3667,1.24219,-11.153,-12.221,-1.427
2026-05-22 16:31:59.800,1351059256,1845800,1,-0.11523,-0.09717,0.74976,0.16,-3.618,0.817
2026-05-22 16:31:59.800,1351059256,1845800,2,0.41772,-0.4021,1.19971,-9.496,-1.916,9.954
2026-05-22 16:31:59.000,1351058456,1846000,1,-0.11548,-0.09888,0.81104,0.809,3.069,3.618
2026-05-22 16:31:59.000,1351058456,1846000,2,0.40894,-0.37915,1.23901,2.389,5.16,1.527
2026-05-22 16:31:59.200,1351058656,1846200,1,-0.11572,-0.06787,0.81372,5.13,12.214,3.641
2026-05-22 16:31:59.200,1351058656,1846200,2,0.41284,-0.4165,1.21533,-0.061,1.771,2.519
2026-05-22 16:31:59.400,1351058856,1846400,1,-0.22485,-0.0498,0.79761,6.725,15.466,-2.061
2026-05-22 16:31:59.400,1351058856,1846400,2,0.35718,-0.45728,1.18945,-12.13,8.885,10.519
2026-05-22 16:31:59.600,1351059056,1846600,1,-0.27661,-0.02075,0.87012,2.557,-8.924,-1.389
2026-05-22 16:31:59.600,1351059056,1846600,2,0.4104,-0.50098,1.18457,9.695,-5.893,-6.191
2026-05-22 16:32:00.800,1351060256,1846800,1,-0.34644,-0.02783,1.0625,-9.206,-32.252,9.29
2026-05-22 16:32:00.800,1351060256,1846800,2,0.35742,-0.56543,1.24438,15.878,-38.511,-30.099
2026-05-22 16:32:00.000,1351059456,1847000,1,-0.04053,-0.04883,0.77515,-5.26,-78.489,12.893
2026-05-22 16:32:00.000,1351059456,1847000,2,0.573,-0.21704,1.09351,50.527,-41.786,-42.656
2026-05-22 16:32:00.200,1351059656,1847200,1,0.28809,-0.09937,0.61377,-9.55,-39.649,-12.71
2026-05-22 16:32:00.200,1351059656,1847200,2,0.66919,0.04492,1.0376,23.168,-21.061,-18.389
2026-05-22 16:32:00.400,1351059856,1847400,1,0.47168,-0.11914,0.7168,-8.916,-25.527,-4.885
2026-05-22 16:32:00.400,1351059856,1847400,2,0.74976,0.052,0.95898,1.221,-5.275,-4.908
2026-05-22 16:32:00.600,1351060056,1847600,1,0.48438,-0.09692,0.81567,-1.55,-38.786,-15.191
2026-05-22 16:32:00.600,1351060056,1847600,2,0.83569,0.16138,0.96313,31.802,-21.466,-28.855
2026-05-22 16:32:01.800,1351061256,1847800,1,0.61743,-0.05591,0.63794,2.779,-50.405,-21.969
2026-05-22 16:32:01.800,1351061256,1847800,2,0.80225,0.31104,0.86475,30.962,-15.534,-26.977
2026-05-22 16:32:01.000,1351060456,1848000,1,0.78516,0.01099,0.47461,0.183,-40.137,-19.16
2026-05-22 16:32:01.000,1351060456,1848000,2,0.8064,0.38135,0.83252,12.924,-11.725,-19.802
2026-05-22 16:32:01.200,1351060656,1848200,1,0.86816,0.08228,0.43237,-10.336,-14.397,-19.183
2026-05-22 16:32:01.200,1351060656,1848200,2,0.7937,0.4646,0.79443,-8.366,-6.542,-10.046
2026-05-22 16:32:01.400,1351060856,1848400,1,0.87622,0.09424,0.43286,-13.634,-5.305,-15.328
2026-05-22 16:32:01.400,1351060856,1848400,2,0.79565,0.42969,0.7998,-7.702,-6.573,-6.542
2026-05-22 16:32:01.600,1351061056,1848600,1,0.85913,0.10132,0.41675,-5.84,1.214,-5.466
2026-05-22 16:32:01.600,1351061056,1848600,2,0.76855,0.44702,0.78052,-13.359,-3.908,-0.389
2026-05-22 16:32:02.800,1351062256,1848800,1,0.8335,0.0166,0.49414,-13.611,21.924,-11.099
2026-05-22 16:32:02.800,1351062256,1848800,2,0.79565,0.4353,0.80518,-9.107,13.359,9.992
2026-05-22 16:32:02.000,1351061456,1849000,1,0.81714,0.11475,0.52612,-13.748,-1.969,-2.611
2026-05-22 16:32:02.000,1351061456,1849000,2,0.79468,0.40698,0.84155,-6.16,-6.298,8.137
2026-05-22 16:32:02.200,1351061656,1849200,1,0.81079,-0.01733,0.52124,-15.794,2.985,-14.275
2026-05-22 16:32:02.200,1351061656,1849200,2,0.81714,0.36108,0.75879,-13.588,-1.092,1.672
2026-05-22 16:32:02.400,1351061856,1849400,1,0.81104,0.052,0.50171,-6.649,-2.756,-5.58
2026-05-22 16:32:02.400,1351061856,1849400,2,0.81323,0.37354,0.78613,-7.168,0.519,3.069
2026-05-22 16:32:02.600,1351062056,1849600,1,0.81494,0.05078,0.52637,-3.0,5.275,0.626
2026-05-22 16:32:02.600,1351062056,1849600,2,0.80737,0.3894,0.80542,-3.473,3.397,5.466
2026-05-22 16:32:03.800,1351063256,1849800,1,0.80322,0.04956,0.5271,-4.649,-0.695,-2.878
2026-05-22 16:32:03.800,1351063256,1849800,2,0.80908,0.38672,0.8186,-5.504,-1.45,0.13
2026-05-22 16:32:03.000,1351062456,1850000,1,0.80127,0.06592,0.49097,-0.008,6.107,0.336
2026-05-22 16:32:03.000,1351062456,1850000,2,0.81372,0.38452,0.82275,-8.779,3.29,4.176
2026-05-22 16:32:03.200,1351062656,1850200,1,0.78369,0.05273,0.5603,0.954,3.45,3.893
2026-05-22 16:32:03.200,1351062656,1850200,2,0.80933,0.36963,0.79834,2.55,-0.672,2.733
2026-05-22 16:32:03.400,1351062856,1850400,1,0.78613,0.04517,0.52856,0.099,-4.618,2.763
2026-05-22 16:32:03.400,1351062856,1850400,2,0.83105,0.37598,0.82251,-0.969,-2.595,0.817
2026-05-22 16:32:03.600,1351063056,1850600,1,0.80396,0.05737,0.51147,-0.45,3.595,0.908
2026-05-22 16:32:03.600,1351063056,1850600,2,0.82251,0.38843,0.79199,-7.0,2.779,4.908
2026-05-22 16:32:04.800,1351064256,1850800,1,0.77515,0.0415,0.55835,-3.603,4.137,-0.427
2026-05-22 16:32:04.800,1351064256,1850800,2,0.82788,0.37158,0.81836,-0.55,2.031,4.435
2026-05-22 16:32:04.000,1351063456,1851000,1,0.77124,0.02612,0.54395,-1.794,-2.427,0.649
2026-05-22 16:32:04.000,1351063456,1851000,2,0.81934,0.35742,0.81982,2.863,1.771,3.702
2026-05-22 16:32:04.200,1351063656,1851200,1,0.78394,0.02539,0.53809,-1.855,-1.183,1.145
2026-05-22 16:32:04.200,1351063656,1851200,2,0.82275,0.35376,0.81396,2.26,2.473,2.855
2026-05-22 16:32:04.400,1351063856,1851400,1,0.78857,0.01416,0.54077,-1.237,-0.015,-0.176
2026-05-22 16:32:04.400,1351063856,1851400,2,0.82031,0.35547,0.81934,1.565,0.824,0.42
2026-05-22 16:32:04.600,1351064056,1851600,1,0.78394,0.05127,0.52734,0.015,-1.198,-0.374
2026-05-22 16:32:04.600,1351064056,1851600,2,0.82642,0.37573,0.80225,1.763,1.885,1.443
2026-05-22 16:32:05.800,1351065256,1851800,1,0.79468,0.04614,0.52051,-0.656,0.733,1.985
2026-05-22 16:32:05.800,1351065256,1851800,2,0.82617,0.35327,0.80762,-4.863,-0.885,2.763
2026-05-22 16:32:05.000,1351064456,1852000,1,0.79468,0.04346,0.51855,3.206,2.74,3.389
2026-05-22 16:32:05.000,1351064456,1852000,2,0.81421,0.36768,0.79688,-1.046,1.13,2.939
2026-05-22 16:32:05.200,1351064656,1852200,1,0.65796,0.04028,0.47192,-0.542,-6.0,2.847
2026-05-22 16:32:05.200,1351064656,1852200,2,0.6814,0.23877,0.68115,-10.359,-1.412,2.588
2026-05-22 16:32:05.400,1351064856,1852400,1,0.7312,0.14966,0.36206,16.588,-7.542,12.992
2026-05-22 16:32:05.400,1351064856,1852400,2,0.68457,0.30469,0.80493,-4.718,-11.008,0.458
2026-05-22 16:32:05.600,1351065056,1852600,1,0.64282,0.03345,0.38403,17.855,8.779,7.275
2026-05-22 16:32:05.600,1351065056,1852600,2,0.92725,0.39429,0.77295,-27.847,7.053,30.214
2026-05-22 16:32:06.800,1351066256,1852800,1,0.88647,0.01733,0.67456,20.313,5.389,15.168
2026-05-22 16:32:06.800,1351066256,1852800,2,0.84741,0.46875,0.65283,49.649,-4.29,-8.687
2026-05-22 16:32:06.000,1351065456,1853000,1,1.05762,0.14526,0.45337,8.55,-45.221,-8.809
2026-05-22 16:32:06.000,1351065456,1853000,2,1.11816,0.55444,0.68579,24.481,-15.718,-0.076
2026-05-22 16:32:06.200,1351065656,1853200,1,1.22729,0.08008,0.09473,24.87,-26.214,13.069
2026-05-22 16:32:06.200,1351065656,1853200,2,0.91724,0.65747,0.80176,42.901,8.328,-9.344
2026-05-22 16:32:06.400,1351065856,1853400,1,1.03052,0.12939,0.25366,-17.786,9.229,-2.374
2026-05-22 16:32:06.400,1351065856,1853400,2,0.89478,0.58008,0.72119,-14.969,14.664,1.863
2026-05-22 16:32:06.600,1351066056,1853600,1,1.22729,0.10571,0.15747,-9.672,74.786,1.733
2026-05-22 16:32:06.600,1351066056,1853600,2,1.07202,0.56567,0.75269,-41.473,58.191,57.718
2026-05-22 16:32:07.800,1351067256,1853800,1,0.875,0.06738,0.89136,-9.634,42.252,2.672
2026-05-22 16:32:07.800,1351067256,1853800,2,0.88892,0.36475,0.90308,-38.511,5.107,3.313
2026-05-22 16:32:07.000,1351066456,1854000,1,0.79272,-0.01099,0.65723,-19.038,-20.992,-3.412
2026-05-22 16:32:07.000,1351066456,1854000,2,0.7251,0.32056,0.83911,-10.076,-24.847,-12.779
2026-05-22 16:32:07.200,1351066656,1854200,1,0.7124,0.00342,0.42603,-4.534,-57.26,-7.0
2026-05-22 16:32:07.200,1351066656,1854200,2,0.59937,0.38184,0.71631,37.489,-30.664,-29.076
2026-05-22 16:32:07.400,1351066856,1854400,1,0.65674,-0.01855,0.14722,6.687,-58.588,-7.702
2026-05-22 16:32:07.400,1351066856,1854400,2,0.6709,0.46582,0.53027,51.756,-39.504,-35.382
2026-05-22 16:32:07.600,1351067056,1854600,1,1.06689,0.13086,0.0625,-9.611,-43.924,-10.023
2026-05-22 16:32:07.600,1351067056,1854600,2,0.7522,0.62207,0.43628,19.267,-22.267,-14.58
2026-05-22 16:32:08.800,1351068256,1854800,1,1.09033,0.13086,0.07056,-8.069,12.947,-14.71
2026-05-22 16:32:08.800,1351068256,1854800,2,0.80469,0.58228,0.52393,-49.786,5.237,10.046
2026-05-22 16:32:08.000,1351067456,1855000,1,0.9519,0.19067,0.26367,-1.679,37.13,-6.42
2026-05-22 16:32:08.000,1351067456,1855000,2,0.66309,0.61035,0.5708,-12.718,24.359,-5.344
2026-05-22 16:32:08.200,1351067656,1855200,1,0.81177,0.43335,0.30054,-19.214,-17.038,1.382
2026-05-22 16:32:08.200,1351067656,1855200,2,0.50684,0.7688,0.61084,-23.061,-48.26,-10.687
2026-05-22 16:32:08.400,1351067856,1855400,1,1.08936,0.20361,0.03296,-68.122,-31.061,-0.687
2026-05-22 16:32:08.400,1351067856,1855400,2,1.06592,0.61938,0.55493,-35.427,-10.344,41.969
2026-05-22 16:32:08.600,1351068056,1855600,1,1.17285,-0.06201,0.03003,-70.16,0.038,-1.687
2026-05-22 16:32:08.600,1351068056,1855600,2,0.91577,0.4585,0.54858,-46.221,-34.641,19.901
2026-05-22 16:32:09.800,1351069256,1855800,1,1.00415,-0.0835,0.07642,-74.756,-5.382,-25.382
2026-05-22 16:32:09.800,1351069256,1855800,2,0.79492,0.50146,0.33789,-56.198,-44.145,1.061
2026-05-22 16:32:09.000,1351068456,1856000,1,1.0332,-0.07739,0.12329,-9.176,-16.527,-7.038
2026-05-22 16:32:09.000,1351068456,1856000,2,0.82056,0.54956,0.46069,28.458,-1.122,-1.137
2026-05-22 16:32:09.200,1351068656,1856200,1,0.98853,-0.01123,0.1272,11.321,-19.397,2.427
2026-05-22 16:32:09.200,1351068656,1856200,2,0.79858,0.62158,0.32349,18.595,2.275,-11.107
2026-05-22 16:32:09.400,1351068856,1856400,1,1.04468,-0.00415,0.05688,12.168,2.107,10.458
2026-05-22 16:32:09.400,1351068856,1856400,2,0.79639,0.62354,0.28979,34.267,15.153,19.076
2026-05-22 16:32:09.600,1351069056,1856600,1,1.05054,-0.06372,0.07739,25.076,-3.252,20.702
2026-05-22 16:32:09.600,1351069056,1856600,2,0.75879,0.59888,0.48022,42.802,20.885,-2.153
2026-05-22 16:32:10.800,1351070256,1856800,1,1.05176,-0.03198,0.0979,-0.901,-1.588,0.611
2026-05-22 16:32:10.800,1351070256,1856800,2,0.79761,0.56519,0.42944,2.58,3.908,6.977
2026-05-22 16:32:10.000,1351069456,1857000,1,1.0625,-0.04419,0.06714,-0.748,-1.763,-5.618
2026-05-22 16:32:10.000,1351069456,1857000,2,0.82251,0.58643,0.45679,10.366,-5.198,-10.359
2026-05-22 16:32:10.200,1351069656,1857200,1,1.04102,-0.0293,0.06323,-15.458,5.168,-5.824
2026-05-22 16:32:10.200,1351069656,1857200,2,0.80347,0.56641,0.40869,-29.466,-6.137,4.58
2026-05-22 16:32:10.400,1351069856,1857400,1,1.02661,-0.04175,0.12842,-23.298,10.786,-3.336
2026-05-22 16:32:10.400,1351069856,1857400,2,0.7749,0.56738,0.47998,-25.427,4.939,11.282
2026-05-22 16:32:10.600,1351070056,1857600,1,0.95483,-0.05396,0.13794,-13.901,4.695,-7.183
2026-05-22 16:32:10.600,1351070056,1857600,2,0.67285,0.53198,0.50195,30.45,-14.595,-3.267
2026-05-22 16:32:11.923,1351071379,1857923,1,1.00391,-0.08569,0.15918,15.046,-7.168,7.237
2026-05-22 16:32:11.923,1351071379,1857923,2,0.91821,0.81714,0.41821,61.435,-6.786,-0.405
2026-05-22 16:32:11.123,1351070579,1858123,1,1.06128,-0.09448,0.10645,75.427,-3.405,20.015
2026-05-22 16:32:11.123,1351070579,1858123,2,0.76099,0.64526,0.43604,84.145,39.229,-11.794
2026-05-22 16:32:11.323,1351070779,1858323,1,1.05664,0.00488,0.04712,52.809,-8.916,12.221
2026-05-22 16:32:11.323,1351070779,1858323,2,0.76538,0.62427,0.35229,43.328,18.122,-8.756
2026-05-22 16:32:11.523,1351070979,1858523,1,1.06006,0.02393,0.01782,9.344,-3.733,3.603
2026-05-22 16:32:11.523,1351070979,1858523,2,0.74023,0.65869,0.41211,2.099,-0.565,0.656
2026-05-22 16:32:12.723,1351072179,1858723,1,1.06104,0.00439,0.02954,-24.977,5.389,-7.198
2026-05-22 16:32:12.723,1351072179,1858723,2,0.72632,0.66064,0.35254,-26.359,-16.13,2.565
2026-05-22 16:32:12.923,1351072379,1858923,1,1.06079,0.0083,0.02271,-37.168,-3.611,-7.237
2026-05-22 16:32:12.923,1351072379,1858923,2,0.75342,0.64258,0.39209,-19.168,-20.168,5.679
2026-05-22 16:32:12.123,1351071579,1859123,1,1.07275,-0.00659,0.0022,-51.916,1.947,-14.092
2026-05-22 16:32:12.123,1351071579,1859123,2,0.74121,0.69043,0.38086,-47.618,-25.687,4.626
2026-05-22 16:32:12.323,1351071779,1859323,1,1.01685,0.01001,0.02856,-84.771,3.565,-23.74
2026-05-22 16:32:12.323,1351071779,1859323,2,0.75513,0.59424,0.36816,-84.13,-51.115,2.382
2026-05-22 16:32:12.523,1351071979,1859523,1,1.11646,-0.04004,0.00781,-54.382,-1.573,-26.885
2026-05-22 16:32:12.523,1351071979,1859523,2,0.8418,0.55054,0.39038,-24.458,-20.794,12.695
2026-05-22 16:32:13.723,1351073179,1859723,1,1.0542,-0.01416,0.06201,19.214,5.55,9.725
2026-05-22 16:32:13.723,1351073179,1859723,2,0.78906,0.6145,0.42188,40.969,22.802,0.58
2026-05-22 16:32:13.923,1351073379,1859923,1,1.03931,0.01587,0.06396,58.519,1.168,24.756
2026-05-22 16:32:13.923,1351073379,1859923,2,0.72852,0.6062,0.41284,67.794,13.611,-2.359
2026-05-22 16:32:13.123,1351072579,1860123,1,1.05811,-0.00952,0.02246,52.427,-3.718,20.71
2026-05-22 16:32:13.123,1351072579,1860123,2,0.76855,0.60522,0.36401,29.573,26.832,-3.626
2026-05-22 16:32:13.323,1351072779,1860323,1,1.06982,-0.04004,0.02026,30.557,-3.824,12.031
2026-05-22 16:32:13.323,1351072779,1860323,2,0.78516,0.63818,0.3772,18.74,19.58,0.305
2026-05-22 16:32:13.523,1351072979,1860523,1,1.052,-0.0415,0.00977,28.366,3.916,3.603
2026-05-22 16:32:13.523,1351072979,1860523,2,0.78345,0.61963,0.38989,3.87,17.252,3.237
2026-05-22 16:32:14.723,1351074179,1860723,1,1.05762,0.00269,0.05396,-8.962,2.878,-5.206
2026-05-22 16:32:14.723,1351074179,1860723,2,0.76953,0.62183,0.37573,-23.29,-7.275,5.198
2026-05-22 16:32:14.956,1351074412,1860956,1,1.04199,0.00952,0.05566,-53.588,3.87,-17.031
2026-05-22 16:32:14.956,1351074412,1860956,2,0.76221,0.60132,0.3999,-56.336,-28.305,7.824
2026-05-22 16:32:14.156,1351073612,1861156,1,1.04736,-0.02124,0.03271,-69.557,1.275,-21.473
2026-05-22 16:32:14.156,1351073612,1861156,2,0.81836,0.57349,0.4209,-64.191,-30.916,6.061
2026-05-22 16:32:14.356,1351073812,1861356,1,1.05054,-0.0271,0.07788,-34.771,6.595,-14.809
2026-05-22 16:32:14.356,1351073812,1861356,2,0.81714,0.55151,0.3562,-19.832,-7.824,1.0
2026-05-22 16:32:14.556,1351074012,1861556,1,1.01709,-0.02075,0.11572,9.359,-5.595,3.191
2026-05-22 16:32:14.556,1351074012,1861556,2,0.81885,0.5293,0.36841,25.908,1.656,-0.916
2026-05-22 16:32:15.756,1351075212,1861756,1,1.06323,-0.08032,0.06372,54.115,-18.038,16.198
2026-05-22 16:32:15.756,1351075212,1861756,2,0.83643,0.59644,0.34351,44.275,11.916,-20.595
2026-05-22 16:32:15.956,1351075412,1861956,1,1.05371,0.01099,-0.03809,78.985,28.55,28.206
2026-05-22 16:32:15.956,1351075412,1861956,2,0.771,0.60864,0.32397,96.443,64.87,-16.595
2026-05-22 16:32:15.156,1351074612,1862156,1,1.03271,0.01733,0.13354,58.687,12.26,24.817
2026-05-22 16:32:15.156,1351074612,1862156,2,0.75977,0.64087,0.38306,23.527,32.969,7.466
2026-05-22 16:32:15.356,1351074812,1862356,1,1.04272,0.04932,0.11768,-5.931,-17.565,5.939
2026-05-22 16:32:15.356,1351074812,1862356,2,0.7959,0.57935,0.45947,10.359,-5.824,10.389
2026-05-22 16:32:15.556,1351075012,1862556,1,1.00879,-0.06299,0.10938,-48.328,0.374,-18.221
2026-05-22 16:32:15.556,1351075012,1862556,2,0.75317,0.56909,0.40015,-39.275,-40.527,3.725
2026-05-22 16:32:16.756,1351076212,1862756,1,1.06226,-0.00952,0.07104,-67.046,-15.214,-16.153
2026-05-22 16:32:16.756,1351076212,1862756,2,0.83594,0.56567,0.40186,-32.267,-32.038,10.573
2026-05-22 16:32:16.956,1351076412,1862956,1,1.04663,-0.10059,0.04053,-39.573,7.084,-21.336
2026-05-22 16:32:16.956,1351076412,1862956,2,0.80103,0.55078,0.37036,-43.55,-7.779,4.962
2026-05-22 16:32:16.156,1351075612,1863156,1,1.05078,-0.03564,0.13037,-22.885,-13.16,-6.847
2026-05-22 16:32:16.156,1351075612,1863156,2,0.85742,0.55078,0.36328,4.275,-9.412,3.137
2026-05-22 16:32:16.356,1351075812,1863356,1,1.04517,-0.00317,0.08008,-18.916,14.344,-7.038
2026-05-22 16:32:16.356,1351075812,1863356,2,0.7959,0.55591,0.40112,-30.321,0.023,11.214
2026-05-22 16:32:16.556,1351076012,1863556,1,1.03247,-0.01685,0.08618,-5.191,6.725,4.725
2026-05-22 16:32:16.556,1351076012,1863556,2,0.90186,0.51343,0.4021,-11.275,-6.649,0.947
2026-05-22 16:32:17.756,1351077212,1863756,1,1.02661,-0.03638,0.12891,-1.221,8.611,4.664
2026-05-22 16:32:17.756,1351077212,1863756,2,0.76807,0.44556,0.50098,-7.008,6.099,12.389
2026-05-22 16:32:17.956,1351077412,1863956,1,0.99341,-0.09448,0.08765,-25.0,10.145,6.412
2026-05-22 16:32:17.956,1351077412,1863956,2,1.05151,0.84863,0.49854,79.084,-28.824,37.542
2026-05-22 16:32:17.156,1351076612,1864156,1,1.04321,-0.06982,0.08862,17.519,0.595,9.588
2026-05-22 16:32:17.156,1351076612,1864156,2,0.81714,0.65991,0.58765,11.595,4.786,3.748
2026-05-22 16:32:17.356,1351076812,1864356,1,1.05151,-0.09888,0.11694,14.321,1.473,4.122
2026-05-22 16:32:17.356,1351076812,1864356,2,0.63672,0.28931,0.50073,42.885,-19.427,1.763
2026-05-22 16:32:17.556,1351077012,1864556,1,1.05688,-0.05127,0.11108,2.015,-12.366,-0.031
2026-05-22 16:32:17.556,1351077012,1864556,2,0.81836,0.50073,0.49585,1.183,-5.481,-6.313
2026-05-22 16:32:18.756,1351078212,1864756,1,1.05249,-0.10547,0.0791,-1.038,0.817,-8.031
2026-05-22 16:32:18.756,1351078212,1864756,2,0.83594,0.50659,0.44434,-8.679,0.473,-2.817
2026-05-22 16:32:18.956,1351078412,1864956,1,1.03735,-0.03613,0.13062,11.344,-1.198,-6.084
2026-05-22 16:32:18.956,1351078412,1864956,2,0.82495,0.49927,0.46924,23.878,14.046,1.786
2026-05-22 16:32:18.156,1351077612,1865156,1,1.05737,-0.02441,0.08398,22.122,6.038,6.374
2026-05-22 16:32:18.156,1351077612,1865156,2,0.80151,0.58911,0.44214,15.878,7.702,-0.076
2026-05-22 16:32:18.356,1351077812,1865356,1,1.03027,-0.05127,0.11328,14.107,-1.969,3.015
2026-05-22 16:32:18.356,1351077812,1865356,2,0.81714,0.54736,0.41382,8.588,5.779,2.832
2026-05-22 16:32:18.556,1351078012,1865556,1,1.01709,0.00684,0.14502,-17.176,0.74,-9.679
2026-05-22 16:32:18.556,1351078012,1865556,2,0.8291,0.54028,0.50977,-20.321,-13.634,3.924
2026-05-22 16:32:19.756,1351079212,1865756,1,1.0332,-0.02588,0.125,-23.855,1.969,-6.924
2026-05-22 16:32:19.756,1351079212,1865756,2,0.83447,0.51196,0.41553,-16.573,-5.611,3.366
2026-05-22 16:32:19.956,1351079412,1865956,1,1.04443,-0.01392,0.12646,-20.015,-2.656,-11.496
2026-05-22 16:32:19.956,1351079412,1865956,2,0.81738,0.50342,0.42725,-16.496,-6.0,3.511
2026-05-22 16:32:19.156,1351078612,1866156,1,1.05908,-0.03198,0.08667,-14.275,-14.855,-0.206
2026-05-22 16:32:19.156,1351078612,1866156,2,0.89209,0.4751,0.38892,-2.756,4.519,-0.985
2026-05-22 16:32:19.356,1351078812,1866356,1,1.17603,-0.07129,0.02637,28.603,-5.863,4.794
2026-05-22 16:32:19.356,1351078812,1866356,2,0.85034,0.45923,0.32104,-10.198,24.954,17.885
2026-05-22 16:32:19.556,1351079012,1866556,1,1.07251,-0.07715,0.06836,9.588,-2.756,8.366
2026-05-22 16:32:19.556,1351079012,1866556,2,0.85376,0.48608,0.29639,-21.496,20.916,15.458
2026-05-22 16:32:20.756,1351080212,1866756,1,1.07642,-0.03833,0.06543,23.107,6.305,8.168
2026-05-22 16:32:20.756,1351080212,1866756,2,0.84448,0.52246,0.43774,21.176,19.519,18.137
2026-05-22 16:32:20.956,1351080412,1866956,1,1.03296,0.01123,0.09863,-23.496,-5.137,1.137
2026-05-22 16:32:20.956,1351080412,1866956,2,0.84229,0.54395,0.50684,-24.084,-10.626,3.71
2026-05-22 16:32:20.156,1351079612,1867156,1,1.03711,-0.05396,0.10547,-33.305,-6.649,5.557
2026-05-22 16:32:20.156,1351079612,1867156,2,0.85303,0.46631,0.47021,3.992,-9.649,5.481
2026-05-22 16:32:20.356,1351079812,1867356,1,1.12793,-0.12012,0.0022,-10.748,11.382,9.137
2026-05-22 16:32:20.356,1351079812,1867356,2,0.91113,0.54517,0.46997,-22.237,12.053,25.817
2026-05-22 16:32:20.556,1351080012,1867556,1,0.99951,-0.1853,0.15186,-23.695,19.405,2.015
2026-05-22 16:32:20.556,1351080012,1867556,2,0.83594,0.33081,0.36987,-8.809,6.336,17.847
2026-05-22 16:32:21.756,1351081212,1867756,1,0.97876,-0.2959,0.15601,5.527,-6.351,9.618
2026-05-22 16:32:21.756,1351081212,1867756,2,0.95825,0.42285,0.39868,25.611,7.496,-11.26
2026-05-22 16:32:21.956,1351081412,1867956,1,0.90015,-0.24463,0.22046,14.405,6.336,-8.985
2026-05-22 16:32:21.956,1351081412,1867956,2,0.96338,0.40186,0.45215,5.878,-1.183,-16.794
2026-05-22 16:32:21.156,1351080612,1868156,1,1.00171,-0.13647,0.177,47.672,7.435,-1.626
2026-05-22 16:32:21.156,1351080612,1868156,2,0.85303,0.37793,0.52563,39.985,43.107,2.267
2026-05-22 16:32:21.356,1351080812,1868356,1,0.95776,-0.00854,0.35327,77.137,5.603,-1.275
2026-05-22 16:32:21.356,1351080812,1868356,2,0.86157,0.46484,0.68213,57.534,46.573,-10.374
2026-05-22 16:32:21.556,1351081012,1868556,1,0.93359,0.2063,0.28418,65.496,21.748,-2.924
2026-05-22 16:32:21.556,1351081012,1868556,2,0.65747,0.6106,0.64526,51.145,32.16,-18.74
2026-05-22 16:32:22.756,1351082212,1868756,1,0.96021,0.32446,0.27222,36.382,7.198,2.046
2026-05-22 16:32:22.756,1351082212,1868756,2,0.67896,0.65625,0.74292,31.534,19.321,-2.893
2026-05-22 16:32:22.956,1351082412,1868956,1,0.85034,0.36963,0.29297,-9.794,-17.519,12.366
2026-05-22 16:32:22.956,1351082412,1868956,2,0.65259,0.65308,0.64697,24.725,-19.443,-6.641
2026-05-22 16:32:22.156,1351081612,1869156,1,1.01831,0.06567,0.00171,-82.74,-20.29,18.58
2026-05-22 16:32:22.156,1351081612,1869156,2,0.45703,0.66895,0.3916,-8.153,-44.779,-7.069
2026-05-22 16:32:22.356,1351081812,1869356,1,1.01611,-0.03564,0.14111,-68.038,-13.481,-8.695
2026-05-22 16:32:22.356,1351081812,1869356,2,0.82886,0.57422,0.3313,-48.672,-39.908,9.427
2026-05-22 16:32:22.556,1351082012,1869556,1,1.06982,-0.03687,0.10376,-74.42,-1.649,-11.412
2026-05-22 16:32:22.556,1351082012,1869556,2,0.94507,0.48486,0.44702,-71.473,-28.137,11.061
2026-05-22 16:32:23.756,1351083212,1869756,1,1.02734,-0.19971,0.11572,-45.42,8.603,-6.298
2026-05-22 16:32:23.756,1351083212,1869756,2,0.9021,0.39014,0.23999,-9.931,-6.985,10.542
2026-05-22 16:32:23.956,1351083412,1869956,1,1.03516,-0.18604,0.12134,-14.008,6.42,-0.733
2026-05-22 16:32:23.956,1351083412,1869956,2,0.91382,0.3186,0.40601,8.565,12.565,-3.092
2026-05-22 16:32:23.156,1351082612,1870156,1,0.94214,-0.25488,0.14697,43.244,-6.275,-1.168
2026-05-22 16:32:23.156,1351082612,1870156,2,0.82764,0.41138,0.29272,51.992,29.092,-29.756
2026-05-22 16:32:23.356,1351082812,1870356,1,0.96338,0.10278,0.09033,77.336,16.359,-17.473
2026-05-22 16:32:23.356,1351082812,1870356,2,0.68994,0.26294,0.55664,13.519,22.031,-10.344
2026-05-22 16:32:23.556,1351083012,1870556,1,0.97705,0.15649,0.17651,67.626,26.962,11.298
2026-05-22 16:32:23.556,1351083012,1870556,2,0.83984,0.60059,0.57373,54.603,59.206,2.649
2026-05-22 16:32:24.756,1351084212,1870756,1,0.97168,0.32275,0.20068,76.832,30.496,4.84
2026-05-22 16:32:24.756,1351084212,1870756,2,0.66479,0.63403,0.65918,32.641,45.359,-9.359
2026-05-22 16:32:24.956,1351084412,1870956,1,0.88232,0.41309,0.26025,27.252,15.046,7.267
2026-05-22 16:32:24.956,1351084412,1870956,2,0.6709,0.68164,0.6875,2.26,11.168,3.023
2026-05-22 16:32:24.156,1351083612,1871156,1,0.90283,0.41748,0.271,-21.573,-4.313,-1.534
2026-05-22 16:32:24.156,1351083612,1871156,2,0.62402,0.67383,0.67578,-26.008,-21.58,0.672
2026-05-22 16:32:24.356,1351083812,1871356,1,0.8147,0.34619,0.25464,-49.252,-19.595,-6.45
2026-05-22 16:32:24.356,1351083812,1871356,2,1.10522,0.50098,0.69702,-40.244,-12.099,37.802
2026-05-22 16:32:24.556,1351084012,1871556,1,1.00854,0.07104,0.19263,-36.214,-13.947,-1.313
2026-05-22 16:32:24.556,1351084012,1871556,2,0.78735,0.50684,0.58472,-40.786,-31.0,-3.969
2026-05-22 16:32:25.756,1351085212,1871756,1,1.00854,-0.02515,0.22437,-30.252,-6.229,-2.282
2026-05-22 16:32:25.756,1351085212,1871756,2,0.87329,0.41943,0.53149,-2.038,-5.901,4.137
2026-05-22 16:32:25.261,1351084717,1872261,1,0.98828,0.09131,0.25391,6.588,2.947,4.573
2026-05-22 16:32:25.261,1351084717,1872261,2,0.80884,0.50366,0.6272,9.557,6.45,4.168
2026-05-22 16:32:25.510,1351084966,1872510,1,0.97021,0.10864,0.25977,-4.344,-3.71,-2.397
2026-05-22 16:32:25.510,1351084966,1872510,2,0.80713,0.5459,0.54224,-8.305,-1.809,-0.153
2026-05-22 16:32:26.710,1351086166,1872710,1,0.99878,0.1123,0.21631,-6.351,-4.145,-7.992
2026-05-22 16:32:26.710,1351086166,1872710,2,0.85254,0.49854,0.56689,-13.374,-8.573,0.168
2026-05-22 16:32:26.910,1351086366,1872910,1,0.96997,0.18042,0.24072,-12.74,-6.664,-5.031
2026-05-22 16:32:26.910,1351086366,1872910,2,0.79224,0.55444,0.54932,-29.901,-5.229,1.244
2026-05-22 16:32:26.110,1351085566,1873110,1,0.99658,0.10962,0.19458,-13.328,-3.29,-10.87
2026-05-22 16:32:26.110,1351085566,1873110,2,0.83179,0.50879,0.51465,-13.756,-5.015,6.267
2026-05-22 16:32:26.310,1351085766,1873310,1,1.01172,0.09717,0.19189,-5.137,-2.771,-2.511
2026-05-22 16:32:26.310,1351085766,1873310,2,0.83936,0.50439,0.53149,-6.382,1.42,2.076
2026-05-22 16:32:26.510,1351085966,1873510,1,0.99048,0.15259,0.19116,-0.809,-2.664,-4.351
2026-05-22 16:32:26.510,1351085966,1873510,2,0.80957,0.54639,0.51099,-8.374,-7.275,1.092
2026-05-22 16:32:27.710,1351087166,1873710,1,0.99585,0.14209,0.17114,-20.786,-6.985,-10.252
2026-05-22 16:32:27.710,1351087166,1873710,2,0.8147,0.54004,0.43384,-22.504,-13.16,-0.046
2026-05-22 16:32:27.910,1351087366,1873910,1,1.02881,0.11475,0.14038,-19.313,-8.443,-3.878
2026-05-22 16:32:27.910,1351087366,1873910,2,0.8208,0.53223,0.37158,5.435,-6.351,-1.344
2026-05-22 16:32:27.110,1351086566,1874110,1,1.02393,0.09229,0.15112,6.206,0.366,6.366
2026-05-22 16:32:27.110,1351086566,1874110,2,0.97192,0.50415,0.44067,-26.733,6.702,16.466
2026-05-22 16:32:27.310,1351086766,1874310,1,1.02173,0.12036,0.12134,-8.397,-9.122,4.511
2026-05-22 16:32:27.310,1351086766,1874310,2,0.83594,0.53638,0.37671,-14.427,-5.191,4.748
2026-05-22 16:32:27.510,1351086966,1874510,1,1.0415,0.07544,0.09058,-4.351,-3.313,4.29
2026-05-22 16:32:27.510,1351086966,1874510,2,0.84668,0.51563,0.39648,-4.084,-0.107,1.779
2026-05-22 16:32:28.710,1351088166,1874710,1,1.0481,0.06494,0.1001,8.313,0.832,1.74
2026-05-22 16:32:28.710,1351088166,1874710,2,0.82446,0.52612,0.38721,0.71,5.992,-1.374
2026-05-22 16:32:28.910,1351088366,1874910,1,1.03638,0.09351,0.09399,5.656,2.344,-0.557
2026-05-22 16:32:28.910,1351088366,1874910,2,0.8335,0.5271,0.40161,-0.718,5.275,1.435
2026-05-22 16:32:28.110,1351087566,1875110,1,1.01025,0.08789,0.11011,6.244,8.595,-2.069
2026-05-22 16:32:28.110,1351087566,1875110,2,0.82617,0.53564,0.39478,-7.267,7.412,-2.809
2026-05-22 16:32:28.310,1351087766,1875310,1,1.02124,0.11865,0.16553,-17.038,5.16,-5.519
2026-05-22 16:32:28.310,1351087766,1875310,2,0.82129,0.53613,0.41724,-21.084,0.855,7.458
2026-05-22 16:32:28.510,1351087966,1875510,1,0.98779,0.1145,0.16724,-15.366,-1.878,-2.55
2026-05-22 16:32:28.510,1351087966,1875510,2,0.8147,0.51416,0.43677,-15.008,-9.824,-0.328
2026-05-22 16:32:29.710,1351089166,1875710,1,1.00049,0.09473,0.12842,-42.786,-11.382,-4.924
2026-05-22 16:32:29.710,1351089166,1875710,2,0.8252,0.51953,0.42554,-31.481,-23.626,-2.947
2026-05-22 16:32:29.910,1351089366,1875910,1,1.02808,0.07471,0.09961,-48.305,-11.519,-18.588
2026-05-22 16:32:29.910,1351089366,1875910,2,0.87598,0.52563,0.30566,-44.13,-31.267,6.687
2026-05-22 16:32:29.110,1351088566,1876110,1,1.05151,0.05615,0.06445,-39.183,-12.573,-8.817
2026-05-22 16:32:29.110,1351088566,1876110,2,0.87964,0.4707,0.34961,-14.656,-12.573,11.603
2026-05-22 16:32:29.310,1351088766,1876310,1,1.05151,0.05249,0.04663,-9.74,-8.595,-0.092
2026-05-22 16:32:29.310,1351088766,1876310,2,0.84595,0.42676,0.32202,11.298,-4.015,3.191
2026-05-22 16:32:29.510,1351088966,1876510,1,1.10278,-0.01074,0.021,28.252,1.29,6.13
2026-05-22 16:32:29.510,1351088966,1876510,2,0.86108,0.46094,0.29785,42.45,18.908,-7.183
2026-05-22 16:32:30.710,1351090166,1876710,1,1.06641,0.07446,0.00537,53.45,4.16,12.947
2026-05-22 16:32:30.710,1351090166,1876710,2,0.86157,0.46411,0.36011,38.366,31.725,-4.863
2026-05-22 16:32:30.910,1351090366,1876910,1,1.06543,0.08252,0.04565,43.71,11.458,3.962
2026-05-22 16:32:30.910,1351090366,1876910,2,0.85889,0.49609,0.41089,22.626,29.74,-7.443
2026-05-22 16:32:30.110,1351089566,1877110,1,1.01831,0.09595,0.12109,42.962,11.061,-3.466
2026-05-22 16:32:30.110,1351089566,1877110,2,0.82227,0.54248,0.46924,23.573,27.397,-13.756
2026-05-22 16:32:30.310,1351089766,1877310,1,1.02393,0.24438,0.07886,30.794,16.13,-3.595
2026-05-22 16:32:30.310,1351089766,1877310,2,0.86255,0.55469,0.53125,8.435,19.061,-2.389
2026-05-22 16:32:30.510,1351089966,1877510,1,0.96021,0.21606,0.19922,-27.008,22.901,-22.267
2026-05-22 16:32:30.510,1351089966,1877510,2,0.77783,0.52905,0.5293,-35.756,-4.786,-0.061
2026-05-22 16:32:31.710,1351091166,1877710,1,0.95801,0.17896,0.23364,-32.496,3.534,-11.137
2026-05-22 16:32:31.710,1351091166,1877710,2,0.81445,0.50928,0.53125,-24.664,-9.985,-1.038
2026-05-22 16:32:31.930,1351091386,1877930,1,0.94604,0.14819,0.24951,-16.489,-7.916,-1.901
2026-05-22 16:32:31.930,1351091386,1877930,2,0.84497,0.49854,0.56152,-9.87,-13.122,-3.389
2026-05-22 16:32:31.130,1351090586,1878130,1,0.98218,0.15381,0.21021,-8.695,-5.656,-2.985
2026-05-22 16:32:31.130,1351090586,1878130,2,0.83276,0.52539,0.55176,0.26,-3.008,1.55
2026-05-22 16:32:31.330,1351090786,1878330,1,0.96655,0.15991,0.21606,-10.985,-0.649,-6.695
2026-05-22 16:32:31.330,1351090786,1878330,2,0.86304,0.49438,0.55469,1.763,-3.374,2.26
2026-05-22 16:32:31.530,1351090986,1878530,1,0.95654,0.1814,0.27588,-0.031,-10.603,11.206
2026-05-22 16:32:31.530,1351090986,1878530,2,0.79736,0.46826,0.55151,7.878,-13.252,5.053
2026-05-22 16:32:32.730,1351092186,1878730,1,0.99902,0.0752,0.18652,-15.832,-12.412,8.473
2026-05-22 16:32:32.730,1351092186,1878730,2,0.86792,0.47803,0.4939,-7.481,-16.244,-2.176
2026-05-22 16:32:32.930,1351092386,1878930,1,1.03174,0.06201,0.14136,-18.916,-13.84,-3.107
2026-05-22 16:32:32.930,1351092386,1878930,2,0.86743,0.46777,0.46899,-2.924,-12.504,1.344
2026-05-22 16:32:32.130,1351091586,1879130,1,1.02417,0.07715,0.13354,-11.336,-4.962,-4.137
2026-05-22 16:32:32.130,1351091586,1879130,2,0.86963,0.45117,0.44678,-6.298,-6.267,1.0
2026-05-22 16:32:32.330,1351091786,1879330,1,1.04468,0.08862,0.11938,-10.634,-0.824,-2.305
2026-05-22 16:32:32.330,1351091786,1879330,2,0.86182,0.45776,0.44409,-0.71,-2.031,2.901
2026-05-22 16:32:32.530,1351091986,1879530,1,1.03784,0.08105,0.13208,2.473,3.29,-2.84
2026-05-22 16:32:32.530,1351091986,1879530,2,0.87231,0.44897,0.46216,-3.817,4.099,-2.534
2026-05-22 16:32:33.730,1351093186,1879730,1,1.02515,0.10229,0.14526,13.427,6.908,5.099
2026-05-22 16:32:33.730,1351093186,1879730,2,0.86157,0.4873,0.46118,9.481,12.908,-1.176
2026-05-22 16:32:33.930,1351093386,1879930,1,1.0144,0.06738,0.13184,20.649,5.382,4.29
2026-05-22 16:32:33.930,1351093386,1879930,2,0.87402,0.46484,0.46753,10.954,15.42,-1.863
2026-05-22 16:32:33.130,1351092586,1880130,1,1.08716,-0.03003,0.05835,51.374,10.58,-6.076
2026-05-22 16:32:33.130,1351092586,1880130,2,0.9165,0.39478,0.41089,34.748,41.382,-1.809
2026-05-22 16:32:33.330,1351092786,1880330,1,1.04199,0.17822,0.03247,105.26,45.771,27.893
2026-05-22 16:32:33.330,1351092786,1880330,2,0.84106,0.43945,0.51294,65.084,86.748,3.71
2026-05-22 16:32:33.530,1351092986,1880530,1,0.91992,0.42603,0.25439,95.298,51.695,31.29
2026-05-22 16:32:33.530,1351092986,1880530,2,0.57739,0.59351,0.67065,36.527,69.214,25.71
2026-05-22 16:32:34.730,1351094186,1880730,1,0.92236,0.46265,0.24146,32.702,-3.962,19.038
2026-05-22 16:32:34.730,1351094186,1880730,2,0.65039,0.55371,0.72778,4.015,1.573,28.824
2026-05-22 16:32:34.930,1351094386,1880930,1,0.90283,0.1001,0.31201,30.198,13.092,15.588
2026-05-22 16:32:34.930,1351094386,1880930,2,0.90698,0.39282,0.7207,-1.511,28.618,14.885
2026-05-22 16:32:34.130,1351093586,1881130,1,0.88208,0.05615,0.19824,59.397,-2.832,26.183
2026-05-22 16:32:34.130,1351093586,1881130,2,0.84937,0.3811,0.60181,53.641,10.435,7.046
2026-05-22 16:32:34.330,1351093786,1881330,1,0.92651,0.34326,0.18359,18.084,-0.351,-1.901
2026-05-22 16:32:34.330,1351093786,1881330,2,0.67651,0.46509,0.63013,-36.855,-9.122,15.321
2026-05-22 16:32:34.530,1351093986,1881530,1,1.04443,0.30444,0.13843,30.748,8.13,21.473
2026-05-22 16:32:34.530,1351093986,1881530,2,0.84692,0.56152,0.39941,-9.107,25.183,12.817
2026-05-22 16:32:35.730,1351095186,1881730,1,1.01465,0.26196,0.12793,22.786,-1.13,15.237
2026-05-22 16:32:35.730,1351095186,1881730,2,0.79053,0.61475,0.57886,6.061,6.351,7.626
2026-05-22 16:32:35.930,1351095386,1881930,1,0.89038,0.20166,0.15771,4.305,-8.366,-1.672
2026-05-22 16:32:35.930,1351095386,1881930,2,1.0249,0.64185,0.49243,35.321,1.481,-1.489
2026-05-22 16:32:35.130,1351094586,1882130,1,0.99512,0.2063,0.08569,-10.405,-0.443,-6.092
2026-05-22 16:32:35.130,1351094586,1882130,2,0.83496,0.5188,0.55273,3.916,11.58,12.244
2026-05-22 16:32:35.330,1351094786,1882330,1,0.98975,0.23438,0.15454,0.779,8.237,-1.198
2026-05-22 16:32:35.330,1351094786,1882330,2,0.80762,0.59961,0.45947,-16.305,-0.252,2.679
2026-05-22 16:32:35.530,1351094986,1882530,1,0.99585,0.23975,0.13135,-9.84,-1.756,-1.145
2026-05-22 16:32:35.530,1351094986,1882530,2,0.81396,0.552,0.4895,-8.023,-2.13,3.87
2026-05-22 16:32:36.730,1351096186,1882730,1,0.98682,0.19604,0.15649,-7.389,-3.481,0.191
2026-05-22 16:32:36.730,1351096186,1882730,2,0.81372,0.55396,0.47314,1.191,-0.985,2.206
2026-05-22 16:32:36.930,1351096386,1882930,1,1.00122,0.21387,0.1272,-1.885,-3.992,-0.908
2026-05-22 16:32:36.930,1351096386,1882930,2,0.80518,0.56128,0.48486,-1.466,-0.885,0.053
2026-05-22 16:32:36.130,1351095586,1883130,1,1.00513,0.22192,0.11597,-3.672,-1.137,-4.145
2026-05-22 16:32:36.130,1351095586,1883130,2,0.81763,0.55908,0.47314,-2.496,-0.13,1.107
2026-05-22 16:32:36.330,1351095786,1883330,1,1.0022,0.23999,0.11719,-2.817,1.122,-3.229
2026-05-22 16:32:36.330,1351095786,1883330,2,0.8064,0.56836,0.44922,-3.282,0.107,0.489
2026-05-22 16:32:36.530,1351095986,1883530,1,0.98804,0.24194,0.12549,-2.015,-0.122,0.71
2026-05-22 16:32:36.530,1351095986,1883530,2,0.80664,0.56348,0.46289,1.137,1.542,1.351
2026-05-22 16:32:37.730,1351097186,1883730,1,1.0022,0.22339,0.11523,-1.145,0.046,1.748
2026-05-22 16:32:37.730,1351097186,1883730,2,0.80591,0.56494,0.4436,-0.443,1.053,2.885
2026-05-22 16:32:37.930,1351097386,1883930,1,1.01831,0.19019,0.10327,2.176,3.45,-0.527
2026-05-22 16:32:37.930,1351097386,1883930,2,0.80371,0.55151,0.44141,1.16,6.183,-0.565
2026-05-22 16:32:37.130,1351096586,1884130,1,0.99707,0.25586,0.11328,25.985,7.275,12.29
2026-05-22 16:32:37.130,1351096586,1884130,2,0.80396,0.55444,0.46924,21.176,17.977,2.511
2026-05-22 16:32:37.330,1351096786,1884330,1,1.00537,0.23022,0.1311,11.275,-2.336,14.695
2026-05-22 16:32:37.330,1351096786,1884330,2,0.80615,0.60034,0.4812,2.679,-2.435,1.832
2026-05-22 16:32:37.530,1351096986,1884530,1,1.00659,0.2002,0.10962,-1.626,0.382,-1.809
2026-05-22 16:32:37.530,1351096986,1884530,2,0.80762,0.56665,0.46509,-1.573,-0.008,0.893
2026-05-22 16:32:38.730,1351098186,1884730,1,1.01807,0.21362,0.08984,-5.847,1.672,-3.389
2026-05-22 16:32:38.730,1351098186,1884730,2,0.81152,0.57666,0.45898,-6.031,0.42,3.878
2026-05-22 16:32:38.930,1351098386,1884930,1,0.99243,0.21069,0.13184,-8.336,4.374,-3.061
2026-05-22 16:32:38.930,1351098386,1884930,2,0.80103,0.55566,0.49146,-7.58,1.809,3.382
2026-05-22 16:32:38.130,1351097586,1885130,1,0.99097,0.20947,0.15503,-5.351,-1.748,-1.863
2026-05-22 16:32:38.130,1351097586,1885130,2,0.80811,0.55469,0.49268,3.366,0.45,1.374
2026-05-22 16:32:38.330,1351097786,1885330,1,1.00488,0.21143,0.13794,-4.16,-1.855,-0.443
2026-05-22 16:32:38.330,1351097786,1885330,2,0.81421,0.54858,0.47388,-0.382,-1.137,1.099
2026-05-22 16:32:38.530,1351097986,1885530,1,1.01416,0.19702,0.12183,-0.863,0.504,2.824
2026-05-22 16:32:38.530,1351097986,1885530,2,0.83105,0.54517,0.45435,-2.168,1.962,2.374
2026-05-22 16:32:39.730,1351099186,1885730,1,1.01147,0.18799,0.12378,3.015,1.893,3.718
2026-05-22 16:32:39.730,1351099186,1885730,2,0.82153,0.55078,0.47168,0.969,3.908,1.779
2026-05-22 16:32:39.930,1351099386,1885930,1,1.01245,0.19922,0.11426,-1.427,2.695,0.534
2026-05-22 16:32:39.930,1351099386,1885930,2,0.81299,0.56006,0.50903,-3.382,0.863,2.26
2026-05-22 16:32:39.130,1351098586,1886130,1,1.00342,0.19775,0.14331,4.855,2.466,-1.42
2026-05-22 16:32:39.130,1351098586,1886130,2,0.83618,0.54492,0.49341,2.748,8.71,0.137
2026-05-22 16:32:39.330,1351098786,1886330,1,1.00171,0.1936,0.14771,2.176,-2.679,9.542
2026-05-22 16:32:39.330,1351098786,1886330,2,0.80908,0.57764,0.50024,3.443,-4.305,3.412
2026-05-22 16:32:39.530,1351098986,1886530,1,1.0,0.16528,0.13965,-1.924,-3.076,-2.45
2026-05-22 16:32:39.530,1351098986,1886530,2,0.82129,0.54468,0.49023,-1.305,-0.924,-3.969
2026-05-22 16:32:40.730,1351100186,1886730,1,0.99365,0.2124,0.11572,-7.611,1.13,-6.733
2026-05-22 16:32:40.730,1351100186,1886730,2,0.79077,0.57886,0.47241,-9.137,-3.534,-0.611
2026-05-22 16:32:40.930,1351100386,1886930,1,1.11206,0.22559,0.10889,-13.733,-1.244,-3.267
2026-05-22 16:32:40.930,1351100386,1886930,2,0.65381,0.68774,0.49097,-25.992,-5.427,-3.954
2026-05-22 16:32:40.130,1351099586,1887130,1,0.97559,0.33838,0.06812,-33.824,-11.427,-11.412
2026-05-22 16:32:40.130,1351099586,1887130,2,0.81177,0.62524,0.55518,-13.458,-37.366,-5.786
2026-05-22 16:32:40.330,1351099786,1887330,1,0.97705,0.29395,0.04712,-36.908,-21.74,3.42
2026-05-22 16:32:40.330,1351099786,1887330,2,0.98999,0.44629,0.54248,-39.382,-17.985,37.893
2026-05-22 16:32:40.530,1351099986,1887530,1,1.05127,0.13867,0.10327,-8.809,33.107,21.351
2026-05-22 16:32:40.530,1351099986,1887530,2,0.94604,0.59399,0.41699,-62.031,-11.267,-17.206
2026-05-22 16:32:41.730,1351101186,1887730,1,1.10571,-0.03271,0.01685,-65.809,-2.191,-5.466
2026-05-22 16:32:41.730,1351101186,1887730,2,0.75439,0.43091,0.57837,-67.122,-24.42,1.84
2026-05-22 16:32:41.930,1351101386,1887930,1,1.07275,-0.07813,0.2207,-75.305,19.336,-23.046
2026-05-22 16:32:41.930,1351101386,1887930,2,0.85864,0.30933,0.45898,-74.519,-27.771,33.58
2026-05-22 16:32:41.130,1351100586,1888130,1,1.0481,-0.17871,0.17114,-52.466,-13.412,-33.244
2026-05-22 16:32:41.130,1351100586,1888130,2,0.91577,0.37134,0.44824,-19.962,-15.656,1.137
2026-05-22 16:32:41.330,1351100786,1888330,1,0.98901,-0.06812,0.18604,-15.313,-19.206,-32.466
2026-05-22 16:32:41.330,1351100786,1888330,2,0.92529,0.61938,0.56299,-36.115,8.809,-53.626
2026-05-22 16:32:41.530,1351100986,1888530,1,1.06299,0.41309,0.12378,-48.298,-15.42,-41.908
2026-05-22 16:32:41.530,1351100986,1888530,2,0.875,0.91406,0.75122,-4.954,-20.26,-17.939
2026-05-22 16:32:42.730,1351102186,1888730,1,1.01392,0.32886,0.05298,-16.947,-17.183,-17.473
2026-05-22 16:32:42.730,1351102186,1888730,2,0.81128,0.73193,0.53052,6.168,-4.634,-14.435
2026-05-22 16:32:42.930,1351102386,1888930,1,0.927,0.39746,0.10425,-9.183,9.405,-18.481
2026-05-22 16:32:42.930,1351102386,1888930,2,0.65088,0.6936,0.49365,-2.809,-13.725,11.466
2026-05-22 16:32:42.130,1351101586,1889130,1,0.88354,0.48071,0.16748,-26.71,-13.427,0.84
2026-05-22 16:32:42.130,1351101586,1889130,2,0.78076,0.64966,0.46533,-6.695,-24.023,7.603
2026-05-22 16:32:42.330,1351101786,1889330,1,1.0813,0.3313,0.02002,-24.74,-6.168,20.214
2026-05-22 16:32:42.330,1351101786,1889330,2,0.89917,0.45898,0.56372,-22.977,3.588,29.038
2026-05-22 16:32:42.530,1351101986,1889530,1,1.03687,0.21582,0.04443,-27.115,-22.878,37.473
2026-05-22 16:32:42.530,1351101986,1889530,2,0.83862,0.60181,0.34692,-15.74,-27.802,20.328
2026-05-22 16:32:43.730,1351103186,1889730,1,1.12549,0.05444,-0.05591,-39.389,-0.611,19.0
2026-05-22 16:32:43.730,1351103186,1889730,2,0.83667,0.46973,0.34668,-45.817,-17.702,18.084
2026-05-22 16:32:43.930,1351103386,1889930,1,1.09131,-0.05566,0.01733,-29.817,9.71,3.931
2026-05-22 16:32:43.930,1351103386,1889930,2,0.9126,0.37598,0.35913,-25.13,-1.16,21.786
2026-05-22 16:32:43.130,1351102586,1890130,1,1.01123,-0.09766,0.11816,-13.893,20.313,11.122
2026-05-22 16:32:43.130,1351102586,1890130,2,0.88013,0.43066,0.37012,-23.282,6.328,14.687
2026-05-22 16:32:43.330,1351102786,1890330,1,1.03394,-0.14819,0.11182,-8.939,11.321,-1.26
2026-05-22 16:32:43.330,1351102786,1890330,2,0.90039,0.40771,0.32666,-11.015,13.573,7.321
2026-05-22 16:32:43.530,1351102986,1890530,1,1.00488,-0.13965,0.11792,9.153,3.504,-4.443
2026-05-22 16:32:43.530,1351102986,1890530,2,0.896,0.36255,0.35303,14.641,12.435,-5.878
2026-05-22 16:32:44.730,1351104186,1890730,1,1.15894,-0.03906,0.1499,40.16,-9.718,-1.397
2026-05-22 16:32:44.730,1351104186,1890730,2,0.95728,0.29932,0.8208,37.969,33.473,12.076
2026-05-22 16:32:44.930,1351104386,1890930,1,1.02563,0.10376,0.25879,38.809,37.802,-4.351
2026-05-22 16:32:44.930,1351104386,1890930,2,0.78296,0.42456,0.66113,49.573,62.0,20.885
2026-05-22 16:32:44.130,1351103586,1891130,1,0.85132,0.27271,0.39355,8.504,1.313,7.046
2026-05-22 16:32:44.130,1351103586,1891130,2,0.698,0.58447,0.64453,10.969,-0.695,4.511
2026-05-22 16:32:44.330,1351103786,1891330,1,1.05859,0.27588,0.36255,-27.939,-28.725,-10.214
2026-05-22 16:32:44.330,1351103786,1891330,2,1.02124,0.34106,0.58301,-40.534,-38.298,20.397
2026-05-22 16:32:44.530,1351103986,1891530,1,1.05493,-0.00391,0.1853,-16.863,-26.214,-3.061
2026-05-22 16:32:44.530,1351103986,1891530,2,0.93335,0.35107,0.59399,-59.435,-9.206,3.198
2026-05-22 16:32:45.730,1351105186,1891730,1,1.03442,-0.00269,0.18799,11.382,27.046,7.588
2026-05-22 16:32:45.730,1351105186,1891730,2,0.88818,0.32837,0.49927,-7.038,33.374,24.466
2026-05-22 16:32:45.930,1351105386,1891930,1,0.93018,0.11084,0.30664,17.626,1.122,-3.092
2026-05-22 16:32:45.930,1351105386,1891930,2,0.85889,0.38428,0.56299,-7.748,4.985,-1.802
2026-05-22 16:32:45.130,1351104586,1892130,1,1.00488,0.07642,0.20703,0.405,-6.977,-3.901
2026-05-22 16:32:45.130,1351104586,1892130,2,0.91504,0.35815,0.55884,-1.588,5.573,-0.053
2026-05-22 16:32:45.330,1351104786,1892330,1,1.0144,0.04663,0.22754,19.84,24.504,0.649
2026-05-22 16:32:45.330,1351104786,1892330,2,0.94189,0.35278,0.66138,1.366,33.084,5.122
2026-05-22 16:32:45.530,1351104986,1892530,1,0.82813,0.33057,0.34229,34.824,40.359,11.863
2026-05-22 16:32:45.530,1351104986,1892530,2,0.69189,0.64819,0.69873,22.74,18.015,0.779
2026-05-22 16:32:46.730,1351106186,1892730,1,0.79565,0.42065,0.37573,-19.588,-16.618,-0.198
2026-05-22 16:32:46.730,1351106186,1892730,2,0.7207,0.56396,0.70703,-13.305,-39.489,4.786
2026-05-22 16:32:46.930,1351106386,1892930,1,0.9104,0.03613,0.29517,-25.992,-19.443,15.985
2026-05-22 16:32:46.930,1351106386,1892930,2,0.93115,0.43506,0.75879,-35.618,-31.603,-14.336
2026-05-22 16:32:46.130,1351105586,1893130,1,0.99243,-0.01538,0.25366,-28.115,-17.435,5.382
2026-05-22 16:32:46.130,1351105586,1893130,2,0.85327,0.42676,0.51782,0.015,-25.115,-6.084
2026-05-22 16:32:46.330,1351105786,1893330,1,1.01782,-0.03394,0.2085,-14.977,-15.29,-13.527
2026-05-22 16:32:46.330,1351105786,1893330,2,0.88525,0.42773,0.47949,-3.527,-16.344,-7.481
2026-05-22 16:32:46.530,1351105986,1893530,1,1.06055,-0.01001,0.12964,-2.962,-12.16,-8.519
2026-05-22 16:32:46.530,1351105986,1893530,2,0.88843,0.46948,0.44092,17.542,-1.618,-0.832
2026-05-22 16:32:47.730,1351107186,1893730,1,1.01465,0.09619,0.16577,6.466,3.832,-3.74
2026-05-22 16:32:47.730,1351107186,1893730,2,0.86572,0.46094,0.47119,6.626,5.359,-0.069
2026-05-22 16:32:47.930,1351107386,1893930,1,1.01904,0.12134,0.16162,5.802,5.809,-1.702
2026-05-22 16:32:47.930,1351107386,1893930,2,0.86304,0.47803,0.48267,3.443,8.656,3.641
2026-05-22 16:32:47.130,1351106586,1894130,1,0.98438,0.10596,0.20215,-1.618,3.244,2.771
2026-05-22 16:32:47.130,1351106586,1894130,2,0.84229,0.48169,0.49683,-0.038,0.679,3.878
2026-05-22 16:32:47.330,1351106786,1894330,1,1.00171,0.0874,0.18384,-7.725,-5.473,-1.176
2026-05-22 16:32:47.330,1351106786,1894330,2,0.86304,0.46631,0.46411,-1.855,-4.954,0.038
2026-05-22 16:32:47.530,1351106986,1894530,1,1.02515,0.08105,0.15332,-2.351,1.183,-0.863
2026-05-22 16:32:47.530,1351106986,1894530,2,0.87158,0.48169,0.44727,-2.809,0.26,0.099
2026-05-22 16:32:48.730,1351108186,1894730,1,1.02002,0.08057,0.14624,0.542,0.649,-3.359
2026-05-22 16:32:48.730,1351108186,1894730,2,0.8877,0.4646,0.45093,1.901,2.718,2.092
2026-05-22 16:32:48.930,1351108386,1894930,1,1.02222,0.11133,0.15479,7.618,0.534,0.511
2026-05-22 16:32:48.930,1351108386,1894930,2,0.86182,0.48438,0.44263,2.435,7.809,0.679
2026-05-22 16:32:48.130,1351107586,1895130,1,1.01514,0.11182,0.15088,3.786,2.496,2.374
2026-05-22 16:32:48.130,1351107586,1895130,2,0.84473,0.49658,0.46802,-4.733,2.466,-0.107
2026-05-22 16:32:48.330,1351107786,1895330,1,1.0061,0.10864,0.16284,-3.771,-0.626,1.122
2026-05-22 16:32:48.330,1351107786,1895330,2,0.85571,0.48242,0.47095,-2.947,-0.794,1.718
2026-05-22 16:32:48.530,1351107986,1895530,1,1.00317,0.09351,0.16113,-5.618,-0.412,-0.466
2026-05-22 16:32:48.530,1351107986,1895530,2,0.85571,0.48853,0.46167,-4.435,-1.412,2.321
2026-05-22 16:32:49.730,1351109186,1895730,1,1.01709,0.09351,0.16113,-8.13,-1.107,-2.26
2026-05-22 16:32:49.730,1351109186,1895730,2,0.86011,0.48926,0.46924,-6.137,-3.427,1.427
2026-05-22 16:32:49.930,1351109386,1895930,1,1.01025,0.07642,0.15967,-6.557,-1.321,-1.336
2026-05-22 16:32:49.930,1351109386,1895930,2,0.86084,0.47559,0.45313,-3.725,-1.87,1.328
2026-05-22 16:32:49.130,1351108586,1896130,1,1.02295,0.08765,0.15869,-3.504,0.832,-2.015
2026-05-22 16:32:49.130,1351108586,1896130,2,0.86865,0.45923,0.46899,-2.641,3.137,2.229
2026-05-22 16:32:49.330,1351108786,1896330,1,1.021,0.09375,0.16382,2.855,7.779,2.382
2026-05-22 16:32:49.330,1351108786,1896330,2,0.85938,0.46387,0.49902,1.573,10.405,5.237
2026-05-22 16:32:49.530,1351108986,1896530,1,0.97974,0.08911,0.20825,5.687,4.534,1.969
2026-05-22 16:32:49.530,1351108986,1896530,2,0.84497,0.47485,0.50439,0.985,5.443,-2.122
2026-05-22 16:32:50.730,1351110186,1896730,1,0.99878,0.11499,0.18433,7.397,-4.87,1.305
2026-05-22 16:32:50.730,1351110186,1896730,2,0.85352,0.48511,0.50977,8.649,-0.397,-1.198
2026-05-22 16:32:50.930,1351110386,1896930,1,1.01831,0.11914,0.15845,0.656,-2.656,-0.008
2026-05-22 16:32:50.930,1351110386,1896930,2,0.85327,0.49536,0.49341,-2.046,-0.42,-0.893
2026-05-22 16:32:50.130,1351109586,1897130,1,1.00854,0.11206,0.16162,-6.626,0.687,-2.565
2026-05-22 16:32:50.130,1351109586,1897130,2,0.84814,0.49951,0.48438,-7.634,-1.282,1.275
2026-05-22 16:32:50.330,1351109786,1897330,1,1.01465,0.14551,0.16992,-7.389,0.916,1.0
2026-05-22 16:32:50.330,1351109786,1897330,2,0.8418,0.50244,0.47217,-3.206,-4.405,3.863
2026-05-22 16:32:50.530,1351109986,1897530,1,0.9978,0.11206,0.18652,-30.641,-9.008,-6.603
2026-05-22 16:32:50.530,1351109986,1897530,2,0.85596,0.49634,0.44434,-20.939,-23.214,7.176
2026-05-22 16:32:51.730,1351111186,1897730,1,1.00928,0.11548,0.12476,-55.397,-16.924,-7.771
2026-05-22 16:32:51.730,1351111186,1897730,2,0.86328,0.46143,0.43677,-35.252,-37.802,8.145
2026-05-22 16:32:51.930,1351111386,1897930,1,1.04663,0.02319,0.10205,-36.435,-18.0,-2.924
2026-05-22 16:32:51.930,1351111386,1897930,2,0.89868,0.42529,0.39404,-13.626,-18.992,3.191
2026-05-22 16:32:51.130,1351110586,1898130,1,1.05664,0.01807,0.03052,-0.802,-11.954,-12.046
2026-05-22 16:32:51.130,1351110586,1898130,2,0.88501,0.44922,0.35742,-18.374,-13.687,-17.137
2026-05-22 16:32:51.330,1351110786,1898330,1,1.08618,0.09692,-0.01392,-3.672,-2.954,-3.725
2026-05-22 16:32:51.330,1351110786,1898330,2,0.85864,0.50269,0.29175,-11.824,-5.573,2.878
2026-05-22 16:32:51.530,1351110986,1898530,1,1.0542,0.11523,-0.06885,-40.779,4.893,14.466
2026-05-22 16:32:51.530,1351110986,1898530,2,0.87134,0.40259,0.2998,-49.802,-20.153,35.939
2026-05-22 16:32:52.730,1351112186,1898730,1,1.052,-0.17627,-0.02148,-27.641,12.153,21.55
2026-05-22 16:32:52.730,1351112186,1898730,2,0.91431,0.33594,0.24341,-23.748,8.458,23.939
2026-05-22 16:32:52.930,1351112386,1898930,1,1.01294,-0.26782,-0.01123,36.115,7.885,11.779
2026-05-22 16:32:52.930,1351112386,1898930,2,0.89648,0.31567,0.25513,42.496,33.137,-15.969
2026-05-22 16:32:52.130,1351111586,1899130,1,1.03467,-0.19971,-0.00488,57.466,14.924,-12.756
2026-05-22 16:32:52.130,1351111586,1899130,2,1.07056,0.5647,0.49585,23.061,59.55,-46.313
2026-05-22 16:32:52.330,1351111786,1899330,1,0.77441,0.19604,0.31885,88.687,51.214,21.939
2026-05-22 16:32:52.330,1351111786,1899330,2,0.59619,0.86743,0.6145,199.511,69.779,17.061
2026-05-22 16:32:52.530,1351111986,1899530,1,0.76367,0.37378,0.27759,39.282,14.382,33.198
2026-05-22 16:32:52.530,1351111986,1899530,2,0.99438,0.42822,0.94629,57.267,14.939,3.893
2026-05-22 16:32:53.730,1351113186,1899730,1,0.37744,0.00562,0.23535,17.336,28.969,4.13
2026-05-22 16:32:53.730,1351113186,1899730,2,0.47144,0.07788,0.60059,47.344,23.13,3.718
2026-05-22 16:32:53.930,1351113386,1899930,1,0.69507,0.11328,0.54907,3.305,21.046,9.725
2026-05-22 16:32:53.930,1351113386,1899930,2,1.03198,-0.05176,0.98828,57.382,19.176,-26.145
2026-05-22 16:32:53.130,1351112586,1900130,1,0.89941,0.09497,0.65674,10.13,-26.878,10.756
2026-05-22 16:32:53.130,1351112586,1900130,2,0.98755,0.52783,0.73975,23.26,-22.031,-15.542
2026-05-22 16:32:53.330,1351112786,1900330,1,1.03687,0.15527,0.54028,52.74,-28.313,4.099
2026-05-22 16:32:53.330,1351112786,1900330,2,0.95776,0.71362,0.89795,31.412,6.908,-21.771
2026-05-22 16:32:53.530,1351112986,1900530,1,1.14746,0.11963,0.37427,-8.397,-26.885,6.893
2026-05-22 16:32:53.530,1351112986,1900530,2,0.99976,0.69165,0.97119,3.595,-11.878,-26.16
2026-05-22 16:32:54.730,1351114186,1900730,1,1.0686,0.18481,0.18262,-15.771,-4.824,-8.809
2026-05-22 16:32:54.730,1351114186,1900730,2,0.7561,0.56152,0.76489,-10.588,-13.817,2.115
2026-05-22 16:32:54.930,1351114386,1900930,1,1.02661,0.07373,0.16968,-16.359,10.107,7.588
2026-05-22 16:32:54.930,1351114386,1900930,2,0.70142,0.63989,0.61279,-15.626,6.405,11.107
2026-05-22 16:32:54.130,1351113586,1901130,1,1.12524,0.08716,0.23828,-14.374,6.496,5.855
2026-05-22 16:32:54.130,1351113586,1901130,2,0.83594,0.38672,0.90454,-24.298,-23.267,-9.466
2026-05-22 16:32:54.330,1351113786,1901330,1,0.99585,0.07153,0.20264,-15.962,33.855,-1.863
2026-05-22 16:32:54.330,1351113786,1901330,2,0.729,0.53979,0.56885,-23.55,-4.847,3.702
2026-05-22 16:32:54.530,1351113986,1901530,1,1.02271,0.07227,0.39844,-7.908,32.168,-8.824
2026-05-22 16:32:54.530,1351113986,1901530,2,0.90601,0.59814,0.68286,-6.45,6.611,0.878
2026-05-22 16:32:55.730,1351115186,1901730,1,1.04688,0.14941,0.62695,-2.328,24.191,3.275
2026-05-22 16:32:55.730,1351115186,1901730,2,0.84302,0.62085,0.8396,-14.611,-1.84,-6.252
2026-05-22 16:32:55.930,1351115386,1901930,1,0.92432,0.01953,0.5,-2.275,-9.534,4.092
2026-05-22 16:32:55.930,1351115386,1901930,2,0.69214,0.59082,0.7771,7.038,-4.641,-14.229
2026-05-22 16:32:55.130,1351114586,1902130,1,0.9209,0.09253,0.29883,8.092,-40.29,-1.817
2026-05-22 16:32:55.130,1351114586,1902130,2,0.79712,0.58423,0.66772,32.603,-2.924,7.863
2026-05-22 16:32:55.330,1351114786,1902330,1,0.66724,0.0708,0.05493,15.481,-13.718,0.58
2026-05-22 16:32:55.330,1351114786,1902330,2,0.49927,0.39014,0.53442,18.824,-0.595,-0.763
2026-05-22 16:32:55.530,1351114986,1902530,1,1.50439,0.10205,0.06226,-11.45,-25.0,-5.107
2026-05-22 16:32:55.530,1351114986,1902530,2,0.74731,0.9104,0.77026,-24.58,54.802,40.237
2026-05-22 16:32:56.730,1351116186,1902730,1,1.07544,0.05591,0.07617,-7.397,-6.557,-2.916
2026-05-22 16:32:56.730,1351116186,1902730,2,0.97119,0.51367,0.54712,-10.733,-0.275,-26.084
2026-05-22 16:32:56.930,1351116386,1902930,1,1.05103,0.11279,0.2085,-9.076,11.489,5.969
2026-05-22 16:32:56.930,1351116386,1902930,2,0.72949,0.46826,0.60938,19.885,1.0,8.053
2026-05-22 16:32:56.130,1351115586,1903130,1,0.96704,0.0625,0.19458,-8.176,4.366,-1.137
2026-05-22 16:32:56.130,1351115586,1903130,2,0.83398,0.48193,0.62451,-3.733,1.664,6.786
2026-05-22 16:32:56.330,1351115786,1903330,1,1.02466,0.05078,0.1814,-5.824,3.779,-0.107
2026-05-22 16:32:56.330,1351115786,1903330,2,0.84717,0.44922,0.59863,-1.733,-2.252,4.511
2026-05-22 16:32:56.530,1351115986,1903530,1,1.021,0.05811,0.20801,2.542,6.099,-3.305
2026-05-22 16:32:56.530,1351115986,1903530,2,0.85376,0.44971,0.60962,-3.427,1.893,0.58
2026-05-22 16:32:57.730,1351117186,1903730,1,1.01563,0.10449,0.17358,-0.107,8.939,-2.412
2026-05-22 16:32:57.730,1351117186,1903730,2,0.82959,0.44482,0.66016,-13.885,5.71,3.42
2026-05-22 16:32:57.930,1351117386,1903930,1,0.99731,0.05713,0.25171,5.42,19.168,2.901
2026-05-22 16:32:57.930,1351117386,1903930,2,0.84131,0.46167,0.66504,-4.344,12.336,9.511
2026-05-22 16:32:57.130,1351116586,1904130,1,0.94824,0.08032,0.27173,0.115,10.031,2.962
2026-05-22 16:32:57.130,1351116586,1904130,2,0.80103,0.41675,0.6731,-6.122,4.466,4.55
2026-05-22 16:32:57.330,1351116786,1904330,1,0.97461,0.0813,0.27246,-2.863,0.313,-1.221
2026-05-22 16:32:57.330,1351116786,1904330,2,0.8396,0.42163,0.69092,-1.992,7.466,3.962
2026-05-22 16:32:57.530,1351116986,1904530,1,0.74731,0.09302,0.34033,10.74,-18.641,3.626
2026-05-22 16:32:57.530,1351116986,1904530,2,0.74097,0.35693,0.57397,30.992,2.893,3.198
2026-05-22 16:32:58.730,1351118186,1904730,1,0.89087,0.12427,0.02148,-10.229,-12.115,-1.015
2026-05-22 16:32:58.730,1351118186,1904730,2,0.5603,0.32617,0.59058,-40.916,10.634,8.603
2026-05-22 16:32:58.930,1351118386,1904930,1,0.98926,0.03174,0.13403,-13.511,25.634,3.55
2026-05-22 16:32:58.930,1351118386,1904930,2,0.82446,0.44189,0.57666,-22.71,37.74,23.122
2026-05-22 16:32:58.130,1351117586,1905130,1,0.92407,-0.0083,0.45898,-8.252,15.389,2.168
2026-05-22 16:32:58.130,1351117586,1905130,2,1.02417,0.35596,0.76611,22.779,38.634,12.359
2026-05-22 16:32:58.330,1351117786,1905330,1,1.06152,0.00391,0.51978,1.695,-4.328,5.198
2026-05-22 16:32:58.330,1351117786,1905330,2,1.0603,0.44678,0.5603,12.763,2.634,36.87
2026-05-22 16:32:58.530,1351117986,1905530,1,1.03711,0.00098,0.33081,6.672,-1.748,20.397
2026-05-22 16:32:58.530,1351117986,1905530,2,1.08325,0.49878,0.88428,24.527,5.595,2.282
2026-05-22 16:32:59.730,1351119186,1905730,1,0.927,0.03271,0.34766,-5.069,2.672,-3.847
2026-05-22 16:32:59.730,1351119186,1905730,2,0.89746,0.30542,0.70239,-3.748,8.336,6.137
2026-05-22 16:32:59.930,1351119386,1905930,1,0.92163,0.02441,0.33276,-0.435,7.931,8.031
2026-05-22 16:32:59.930,1351119386,1905930,2,0.87964,0.43433,0.75342,4.931,6.282,4.527
2026-05-22 16:32:59.130,1351118586,1906130,1,0.88184,0.00513,0.37573,-6.397,8.656,-2.42
2026-05-22 16:32:59.130,1351118586,1906130,2,0.88281,0.4375,0.94165,-24.282,14.336,-7.389
2026-05-22 16:32:59.330,1351118786,1906330,1,1.06226,-0.00635,0.65649,-13.458,3.16,-20.099
2026-05-22 16:32:59.330,1351118786,1906330,2,1.04688,0.32642,0.99365,-79.267,6.756,-40.374
2026-05-22 16:32:59.530,1351118986,1906530,1,0.97144,0.06665,0.69434,-14.763,-6.198,-33.702
2026-05-22 16:32:59.530,1351118986,1906530,2,0.79468,0.41724,0.86768,-70.092,-27.42,-30.695
2026-05-22 16:33:00.730,1351120186,1906730,1,0.85205,0.10034,0.4082,-24.74,6.122,-16.366
2026-05-22 16:33:00.730,1351120186,1906730,2,0.74731,0.31079,0.73315,-0.26,-30.412,-22.008
2026-05-22 16:33:00.930,1351120386,1906930,1,0.84668,0.07983,0.29517,-12.168,-40.916,-3.718
2026-05-22 16:33:00.930,1351120386,1906930,2,0.59546,0.32666,0.55054,15.42,-9.0,-6.588
2026-05-22 16:33:00.130,1351119586,1907130,1,0.71606,0.08276,0.09253,-14.794,-28.832,2.298
2026-05-22 16:33:00.130,1351119586,1907130,2,0.74902,0.48853,0.65356,32.603,-20.267,-5.16
2026-05-22 16:33:00.330,1351119786,1907330,1,1.05322,0.02539,0.15234,-64.55,-11.42,-27.069
2026-05-22 16:33:00.330,1351119786,1907330,2,0.91089,0.49463,0.66943,-31.725,-14.977,-3.565
2026-05-22 16:33:00.530,1351119986,1907530,1,1.04004,0.07642,0.18091,-15.229,-4.092,-19.366
2026-05-22 16:33:00.530,1351119986,1907530,2,0.85889,0.48096,0.59888,-0.053,3.427,-1.275
2026-05-22 16:33:01.730,1351121186,1907730,1,0.98486,0.25073,0.22754,9.87,14.023,-1.916
2026-05-22 16:33:01.730,1351121186,1907730,2,0.77051,0.56519,0.64722,-4.702,16.794,3.031
2026-05-22 16:33:01.930,1351121386,1907930,1,0.84668,0.29077,0.30688,-26.305,2.481,-5.611
2026-05-22 16:33:01.930,1351121386,1907930,2,0.68188,0.61035,0.62744,-30.817,-22.084,-6.641
2026-05-22 16:33:01.130,1351120586,1908130,1,0.97144,-0.0271,0.17188,-40.55,-10.145,15.763
2026-05-22 16:33:01.130,1351120586,1908130,2,0.94775,0.42969,0.64404,4.458,-0.924,7.504
2026-05-22 16:33:01.330,1351120786,1908330,1,1.01685,-0.01367,0.19946,0.542,3.252,19.733
2026-05-22 16:33:01.330,1351120786,1908330,2,0.86523,0.49292,0.49243,-14.443,-12.489,-3.13
2026-05-22 16:33:01.530,1351120986,1908530,1,1.04028,-0.14771,0.16382,-14.855,-3.229,-0.336
2026-05-22 16:33:01.530,1351120986,1908530,2,0.90942,0.31934,0.48804,-5.046,-12.214,2.893
2026-05-22 16:33:02.730,1351122186,1908730,1,1.03296,-0.15625,0.13818,15.748,-20.321,-1.366
2026-05-22 16:33:02.730,1351122186,1908730,2,0.9397,0.6167,0.51514,29.481,2.504,-10.527
2026-05-22 16:33:02.930,1351122386,1908930,1,1.0625,-0.00879,0.11475,6.534,-2.718,-7.519
2026-05-22 16:33:02.930,1351122386,1908930,2,0.85059,0.49487,0.50391,30.366,15.74,8.802
2026-05-22 16:33:02.130,1351121586,1909130,1,1.03223,0.0166,0.1521,22.168,18.893,-7.557
2026-05-22 16:33:02.130,1351121586,1909130,2,0.89429,0.44434,0.6123,0.473,28.359,-1.328
2026-05-22 16:33:02.330,1351121786,1909330,1,0.95068,0.17456,0.29102,39.359,25.412,0.71
2026-05-22 16:33:02.330,1351121786,1909330,2,0.75293,0.5105,0.6731,40.023,37.893,4.573
2026-05-22 16:33:02.530,1351121986,1909530,1,0.88696,0.30933,0.33472,20.939,-17.824,5.092
2026-05-22 16:33:02.530,1351121986,1909530,2,0.69092,0.61108,0.62378,14.802,-23.595,-5.695
2026-05-22 16:33:03.730,1351123186,1909730,1,1.04248,0.08081,0.09741,2.176,-26.214,5.824
2026-05-22 16:33:03.730,1351123186,1909730,2,0.5874,0.71826,0.31909,22.824,-17.992,-20.534
2026-05-22 16:33:03.930,1351123386,1909930,1,1.04004,0.13892,0.03101,-2.817,-11.603,2.74
2026-05-22 16:33:03.930,1351123386,1909930,2,0.7998,0.56274,0.44434,16.359,-11.855,-8.893
2026-05-22 16:33:03.130,1351122586,1910130,1,1.08472,0.09814,0.00781,-28.557,0.405,-0.366
2026-05-22 16:33:03.130,1351122586,1910130,2,0.83545,0.53882,0.46582,-29.542,-10.756,12.656
2026-05-22 16:33:03.330,1351122786,1910330,1,1.03149,0.05029,0.06885,-42.779,-1.519,-10.756
2026-05-22 16:33:03.330,1351122786,1910330,2,0.83545,0.49951,0.42139,-19.962,-15.832,8.382
2026-05-22 16:33:03.530,1351122986,1910530,1,1.05029,0.03687,0.06982,-27.71,-2.405,-3.122
2026-05-22 16:33:03.530,1351122986,1910530,2,0.87573,0.45313,0.45239,6.45,-0.87,9.023
2026-05-22 16:33:04.730,1351124186,1910730,1,1.05933,0.03491,0.05518,3.221,2.649,3.153
2026-05-22 16:33:04.730,1351124186,1910730,2,0.85376,0.47192,0.44238,-2.588,4.305,2.336
2026-05-22 16:33:04.930,1351124386,1910930,1,1.08008,0.02051,0.03345,9.733,7.198,-2.496
2026-05-22 16:33:04.930,1351124386,1910930,2,0.88696,0.42578,0.42529,-5.145,13.16,0.084
2026-05-22 16:33:04.130,1351123586,1911130,1,1.04932,0.0293,0.09058,35.069,4.924,7.267
2026-05-22 16:33:04.130,1351123586,1911130,2,0.86597,0.45923,0.46582,26.679,25.756,-1.695
2026-05-22 16:33:04.330,1351123786,1911330,1,1.03564,0.12061,0.09766,42.679,26.099,11.557
2026-05-22 16:33:04.330,1351123786,1911330,2,0.86499,0.54419,0.51196,11.809,36.382,0.237
2026-05-22 16:33:04.530,1351123986,1911530,1,0.97241,0.14893,0.19092,29.389,45.076,4.26
2026-05-22 16:33:04.530,1351123986,1911530,2,0.83813,0.46851,0.71216,5.229,49.893,18.061
2026-05-22 16:33:05.730,1351125186,1911730,1,0.84497,0.33398,0.36914,16.115,53.206,17.389
2026-05-22 16:33:05.730,1351125186,1911730,2,0.65381,0.63281,0.74707,-12.626,25.359,20.229
2026-05-22 16:33:05.930,1351125386,1911930,1,0.78198,0.17773,0.17261,-50.489,70.931,1.313
2026-05-22 16:33:05.930,1351125386,1911930,2,0.93042,0.09741,1.14893,-103.58,38.405,55.779
2026-05-22 16:33:05.130,1351124586,1912130,1,0.33716,-0.1582,0.54932,28.878,136.947,12.725
2026-05-22 16:33:05.130,1351124586,1912130,2,1.03589,-0.37207,0.81152,-21.947,79.947,84.573
2026-05-22 16:33:05.330,1351124786,1912330,1,0.03662,-0.01709,1.18066,-7.198,86.321,10.427
2026-05-22 16:33:05.330,1351124786,1912330,2,0.20068,-0.10962,1.42456,-16.366,84.382,30.26
2026-05-22 16:33:05.530,1351124986,1912530,1,-0.13647,-0.06958,0.97485,-16.466,37.031,4.031
2026-05-22 16:33:05.530,1351124986,1912530,2,0.17114,-0.32349,1.27808,-15.847,2.573,-1.817
2026-05-22 16:33:06.730,1351126186,1912730,1,-0.15601,-0.06616,0.96484,-18.397,14.115,0.74
2026-05-22 16:33:06.730,1351126186,1912730,2,0.09937,-0.37793,1.35596,-36.16,17.58,18.008
2026-05-22 16:33:06.930,1351126386,1912930,1,-0.12134,-0.10034,0.83643,-4.908,-5.771,-0.099
2026-05-22 16:33:06.930,1351126386,1912930,2,0.15991,-0.42017,1.33301,-19.405,-17.069,8.74
2026-05-22 16:33:06.130,1351125586,1913130,1,-0.0791,-0.02173,0.96313,1.618,-16.985,2.87
2026-05-22 16:33:06.130,1351125586,1913130,2,0.177,-0.43726,1.33179,-13.397,-23.26,-4.221
2026-05-22 16:33:06.330,1351125786,1913330,1,-0.01636,-0.05542,0.90234,-1.718,-30.435,-5.542
2026-05-22 16:33:06.330,1351125786,1913330,2,0.33276,-0.32593,1.30225,14.397,-32.641,-36.687
2026-05-22 16:33:06.530,1351125986,1913530,1,0.10791,-0.05933,0.92798,-6.603,-54.321,-13.901
2026-05-22 16:33:06.530,1351125986,1913530,2,0.51001,-0.21997,1.21997,37.618,-47.702,-36.939
2026-05-22 16:33:07.730,1351127186,1913730,1,0.31006,0.00342,0.79443,3.855,-85.092,-5.489
2026-05-22 16:33:07.730,1351127186,1913730,2,0.6582,0.05469,1.03882,46.321,-53.382,-35.55
2026-05-22 16:33:07.930,1351127386,1913930,1,0.52222,0.0769,0.57788,4.145,-101.344,8.595
2026-05-22 16:33:07.930,1351127386,1913930,2,0.66943,0.32056,0.89966,43.137,-84.191,-42.435
2026-05-22 16:33:07.130,1351126586,1914130,1,0.95337,-0.03247,0.14819,-15.985,-89.198,-11.58
2026-05-22 16:33:07.130,1351126586,1914130,2,0.85156,0.33545,0.79688,14.298,-64.504,-17.229
2026-05-22 16:33:07.330,1351126786,1914330,1,1.07495,-0.22876,0.10645,0.336,-22.557,-17.985
2026-05-22 16:33:07.330,1351126786,1914330,2,1.05322,0.17871,0.35205,30.26,-10.046,-31.0
2026-05-22 16:33:07.530,1351126986,1914530,1,1.18384,-0.01221,0.09497,22.58,15.023,-5.885
2026-05-22 16:33:07.530,1351126986,1914530,2,0.89111,0.36646,0.59888,40.389,46.824,13.611
2026-05-22 16:33:08.730,1351128186,1914730,1,0.87085,0.40674,0.21436,46.198,34.832,19.397
2026-05-22 16:33:08.730,1351128186,1914730,2,0.55713,0.72534,0.70557,40.344,27.176,2.611
2026-05-22 16:33:08.930,1351128386,1914930,1,0.90942,0.27808,0.16235,-25.992,35.321,-2.626
2026-05-22 16:33:08.930,1351128386,1914930,2,1.35376,0.38257,0.95483,-46.565,31.511,40.626
2026-05-22 16:33:08.130,1351127586,1915130,1,0.69849,0.03882,0.39258,-2.977,110.672,14.107
2026-05-22 16:33:08.130,1351127586,1915130,2,0.69922,0.18994,1.07471,-86.466,60.74,20.557
2026-05-22 16:33:08.330,1351127786,1915330,1,0.30444,-0.14233,0.60815,4.145,126.069,31.992
2026-05-22 16:33:08.330,1351127786,1915330,2,0.7373,0.22095,1.59863,-68.176,74.87,61.397
2026-05-22 16:33:08.530,1351127986,1915530,1,-0.10425,-0.08081,1.06177,-8.122,81.802,-5.176
2026-05-22 16:33:08.530,1351127986,1915530,2,0.42896,-0.24097,1.39502,-0.023,60.443,37.84
2026-05-22 16:33:09.730,1351129186,1915730,1,-0.26758,-0.08569,1.07031,3.076,48.725,-8.466
2026-05-22 16:33:09.730,1351129186,1915730,2,0.26953,-0.41992,1.29492,-24.473,21.359,9.13
2026-05-22 16:33:09.930,1351129386,1915930,1,-0.33179,-0.00439,0.92212,0.328,0.183,-1.809
2026-05-22 16:33:09.930,1351129386,1915930,2,0.06274,-0.44922,1.29297,-22.122,-9.893,-5.893
2026-05-22 16:33:09.130,1351128586,1916130,1,-0.25928,-0.02783,0.78027,3.221,-6.214,-2.008
2026-05-22 16:33:09.130,1351128586,1916130,2,0.1543,-0.46143,1.28003,8.542,-2.412,-5.977
2026-05-22 16:33:09.330,1351128786,1916330,1,-0.29614,-0.07007,0.8938,-0.336,-9.038,-2.023
2026-05-22 16:33:09.330,1351128786,1916330,2,0.15381,-0.48901,1.36157,2.176,-10.45,-7.718
2026-05-22 16:33:09.530,1351128986,1916530,1,-0.28491,-0.06396,1.05396,-2.076,-45.427,1.412
2026-05-22 16:33:09.530,1351128986,1916530,2,0.27124,-0.38379,1.33325,32.74,-46.802,-38.885
2026-05-22 16:33:10.730,1351130186,1916730,1,-0.01953,-0.08057,0.79346,-18.931,-86.473,-5.427
2026-05-22 16:33:10.730,1351130186,1916730,2,0.52295,-0.07495,1.16992,41.237,-68.336,-52.481
2026-05-22 16:33:10.930,1351130386,1916930,1,0.34473,-0.16553,0.66162,-28.687,-108.183,-24.832
2026-05-22 16:33:10.930,1351130386,1916930,2,0.71069,0.0874,0.92822,43.664,-71.893,-49.229
2026-05-22 16:33:10.130,1351129586,1917130,1,0.64819,-0.15967,0.38452,-40.588,-76.137,-41.473
2026-05-22 16:33:10.130,1351129586,1917130,2,0.84912,0.29736,0.78345,14.641,-58.069,-39.649
2026-05-22 16:33:10.330,1351129786,1917330,1,0.88086,-0.02148,0.38208,-14.046,-42.16,-48.687
2026-05-22 16:33:10.330,1351129786,1917330,2,0.72095,0.50171,0.78613,4.573,-20.962,-45.756
2026-05-22 16:33:10.530,1351129986,1917530,1,0.84546,0.15698,0.36426,-15.771,-29.58,-22.168
2026-05-22 16:33:10.530,1351129986,1917530,2,0.63232,0.54663,0.73535,5.237,-35.382,-28.504
2026-05-22 16:33:11.730,1351131186,1917730,1,1.00098,0.01221,0.198,-10.847,-34.0,10.641
2026-05-22 16:33:11.730,1351131186,1917730,2,0.89819,0.51855,0.62549,17.649,-12.855,-12.023
2026-05-22 16:33:11.930,1351131386,1917930,1,1.12305,-0.0498,0.08276,-36.672,9.939,9.527
2026-05-22 16:33:11.930,1351131386,1917930,2,0.87671,0.53491,0.54565,-39.015,2.412,25.679
2026-05-22 16:33:11.130,1351130586,1918130,1,0.96167,-0.26001,0.21704,-27.74,16.397,-6.901
2026-05-22 16:33:11.130,1351130586,1918130,2,0.85156,0.36035,0.38477,-27.863,-8.282,-9.198
2026-05-22 16:33:11.330,1351130786,1918330,1,0.9519,-0.2771,0.17798,9.26,-23.0,-1.008
2026-05-22 16:33:11.330,1351130786,1918330,2,0.88818,0.42676,0.45532,26.053,2.107,-23.634
2026-05-22 16:33:11.530,1351130986,1918530,1,0.96021,-0.04492,0.12549,24.702,-14.015,-23.504
2026-05-22 16:33:11.530,1351130986,1918530,2,0.85376,0.54175,0.46606,28.183,3.985,-9.221
2026-05-22 16:33:12.730,1351132186,1918730,1,1.04272,0.05249,0.08374,44.611,-0.763,-1.603
2026-05-22 16:33:12.730,1351132186,1918730,2,0.83301,0.54297,0.53198,22.588,19.122,-0.481
2026-05-22 16:33:12.930,1351132386,1918930,1,1.01782,0.13379,0.13745,1.366,5.496,2.725
2026-05-22 16:33:12.930,1351132386,1918930,2,0.76294,0.55518,0.58911,2.374,9.939,9.779
2026-05-22 16:33:12.130,1351131586,1919130,1,1.01978,0.13184,0.19019,9.168,17.015,4.13
2026-05-22 16:33:12.130,1351131586,1919130,2,0.76025,0.56982,0.63672,-12.351,6.321,10.366
2026-05-22 16:33:12.330,1351131786,1919330,1,1.0022,0.12842,0.22827,-2.779,18.763,0.84
2026-05-22 16:33:12.330,1351131786,1919330,2,0.82837,0.50659,0.66064,-4.427,14.756,19.282
2026-05-22 16:33:12.530,1351131986,1919530,1,0.93945,0.03149,0.33081,-10.809,9.206,6.931
2026-05-22 16:33:12.530,1351131986,1919530,2,0.79346,0.44702,0.69165,2.901,9.534,13.779
2026-05-22 16:33:13.730,1351133186,1919730,1,0.96313,-0.03467,0.29126,-15.481,-0.481,-0.527
2026-05-22 16:33:13.730,1351133186,1919730,2,0.88892,0.5022,0.48608,-11.298,-5.099,6.252
2026-05-22 16:33:13.930,1351133386,1919930,1,0.99121,-0.02466,0.27808,-20.16,-4.443,-3.763
2026-05-22 16:33:13.930,1351133386,1919930,2,0.81519,0.46069,0.6394,-15.542,-1.015,3.557
2026-05-22 16:33:13.130,1351132586,1920130,1,0.97534,-0.01245,0.28003,-14.252,-8.763,-3.481
2026-05-22 16:33:13.130,1351132586,1920130,2,1.24756,0.67822,0.41284,-68.611,7.832,45.0
2026-05-22 16:33:13.330,1351132786,1920330,1,0.97144,-0.04077,0.24292,6.466,1.321,1.603
2026-05-22 16:33:13.330,1351132786,1920330,2,0.83276,0.36035,0.71606,31.389,-4.649,2.504
2026-05-22 16:33:13.530,1351132986,1920530,1,0.93945,-0.01074,0.23462,5.71,-10.0,-4.198
2026-05-22 16:33:13.530,1351132986,1920530,2,0.80298,0.05005,1.95215,-63.046,57.893,-9.046
2026-05-22 16:33:14.730,1351134186,1920730,1,1.06421,-0.06128,0.2439,15.359,12.863,13.504
2026-05-22 16:33:14.730,1351134186,1920730,2,0.82739,0.41748,0.92773,103.321,-1.985,26.29
2026-05-22 16:33:14.930,1351134386,1920930,1,0.98584,-0.04736,0.25439,28.076,11.214,8.916
2026-05-22 16:33:14.930,1351134386,1920930,2,0.66553,0.23096,1.07349,27.74,-22.351,-19.053
2026-05-22 16:33:14.130,1351133586,1921130,1,0.94849,-0.01074,0.27026,9.473,1.351,-1.321
2026-05-22 16:33:14.130,1351133586,1921130,2,0.80762,0.4812,0.71655,13.527,3.931,6.779
2026-05-22 16:33:14.330,1351133786,1921330,1,0.97168,0.02686,0.27563,-0.84,-1.824,-5.885
2026-05-22 16:33:14.330,1351133786,1921330,2,0.78467,0.4585,0.76587,5.267,-1.412,-4.031
2026-05-22 16:33:14.530,1351133986,1921530,1,0.97876,0.03662,0.25781,-2.282,-1.511,-3.855
2026-05-22 16:33:14.530,1351133986,1921530,2,0.802,0.48389,0.76074,5.481,-1.092,0.511
2026-05-22 16:33:15.730,1351135186,1921730,1,0.98022,0.02759,0.27271,-1.183,0.916,1.618
2026-05-22 16:33:15.730,1351135186,1921730,2,0.80884,0.4646,0.78589,6.588,2.779,4.893
2026-05-22 16:33:15.930,1351135386,1921930,1,0.99243,0.03345,0.26465,4.87,-0.985,-7.153
2026-05-22 16:33:15.930,1351135386,1921930,2,0.81006,0.47314,0.74658,6.748,4.588,3.664
2026-05-22 16:33:15.130,1351134586,1922130,1,0.97485,0.05298,0.27539,5.0,1.29,0.634
2026-05-22 16:33:15.130,1351134586,1922130,2,0.80103,0.46191,0.76123,2.656,4.84,1.748
2026-05-22 16:33:15.330,1351134786,1922330,1,0.99365,0.03418,0.24927,4.29,7.557,-5.382
