datetime,epoch_ms,ts_millis,mpu_id,ax,ay,az,gx,gy,gz
2026-05-21T17:12:57.635092,,,,,,,,,
2026-05-21 17:12:57.607,1267117063,7607,1,1.07275,0.07251,-0.10034,9.328,-2.687,-0.969
2026-05-21 17:12:57.607,1267117063,7607,2,0.93457,0.06982,0.71289,-4.695,-9.115,-2.893
2026-05-21 17:12:57.807,1267117263,7807,1,1.07007,0.04932,-0.08521,-36.618,4.878,-6.191
2026-05-21 17:12:57.807,1267117263,7807,2,0.94946,0.06128,0.65405,-29.725,-7.13,-7.313
2026-05-21 17:12:57.007,1267116463,8007,1,1.073,0.07153,-0.07446,-7.267,2.573,-1.664
2026-05-21 17:12:57.007,1267116463,8007,2,0.93311,0.0647,0.698,-11.664,2.115,0.099
2026-05-21 17:12:57.207,1267116663,8207,1,1.06177,0.06226,-0.07349,-19.015,0.832,-1.702
2026-05-21 17:12:57.207,1267116663,8207,2,0.92896,0.06299,0.68604,-11.748,1.344,-0.053
2026-05-21 17:12:57.407,1267116863,8407,1,1.06836,0.04858,-0.0625,-6.092,-0.137,-0.656
2026-05-21 17:12:57.407,1267116863,8407,2,0.93335,0.05713,0.677,-5.046,1.481,-2.115
2026-05-21 17:12:58.607,1267118063,8607,1,1.07324,0.06714,-0.07666,20.641,0.405,0.863
2026-05-21 17:12:58.607,1267118063,8607,2,0.93848,0.06006,0.71094,26.756,5.435,11.382
2026-05-21 17:12:58.807,1267118263,8807,1,1.05859,0.07568,-0.07715,16.336,2.344,2.328
2026-05-21 17:12:58.807,1267118263,8807,2,0.92798,0.07617,0.6958,10.908,-1.023,5.947
2026-05-21 17:13:01.934,1267121390,11934,1,1.0813,0.03394,-0.13867,-60.679,24.168,-11.168
2026-05-21 17:13:01.934,1267121390,11934,2,0.95654,-0.15991,0.63647,132.267,8.55,58.695
2026-05-21 17:13:01.134,1267120590,12134,1,1.07104,0.03003,-0.14722,-15.282,-11.458,0.603
2026-05-21 17:13:01.134,1267120590,12134,2,0.92383,-0.15625,0.66602,7.244,-4.725,13.069
2026-05-21 17:13:01.334,1267120790,12334,1,1.0896,-0.00146,-0.1875,30.374,-9.74,6.794
2026-05-21 17:13:01.334,1267120790,12334,2,1.06396,0.1167,0.86621,-17.969,35.824,14.046
2026-05-21 17:13:01.534,1267120990,12534,1,1.04565,0.02734,-0.21948,43.901,-31.344,2.656
2026-05-21 17:13:01.534,1267120990,12534,2,0.69458,-0.14868,0.52197,-109.893,-63.107,1.458
2026-05-21 17:13:02.734,1267122190,12734,1,1.09424,0.04761,-0.06738,-31.847,17.664,-4.718
2026-05-21 17:13:02.734,1267122190,12734,2,0.87256,-0.00171,0.63306,5.504,23.282,-7.084
2026-05-21 17:13:02.934,1267122390,12934,1,1.07324,0.02124,-0.12183,5.237,2.29,1.267
2026-05-21 17:13:02.934,1267122390,12934,2,0.94482,-0.02881,0.66895,-7.344,1.076,1.924
2026-05-21 17:13:02.134,1267121590,13134,1,1.07031,0.02588,-0.10425,3.916,0.55,1.336
2026-05-21 17:13:02.134,1267121590,13134,2,0.93994,-0.01782,0.67944,12.595,5.183,5.794
2026-05-21 17:13:02.334,1267121790,13334,1,1.07275,0.0127,-0.11768,-4.489,1.832,-0.046
2026-05-21 17:13:02.334,1267121790,13334,2,0.94263,-0.02026,0.67163,-13.0,-2.924,-2.221
2026-05-21 17:13:02.534,1267121990,13534,1,1.06372,0.00317,-0.13013,9.809,-6.733,-0.756
2026-05-21 17:13:02.534,1267121990,13534,2,0.9585,-0.04932,0.6731,-2.374,-7.626,-5.511
2026-05-21 17:13:03.734,1267123190,13734,1,0.5957,0.08887,0.41699,43.305,229.168,-52.046
2026-05-21 17:13:03.734,1267123190,13734,2,0.78516,-0.01221,0.77881,35.13,39.046,15.26
2026-05-21 17:13:03.934,1267123390,13934,1,0.98828,-0.21411,0.01587,-40.137,-111.817,61.412
2026-05-21 17:13:03.934,1267123390,13934,2,0.94946,-0.00269,0.66431,42.656,-16.916,12.756
2026-05-21 17:13:03.134,1267122590,14134,1,0.98462,-0.18726,-0.01001,41.58,51.321,-24.321
2026-05-21 17:13:03.134,1267122590,14134,2,0.94141,-0.01807,0.68921,3.87,4.656,3.435
2026-05-21 17:13:03.334,1267122790,14334,1,1.21802,-0.03296,0.07227,20.023,-77.565,-15.366
2026-05-21 17:13:03.334,1267122790,14334,2,1.02002,-0.0144,0.72925,7.183,8.313,0.817
2026-05-21 17:13:03.534,1267122990,14534,1,1.05737,0.0105,-0.07544,15.779,-48.771,-5.702
2026-05-21 17:13:03.534,1267122990,14534,2,0.91504,-0.00342,0.73633,-44.244,-9.84,-14.435
2026-05-21 17:13:04.734,1267124190,14734,1,0.9519,0.06104,0.10254,67.855,93.076,20.893
2026-05-21 17:13:04.734,1267124190,14734,2,0.88867,-0.02002,0.65405,101.282,23.336,14.16
2026-05-21 17:13:04.934,1267124390,14934,1,1.36035,-0.02856,0.14966,61.641,17.847,-23.534
2026-05-21 17:13:04.934,1267124390,14934,2,0.93311,-0.00391,0.79932,86.359,55.176,13.977
2026-05-21 17:13:04.134,1267123590,15134,1,1.0791,-0.00928,0.18335,-54.908,0.504,-10.107
2026-05-21 17:13:04.134,1267123590,15134,2,0.87891,0.01807,0.7832,-64.832,-13.84,-18.191
2026-05-21 17:13:04.334,1267123790,15334,1,1.03784,-0.02295,0.10352,28.046,2.557,1.099
2026-05-21 17:13:04.334,1267123790,15334,2,0.90869,0.01367,0.69971,28.122,17.244,15.023
2026-05-21 17:13:04.534,1267123990,15534,1,1.05835,-0.04688,0.02954,-41.962,-13.443,1.084
2026-05-21 17:13:04.534,1267123990,15534,2,0.93945,0.00586,0.70288,-35.832,-11.206,0.779
2026-05-21 17:13:05.734,1267125190,15734,1,1.0686,-0.03516,-0.00513,11.076,-2.267,3.504
2026-05-21 17:13:05.734,1267125190,15734,2,0.93774,-0.0022,0.69971,-1.939,1.832,5.397
2026-05-21 17:13:05.934,1267125390,15934,1,1.06592,-0.05664,-0.01025,-36.015,-2.878,-5.763
2026-05-21 17:13:05.934,1267125390,15934,2,0.95703,-0.03247,0.6748,-28.924,-2.13,-4.092
2026-05-21 17:13:05.134,1267124590,16134,1,1.07031,-0.03003,0.01001,-41.496,3.29,-4.031
2026-05-21 17:13:05.134,1267124590,16134,2,0.90186,0.03638,0.70288,-38.55,7.885,-6.366
2026-05-21 17:13:05.334,1267124790,16334,1,1.05371,-0.05347,-0.03003,-50.237,17.939,-10.588
2026-05-21 17:13:05.334,1267124790,16334,2,1.1106,-0.13501,0.42651,-65.893,4.527,9.527
2026-05-21 17:13:05.534,1267124990,16534,1,1.00366,-0.14087,0.12695,29.267,-10.473,-0.74
2026-05-21 17:13:05.534,1267124990,16534,2,0.88184,-0.10767,0.74927,4.824,-2.947,-12.786
2026-05-21 17:13:06.734,1267126190,16734,1,1.01953,-0.07788,0.11646,-56.542,-16.214,-6.504
2026-05-21 17:13:06.734,1267126190,16734,2,0.93311,-0.04688,0.71777,-10.763,-31.626,4.542
2026-05-21 17:13:06.934,1267126390,16934,1,1.09424,-0.04102,0.01514,56.802,-15.145,-5.427
2026-05-21 17:13:06.934,1267126390,16934,2,0.9624,0.06665,0.75317,19.603,9.191,-14.42
2026-05-21 17:13:06.134,1267125590,17134,1,1.06079,-0.05933,0.05957,-105.435,15.267,-25.573
2026-05-21 17:13:06.134,1267125590,17134,2,0.76147,0.09839,0.67139,58.893,68.336,0.099
2026-05-21 17:13:07.712,1267127168,17712,1,1.07275,0.10474,-0.00146,-40.26,-4.214,-9.664
2026-05-21 17:13:07.712,1267127168,17712,2,0.92188,0.16113,0.64136,2.504,29.832,1.298
2026-05-21 17:13:07.912,1267127368,17912,1,1.12793,0.06958,0.0564,-111.252,0.679,4.084
2026-05-21 17:13:07.912,1267127368,17912,2,0.8479,-0.08618,0.79614,-163.656,23.679,-4.198
2026-05-21 17:13:07.112,1267126568,18112,1,1.01514,-0.25317,0.17407,-65.878,6.557,-9.336
2026-05-21 17:13:07.112,1267126568,18112,2,0.82007,-0.07202,0.81445,-65.794,-18.183,-50.252
2026-05-21 17:13:07.312,1267126768,18312,1,1.00146,-0.20313,-0.00464,-147.466,4.962,-45.664
2026-05-21 17:13:07.312,1267126768,18312,2,0.97949,0.08008,0.71362,0.198,-30.542,-27.015
2026-05-21 17:13:07.534,1267126990,18534,1,0.97681,0.00073,-0.01489,-22.16,-5.076,-29.42
2026-05-21 17:13:07.534,1267126990,18534,2,0.79736,0.10254,0.96704,-27.214,-6.74,-2.786
2026-05-21 17:13:08.734,1267128190,18734,1,1.0022,0.04688,0.07959,-36.672,7.672,-9.733
2026-05-21 17:13:08.734,1267128190,18734,2,0.96045,0.21558,0.64209,-46.198,4.855,-35.985
2026-05-21 17:13:08.934,1267128390,18934,1,1.01831,0.04224,0.11694,-74.824,18.595,-11.992
2026-05-21 17:13:08.934,1267128390,18934,2,0.90161,0.18677,0.74146,-38.206,-15.13,2.458
2026-05-21 17:13:08.134,1267127590,19134,1,1.03906,-0.02588,0.08838,-35.519,4.115,0.832
2026-05-21 17:13:08.134,1267127590,19134,2,0.89233,0.09399,0.80151,-72.939,-11.763,-14.58
2026-05-21 17:13:08.334,1267127790,19334,1,1.01831,-0.16821,0.12476,-38.695,9.321,6.191
2026-05-21 17:13:08.334,1267127790,19334,2,0.91113,0.03809,0.77905,0.122,6.786,5.573
2026-05-21 17:13:08.534,1267127990,19534,1,0.99536,-0.21606,0.18115,10.603,2.885,9.298
2026-05-21 17:13:08.534,1267127990,19534,2,0.88477,0.06348,0.77563,10.534,8.718,2.771
2026-05-21 17:13:09.734,1267129190,19734,1,1.04199,-0.11133,0.12939,21.214,-14.908,5.962
2026-05-21 17:13:09.734,1267129190,19734,2,0.9165,0.12012,0.72705,9.84,-9.916,2.878
2026-05-21 17:13:09.934,1267129390,19934,1,1.05151,-0.14868,0.0835,-3.267,-1.733,-7.527
2026-05-21 17:13:09.934,1267129390,19934,2,0.93115,0.10571,0.72412,20.267,4.618,1.481
2026-05-21 17:13:09.145,1267128601,20145,1,1.0376,-0.05957,0.11304,38.366,-0.901,-4.84
2026-05-21 17:13:09.145,1267128601,20145,2,0.93677,0.1665,0.75366,37.901,2.802,7.053
2026-05-21 17:13:12.447,1267131903,23447,1,1.03882,-0.00854,0.04419,27.595,3.771,3.794
2026-05-21 17:13:12.447,1267131903,23447,2,0.92114,0.19824,0.67603,12.015,4.679,0.763
2026-05-21 17:13:13.666,1267133122,23665,1,1.05566,0.01318,0.02222,20.534,-8.695,5.076
2026-05-21 17:13:13.666,1267133122,23665,2,0.94165,0.21582,0.63745,7.687,-6.977,4.344
2026-05-21 17:13:13.865,1267133321,23865,1,1.07153,0.03955,-0.00391,-4.267,1.557,2.985
2026-05-21 17:13:13.865,1267133321,23865,2,0.92798,0.19043,0.65649,-2.053,-0.603,3.58
2026-05-21 17:13:16.972,1267136428,26971,1,1.04688,-0.00439,0.02319,-11.443,1.656,-2.115
2026-05-21 17:13:16.972,1267136428,26971,2,0.93726,0.09326,0.65991,-11.038,-1.351,1.763
2026-05-21 17:13:16.171,1267135627,27171,1,1.06079,-0.00854,0.03589,-11.885,0.87,2.55
2026-05-21 17:13:16.171,1267135627,27171,2,0.94141,0.07813,0.64746,-17.145,2.359,2.992
2026-05-21 17:13:16.371,1267135827,27371,1,1.05249,-0.05054,0.05225,-9.336,0.802,-4.435
2026-05-21 17:13:16.371,1267135827,27371,2,0.94214,0.05737,0.67993,-5.321,-2.405,-1.74
2026-05-21 17:13:17.571,1267137027,27571,1,1.05444,-0.01929,0.02563,7.55,-1.748,-0.962
2026-05-21 17:13:17.571,1267137027,27571,2,0.9314,0.09595,0.66968,8.71,1.229,-1.641
2026-05-21 17:13:17.771,1267137227,27771,1,1.05518,0.01172,0.00562,12.565,-5.947,3.26
2026-05-21 17:13:17.771,1267137227,27771,2,0.948,0.12085,0.65723,12.763,4.756,2.763
2026-05-21 17:13:17.041,1267136497,28041,1,1.06958,0.0144,-0.01099,6.855,-3.466,1.985
2026-05-21 17:13:17.041,1267136497,28041,2,0.927,0.12671,0.65796,-1.107,1.969,1.198
2026-05-21 17:13:17.241,1267136697,28241,1,1.06567,-0.01489,-0.01001,-13.977,1.527,-3.122
2026-05-21 17:13:17.241,1267136697,28241,2,0.93506,0.11328,0.66821,-5.695,-0.153,-0.321
2026-05-21 17:13:17.441,1267136897,28441,1,1.06006,-0.00073,-0.0144,-1.252,2.29,-0.023
2026-05-21 17:13:17.441,1267136897,28441,2,0.94604,0.11279,0.66504,-2.809,1.557,-1.046
2026-05-21 17:13:18.641,1267138097,28641,1,1.0542,0.01587,-0.00073,1.939,5.16,3.557
2026-05-21 17:13:18.641,1267138097,28641,2,0.93604,0.13379,0.65552,2.611,8.397,2.313
2026-05-21 17:13:18.841,1267138297,28841,1,1.06274,-0.00879,0.0188,-7.008,4.313,2.718
2026-05-21 17:13:18.841,1267138297,28841,2,0.92993,0.11646,0.67578,-9.725,6.16,2.267
2026-05-21 17:13:18.041,1267137497,29041,1,1.04346,-0.04688,0.04443,-6.214,3.763,-0.992
2026-05-21 17:13:18.041,1267137497,29041,2,0.93433,0.09302,0.68237,-8.382,0.015,0.313
2026-05-21 17:13:18.241,1267137697,29241,1,1.052,-0.04517,0.04321,6.015,0.626,1.779
2026-05-21 17:13:18.241,1267137697,29241,2,0.95459,0.12769,0.65674,22.931,2.267,2.305
2026-05-21 17:13:18.536,1267137992,29536,1,1.04541,-0.03027,0.06055,16.305,-4.969,-1.115
2026-05-21 17:13:18.536,1267137992,29536,2,0.93433,0.1709,0.69092,9.183,-0.16,-1.794
2026-05-21 17:13:19.736,1267139192,29736,1,1.06396,0.01831,0.01025,7.328,-0.626,-0.756
2026-05-21 17:13:19.736,1267139192,29736,2,0.93579,0.20337,0.65796,-4.756,0.366,-1.756
2026-05-21 17:13:19.988,1267139444,29988,1,1.05981,0.03638,0.02441,-18.893,5.008,-2.809
2026-05-21 17:13:19.988,1267139444,29988,2,0.92578,0.15942,0.67578,-18.206,-2.366,3.496
2026-05-21 17:13:19.188,1267138644,30188,1,1.05078,-0.03149,0.05029,-12.603,7.389,0.992
2026-05-21 17:13:19.188,1267138644,30188,2,0.92871,0.15503,0.67798,0.008,5.649,3.672
2026-05-21 17:13:19.388,1267138844,30388,1,1.04517,-0.02539,0.07471,-14.275,5.977,2.473
2026-05-21 17:13:19.388,1267138844,30388,2,0.91846,0.1272,0.69775,-19.0,1.962,1.107
2026-05-21 17:13:20.588,1267140044,30588,1,1.03833,-0.04346,0.0918,-10.267,2.298,8.191
2026-05-21 17:13:20.588,1267140044,30588,2,0.91577,0.10132,0.70898,-15.176,4.748,6.397
2026-05-21 17:13:20.788,1267140244,30788,1,1.03955,-0.09961,0.07568,-22.634,1.382,7.863
2026-05-21 17:13:20.788,1267140244,30788,2,0.93188,0.08032,0.7207,-21.954,-1.832,1.153
2026-05-21 17:13:20.988,1267140444,30988,1,1.05005,-0.13794,0.07129,-16.847,-0.26,-2.939
2026-05-21 17:13:20.988,1267140444,30988,2,0.93311,0.05688,0.71509,-20.42,-1.26,-4.038
2026-05-21 17:13:20.276,1267139732,31276,1,1.03516,-0.09741,0.09741,14.153,-1.679,-1.656
2026-05-21 17:13:20.276,1267139732,31276,2,0.9231,0.0813,0.71753,29.718,11.183,5.656
2026-05-21 17:13:20.476,1267139932,31476,1,1.03662,-0.0813,0.08105,-17.832,5.74,-3.374
2026-05-21 17:13:20.476,1267139932,31476,2,0.91919,0.03662,0.7168,-35.076,-3.076,-7.618
2026-05-21 17:13:21.676,1267141132,31676,1,1.02246,-0.09033,0.12427,-4.656,1.45,-0.107
2026-05-21 17:13:21.676,1267141132,31676,2,0.9353,0.07178,0.69116,-19.458,1.802,-7.374
2026-05-21 17:13:24.675,1267144131,34675,1,1.04956,0.03101,0.07104,-12.649,2.786,-6.107
2026-05-21 17:13:24.675,1267144131,34675,2,0.93677,0.07544,0.68433,-2.458,0.992,-1.458
2026-05-21 17:13:24.875,1267144331,34875,1,1.04517,0.03296,0.06689,-10.603,1.252,-4.16
2026-05-21 17:13:24.875,1267144331,34875,2,0.93652,0.07568,0.69116,-12.328,1.107,-1.198
2026-05-21 17:13:24.075,1267143531,35075,1,1.0459,0.04321,0.07593,-5.214,2.031,-1.519
2026-05-21 17:13:24.075,1267143531,35075,2,0.9436,0.08545,0.72461,-0.321,7.763,2.733
2026-05-21 17:13:24.275,1267143731,35275,1,1.03271,0.03369,0.09082,-1.145,0.061,0.359
2026-05-21 17:13:24.275,1267143731,35275,2,0.93457,0.07275,0.69849,1.802,0.832,3.061
2026-05-21T17:13:35.935980,,,,,,,,,
2026-05-21 17:13:35.388,1267154844,8388,1,1.15039,0.22729,-0.13208,-117.733,-39.023,13.58
2026-05-21 17:13:35.388,1267154844,8388,2,0.7334,-0.18018,0.57715,-156.344,61.565,-23.275
2026-05-21 17:13:35.588,1267155044,8588,1,0.8064,-0.07275,-0.25391,169.031,-186.664,58.374
2026-05-21 17:13:35.588,1267155044,8588,2,1.06299,-0.13208,0.41968,38.298,21.298,-23.702
2026-05-21 17:13:35.788,1267155244,8788,1,0.94336,-0.35425,0.58936,-97.015,165.855,-11.992
2026-05-21 17:13:35.788,1267155244,8788,2,0.92505,0.0498,0.58667,-42.382,16.038,-12.992
2026-05-21 17:13:36.988,1267156444,8988,1,0.74048,0.09253,0.12939,-218.359,230.947,-99.031
2026-05-21 17:13:36.988,1267156444,8988,2,1.16626,0.00952,0.04028,96.191,-15.634,-6.015
2026-05-21 17:13:36.188,1267155644,9188,1,1.03174,-0.06812,0.02368,35.802,27.191,-2.557
2026-05-21 17:13:36.188,1267155644,9188,2,1.01221,0.13916,0.37573,74.336,-103.771,31.885
2026-05-21 17:13:36.388,1267155844,9388,1,0.99878,-0.20825,0.00635,-192.489,15.809,-8.695
2026-05-21 17:13:36.388,1267155844,9388,2,0.83667,0.25244,0.50415,-23.71,-62.656,-13.084
2026-05-21 17:13:39.057,1267158513,12057,1,1.12793,0.13062,0.14575,-40.206,-18.916,7.137
2026-05-21 17:13:39.057,1267158513,12057,2,0.97217,0.20142,0.06274,13.16,0.74,-6.084
2026-05-21 17:13:39.294,1267158750,12294,1,1.03662,0.01367,0.13916,-11.527,30.992,-3.702
2026-05-21 17:13:39.294,1267158750,12294,2,0.89673,0.19849,0.07642,-0.794,-11.015,8.786
2026-05-21 17:13:39.494,1267158950,12494,1,1.04175,0.0188,0.09717,-10.107,6.313,1.229
2026-05-21 17:13:39.494,1267158950,12494,2,0.70898,-0.3374,0.0542,114.29,55.634,60.328
2026-05-21 17:13:39.694,1267159150,12694,1,1.05884,-0.07813,0.19824,-37.718,13.344,-1.122
2026-05-21 17:13:39.694,1267159150,12694,2,0.91895,0.07617,0.39624,-83.565,-23.137,-18.084
2026-05-21 17:13:39.894,1267159350,12894,1,1.01953,-0.01807,0.17651,14.84,-14.405,-0.29
2026-05-21 17:13:39.894,1267159350,12894,2,0.96753,0.12061,0.32666,21.183,11.962,-0.137
2026-05-21 17:13:40.094,1267159550,13094,1,1.03174,-0.00659,0.16748,-24.038,-3.16,-3.427
2026-05-21 17:13:40.094,1267159550,13094,2,0.95874,0.1228,0.29785,2.107,1.267,-0.389
2026-05-21 17:13:43.132,1267162588,16132,1,1.04028,-0.11328,0.14258,-84.107,-25.183,-22.748
2026-05-21 17:13:43.132,1267162588,16132,2,1.00635,0.16992,0.07886,-11.237,-24.718,4.786
2026-05-21 17:13:43.332,1267162788,16332,1,1.1106,-0.03906,0.12061,-65.443,5.809,2.16
2026-05-21 17:13:43.332,1267162788,16332,2,0.91797,0.0437,0.16479,37.153,-8.588,-8.748
2026-05-21 17:13:43.532,1267162988,16532,1,1.02026,0.12354,0.06934,-11.817,-15.229,12.298
2026-05-21 17:13:43.532,1267162988,16532,2,1.04883,0.12427,0.0083,-79.603,121.725,-29.626
2026-05-21 17:13:43.732,1267163188,16732,1,1.02661,-0.16821,0.00415,-38.649,-9.618,-10.198
2026-05-21 17:13:43.732,1267163188,16732,2,1.09766,-0.08911,0.30298,-69.84,-28.389,-7.427
2026-05-21 17:13:43.932,1267163388,16932,1,1.03735,-0.06372,0.08789,86.511,-0.786,17.519
2026-05-21 17:13:43.932,1267163388,16932,2,0.98438,0.07178,0.37329,10.405,-11.588,5.87
2026-05-21 17:13:44.140,1267163596,17140,1,1.05273,-0.08081,0.06348,-8.023,8.771,2.267
2026-05-21 17:13:44.140,1267163596,17140,2,0.92236,0.55273,1.13916,191.038,-247.534,-55.634
2026-05-21 17:13:44.340,1267163796,17340,1,1.16895,-0.02222,0.29956,34.748,-18.832,9.924
2026-05-21 17:13:44.340,1267163796,17340,2,0.92676,0.23242,0.27466,-28.779,39.695,0.397
2026-05-21 17:13:44.540,1267163996,17540,1,1.09399,0.01709,0.00806,85.099,-20.45,10.427
2026-05-21 17:13:44.540,1267163996,17540,2,0.91138,0.09766,0.24023,32.832,-16.427,-56.595
2026-05-21 17:13:44.740,1267164196,17740,1,1.0,-0.03491,-0.03491,-5.321,-36.641,4.45
2026-05-21 17:13:44.740,1267164196,17740,2,0.86914,0.12646,0.21777,-17.855,2.061,15.328
2026-05-21 17:13:44.940,1267164396,17940,1,1.08276,-0.08203,0.04541,-21.282,1.656,-1.214
2026-05-21 17:13:44.940,1267164396,17940,2,1.03125,0.1543,0.16406,-84.962,-9.198,31.275
2026-05-21 17:13:45.140,1267164596,18140,1,1.06982,-0.04834,0.05298,-9.679,-12.626,6.023
2026-05-21 17:13:45.140,1267164596,18140,2,0.98096,-0.00317,0.28906,2.618,20.939,41.977
2026-05-21 17:13:45.340,1267164796,18340,1,1.03369,-0.09497,0.13867,3.16,-50.573,2.305
2026-05-21 17:13:45.340,1267164796,18340,2,0.9895,0.04004,0.13477,73.008,-3.794,9.099
2026-05-21 17:13:45.540,1267164996,18540,1,1.01904,-0.05542,0.04663,40.702,-31.344,16.931
2026-05-21 17:13:45.540,1267164996,18540,2,0.9209,0.10864,0.45605,-36.481,-60.893,2.718
2026-05-21 17:13:45.740,1267165196,18740,1,1.03857,-0.12573,0.20874,36.695,37.29,1.641
2026-05-21 17:13:45.740,1267165196,18740,2,0.93823,0.04541,0.39673,-140.901,22.473,-17.924
2026-05-21 17:13:45.940,1267165396,18940,1,0.98389,-0.14526,0.16772,4.55,19.183,-2.893
2026-05-21 17:13:45.940,1267165396,18940,2,1.08643,-0.00537,0.33838,21.794,2.489,-8.901
2026-05-21 17:13:46.140,1267165596,19140,1,0.99292,-0.06665,0.07007,-12.977,19.031,-2.412
2026-05-21 17:13:46.140,1267165596,19140,2,1.00073,0.00366,0.31543,27.679,13.855,2.031
2026-05-21 17:13:46.340,1267165796,19340,1,1.03223,-0.07178,0.10376,-22.695,2.061,1.786
2026-05-21 17:13:46.340,1267165796,19340,2,1.0022,0.04565,0.35693,1.122,-1.802,3.038
2026-05-21 17:13:46.540,1267165996,19540,1,1.03735,-0.08789,0.11182,-1.702,-3.031,1.42
2026-05-21 17:13:46.540,1267165996,19540,2,0.96045,0.03833,0.36353,1.405,18.603,-1.573
2026-05-21 17:13:46.740,1267166196,19740,1,1.04834,-0.08936,0.11084,-13.947,4.725,-1.893
2026-05-21 17:13:46.740,1267166196,19740,2,0.9248,0.11084,0.42285,-71.313,-39.137,-1.504
2026-05-21 17:13:46.940,1267166396,19940,1,1.0542,-0.05322,0.08521,13.947,-5.756,-3.321
2026-05-21 17:13:46.940,1267166396,19940,2,1.00073,0.05444,0.40015,103.763,63.252,20.466
2026-05-21 17:13:47.140,1267166596,20140,1,0.97803,0.00928,-0.11084,-53.626,-34.321,3.893
2026-05-21 17:13:47.140,1267166596,20140,2,0.99438,0.04053,0.63013,12.725,16.511,29.031
2026-05-21 17:13:47.340,1267166796,20340,1,1.27808,-0.13647,0.35254,-60.687,78.397,-39.595
2026-05-21 17:13:47.340,1267166796,20340,2,0.81982,-0.09253,0.71729,-92.389,-7.038,-20.031
2026-05-21 17:13:47.540,1267166996,20540,1,1.03979,-0.09399,0.21899,20.519,29.122,-5.366
2026-05-21 17:13:47.540,1267166996,20540,2,0.91284,0.01978,0.43628,46.527,0.962,8.977
2026-05-21 17:13:47.740,1267167196,20740,1,0.9082,0.25,-0.21411,67.84,-117.809,34.328
2026-05-21 17:13:47.740,1267167196,20740,2,0.95459,0.03027,0.41138,21.336,17.107,8.412
2026-05-21 17:13:50.859,1267170315,23859,1,1.03491,-0.14258,0.07544,14.321,-20.924,-7.473
2026-05-21 17:13:50.859,1267170315,23859,2,0.94995,0.02979,0.47046,3.443,-4.656,2.359
2026-05-21 17:13:51.059,1267170515,24059,1,1.04321,-0.02051,0.04004,0.527,-25.672,-3.359
2026-05-21 17:13:51.059,1267170515,24059,2,1.05396,-0.1189,0.54932,117.588,65.626,52.939
2026-05-21 17:13:51.259,1267170715,24259,1,1.05566,-0.02637,0.06934,-31.595,-20.221,-3.504
2026-05-21 17:13:51.259,1267170715,24259,2,1.07495,-0.01172,0.21606,-105.924,-55.305,-0.542
2026-05-21 17:13:51.459,1267170915,24459,1,1.0769,-0.09692,0.07153,41.878,8.557,3.13
2026-05-21 17:13:51.459,1267170915,24459,2,0.97388,0.03345,0.30591,83.969,7.092,14.885
2026-05-21 17:13:51.659,1267171115,24659,1,1.05811,-0.04688,0.08301,4.099,2.107,0.397
2026-05-21 17:13:51.659,1267171115,24659,2,0.97534,0.11035,0.33496,-28.779,-13.489,-7.466
2026-05-21 17:13:51.859,1267171315,24859,1,1.05933,-0.03467,0.05933,-3.008,2.069,-0.496
2026-05-21 17:13:51.859,1267171315,24859,2,0.97021,0.08276,0.43726,5.802,4.053,-2.031
2026-05-21 17:13:52.059,1267171515,25059,1,1.06519,0.10645,0.04712,-23.275,5.954,-1.863
2026-05-21 17:13:52.059,1267171515,25059,2,1.00415,0.21802,0.48804,-31.061,26.061,10.893
2026-05-21 17:13:52.259,1267171715,25259,1,1.03101,-0.03076,0.0354,-118.046,32.656,-18.992
2026-05-21 17:13:52.259,1267171715,25259,2,0.93652,-0.04224,0.45459,-185.87,2.511,-1.947
2026-05-21 17:13:52.459,1267171915,25459,1,0.98926,-0.36377,0.21436,-105.634,31.656,-34.183
2026-05-21 17:13:52.459,1267171915,25459,2,0.93384,-0.05127,0.45044,-73.931,-13.397,-15.565
2026-05-21 17:13:52.659,1267172115,25659,1,1.00806,-0.16309,0.18311,-16.725,-18.45,-40.489
2026-05-21 17:13:52.659,1267172115,25659,2,0.98096,-0.00293,0.4873,-31.031,-8.763,-18.672
2026-05-21 17:13:52.859,1267172315,25859,1,1.04077,-0.01294,0.0835,-34.885,-6.275,-45.443
2026-05-21 17:13:52.859,1267172315,25859,2,0.61011,0.19531,0.54907,0.023,9.87,-16.832
2026-05-21 17:13:53.059,1267172515,26059,1,0.93872,0.18213,-0.15869,-65.122,4.13,-32.0
2026-05-21 17:13:53.059,1267172515,26059,2,0.7959,0.32446,0.32568,-105.802,-8.298,-47.069
2026-05-21 17:13:53.259,1267172715,26259,1,1.03149,0.20386,0.08301,-20.794,2.802,-20.473
2026-05-21 17:13:53.259,1267172715,26259,2,0.86768,0.25635,0.35718,-11.496,25.786,6.092
2026-05-21 17:13:53.459,1267172915,26459,1,1.0376,0.18652,0.08203,-69.817,-6.573,-16.756
2026-05-21 17:13:53.459,1267172915,26459,2,0.95386,0.12134,0.42993,-19.023,-22.771,-6.992
2026-05-21 17:13:53.659,1267173115,26659,1,1.02124,0.17261,0.11548,9.153,-8.099,-4.359
2026-05-21 17:13:53.659,1267173115,26659,2,0.95313,0.20947,0.40601,20.366,5.168,-9.702
2026-05-21 17:13:53.859,1267173315,26859,1,1.04541,0.19116,0.05444,-11.87,6.153,-0.87
2026-05-21 17:13:53.859,1267173315,26859,2,0.9104,0.19946,0.39771,-12.634,-2.901,1.481
2026-05-21 17:13:54.059,1267173515,27059,1,1.04272,0.21118,0.02759,3.519,0.74,9.0
2026-05-21 17:13:54.059,1267173515,27059,2,0.93677,0.23706,0.34985,0.351,7.008,6.977
2026-05-21 17:13:54.259,1267173715,27259,1,1.02588,0.1853,0.03662,-19.824,2.656,1.649
2026-05-21 17:13:54.259,1267173715,27259,2,0.94922,0.20605,0.3689,-11.718,6.687,8.382
2026-05-21 17:13:54.459,1267173915,27459,1,1.02222,0.16309,0.06836,-0.305,1.359,3.802
2026-05-21 17:13:54.459,1267173915,27459,2,0.94873,0.20972,0.375,-2.931,4.557,4.847
2026-05-21 17:13:54.659,1267174115,27659,1,1.01807,0.17676,0.06885,-4.832,6.534,3.977
2026-05-21 17:13:54.659,1267174115,27659,2,0.97412,0.2085,0.37988,5.947,4.901,2.344
2026-05-21 17:13:54.859,1267174315,27859,1,1.02539,0.16309,0.08569,-7.198,1.435,0.374
2026-05-21 17:13:54.859,1267174315,27859,2,0.95776,0.18896,0.37646,-7.427,-0.176,1.87
2026-05-21 17:13:55.059,1267174515,28059,1,1.03613,0.15601,0.07593,0.053,-4.802,-1.611
2026-05-21 17:13:55.059,1267174515,28059,2,0.96704,0.18677,0.38037,1.992,0.969,-0.344
2026-05-21 17:13:55.259,1267174715,28259,1,1.03687,0.16479,0.07056,-4.618,-1.328,-0.481
2026-05-21 17:13:55.259,1267174715,28259,2,0.95239,0.18848,0.36694,-3.069,-1.649,0.977
2026-05-21 17:13:55.459,1267174915,28459,1,1.03662,0.16675,0.05444,-0.916,-2.458,1.26
2026-05-21 17:13:55.459,1267174915,28459,2,0.95264,0.19214,0.35938,-3.092,0.122,-1.634
2026-05-21 17:13:55.659,1267175115,28659,1,1.02954,0.1311,0.06982,2.656,2.786,2.344
2026-05-21 17:13:55.659,1267175115,28659,2,0.95874,0.19702,0.36743,9.641,4.267,-2.511
2026-05-21 17:13:55.859,1267175315,28859,1,1.04395,0.15015,0.05591,17.496,-2.168,5.031
2026-05-21 17:13:55.859,1267175315,28859,2,0.93408,0.21777,0.39771,7.237,2.916,-3.954
2026-05-21 17:13:56.059,1267175515,29059,1,1.05786,0.10425,0.0459,17.779,9.565,2.214
2026-05-21 17:13:56.059,1267175515,29059,2,0.96411,0.22681,0.3667,42.756,11.977,2.26
2026-05-21 17:13:56.259,1267175715,29259,1,1.02808,0.19507,0.05371,56.985,12.252,10.053
2026-05-21 17:13:56.259,1267175715,29259,2,0.94702,0.24805,0.38599,24.496,4.053,0.16
2026-05-21 17:13:56.459,1267175915,29459,1,1.01929,0.17749,0.06787,10.221,5.176,2.321
2026-05-21 17:13:56.459,1267175915,29459,2,0.94141,0.25879,0.37622,12.458,8.84,-2.779
2026-05-21 17:13:56.659,1267176115,29659,1,0.98511,0.15186,0.10547,-1.618,-1.168,11.29
2026-05-21 17:13:56.659,1267176115,29659,2,0.93872,0.24365,0.42554,-7.649,-7.534,-5.824
2026-05-21 17:13:56.859,1267176315,29859,1,1.0144,0.13208,0.01709,8.855,23.817,5.74
2026-05-21 17:13:56.859,1267176315,29859,2,0.95752,0.25073,0.39893,34.443,9.504,12.0
2026-05-21 17:13:57.059,1267176515,30059,1,1.05493,0.11646,0.03931,33.565,7.534,13.534
2026-05-21 17:13:57.059,1267176515,30059,2,0.9165,0.26978,0.33447,19.443,8.718,2.779
2026-05-21 17:13:57.259,1267176715,30259,1,1.0481,0.12549,0.0769,-1.656,9.382,1.985
2026-05-21 17:13:57.259,1267176715,30259,2,0.95215,0.20532,0.44165,-18.74,-0.809,8.198
2026-05-21 17:13:57.459,1267176915,30459,1,1.01758,0.08081,0.12183,-1.832,6.595,7.053
2026-05-21 17:13:57.459,1267176915,30459,2,0.94751,0.23242,0.40552,-6.534,-13.321,6.42
2026-05-21 17:13:57.721,1267177177,30721,1,1.02637,0.07422,0.0896,-19.786,-2.947,-4.939
2026-05-21 17:13:57.721,1267177177,30721,2,0.96411,0.19507,0.39111,1.321,13.656,3.603
2026-05-21 17:13:58.978,1267178434,30978,1,1.04492,0.06787,0.07983,-12.908,-3.702,-6.649
2026-05-21 17:13:58.978,1267178434,30978,2,0.96851,0.19067,0.41675,1.863,4.962,0.802
2026-05-21 17:13:58.178,1267177634,31178,1,1.02588,0.08521,0.10156,11.588,1.053,2.771
2026-05-21 17:13:58.178,1267177634,31178,2,0.95215,0.20142,0.39941,20.626,8.908,1.237
2026-05-21 17:13:58.490,1267177946,31490,1,1.03442,0.05908,0.10278,-7.229,2.267,-1.115
2026-05-21 17:13:58.490,1267177946,31490,2,0.94336,0.20654,0.41284,5.962,4.023,3.42
2026-05-21 17:13:58.690,1267178146,31690,1,1.0354,0.09937,0.08643,-2.87,-2.26,-3.42
2026-05-21 17:13:58.690,1267178146,31690,2,0.95532,0.20776,0.40527,-3.542,0.878,-0.45
2026-05-21 17:13:58.890,1267178346,31890,1,1.05054,0.11694,0.08667,-5.992,-1.351,-4.733
2026-05-21 17:13:58.890,1267178346,31890,2,0.95166,0.20361,0.40479,-7.656,-1.153,0.939
2026-05-21 17:13:59.090,1267178546,32090,1,1.02515,0.09351,0.10864,-4.672,-0.374,-2.176
2026-05-21 17:13:59.090,1267178546,32090,2,0.95898,0.19531,0.39526,2.832,2.672,0.153
2026-05-21 17:14:02.183,1267181639,35183,1,1.04028,0.14746,0.0459,6.802,-5.885,0.214
2026-05-21 17:14:02.183,1267181639,35183,2,0.96631,0.15503,0.33203,2.366,-5.084,1.29
2026-05-21 17:14:02.383,1267181839,35383,1,1.04395,0.13794,0.03101,0.863,-0.565,-0.779
2026-05-21 17:14:02.383,1267181839,35383,2,0.95752,0.15942,0.33936,-1.924,3.573,1.496
2026-05-21 17:14:02.659,1267182115,35659,1,1.0376,0.14111,0.04053,-2.298,0.176,-0.084
2026-05-21 17:14:02.659,1267182115,35659,2,0.96069,0.16211,0.32349,-0.626,-2.534,1.718
2026-05-21 17:14:02.859,1267182315,35859,1,1.01978,0.2063,0.05054,-6.336,-5.26,2.687
2026-05-21 17:14:02.859,1267182315,35859,2,0.95947,0.1748,0.33423,-20.191,-4.321,10.611
2026-05-21 17:14:05.787,1267185243,38787,1,1.10547,0.07324,0.04932,-2.252,-1.878,1.145
2026-05-21 17:14:05.787,1267185243,38787,2,0.97607,0.09448,0.28027,-10.947,4.26,2.389
2026-05-21 17:14:06.068,1267185524,39068,1,1.04077,0.05054,0.09302,-0.985,-3.282,-0.504
2026-05-21 17:14:06.068,1267185524,39068,2,0.9646,0.07227,0.33667,-4.58,-2.718,0.817
2026-05-21 17:14:06.268,1267185724,39268,1,1.06763,0.05444,0.06445,-1.832,-1.786,-1.397
2026-05-21 17:14:06.268,1267185724,39268,2,0.96191,0.08032,0.33081,-0.443,0.443,1.962
2026-05-21 17:14:06.468,1267185924,39468,1,1.04346,0.04712,0.06055,-9.481,-4.939,-0.992
2026-05-21 17:14:06.468,1267185924,39468,2,0.97217,0.08057,0.30493,-5.802,-0.527,0.427
2026-05-21 17:14:06.668,1267186124,39668,1,1.04785,0.05054,0.06079,-1.206,-0.473,0.443
2026-05-21 17:14:06.668,1267186124,39668,2,0.96582,0.08862,0.32349,-2.878,0.443,1.748
2026-05-21 17:14:06.868,1267186324,39868,1,1.05151,0.04419,0.05371,-2.595,1.519,1.275
2026-05-21 17:14:06.868,1267186324,39868,2,0.96509,0.08276,0.32349,0.023,2.267,2.603
2026-05-21 17:14:07.068,1267186524,40068,1,1.05225,0.03394,0.07495,-1.985,1.687,1.656
2026-05-21 17:14:07.068,1267186524,40068,2,0.96021,0.07593,0.33179,-2.458,2.458,1.763
2026-05-21 17:14:07.268,1267186724,40268,1,1.04004,0.03174,0.0769,-2.901,1.519,1.542
2026-05-21 17:14:07.268,1267186724,40268,2,0.96948,0.07642,0.33179,-0.336,1.908,2.603
2026-05-21 17:14:07.468,1267186924,40468,1,1.04468,0.01147,0.07324,-0.321,-0.237,0.595
2026-05-21 17:14:07.468,1267186924,40468,2,0.99121,0.06934,0.3291,0.573,-1.718,0.557
2026-05-21 17:14:07.668,1267187124,40668,1,0.97998,0.05103,0.04663,-17.527,1.84,-3.893
2026-05-21 17:14:07.668,1267187124,40668,2,0.89648,0.10327,0.30469,8.504,12.015,-7.481
2026-05-21 17:14:07.868,1267187324,40868,1,1.04175,0.04443,0.05542,33.954,-2.031,-1.718
2026-05-21 17:14:07.868,1267187324,40868,2,0.93188,0.04517,0.37866,25.298,11.885,-12.321
2026-05-21 17:14:08.068,1267187524,41068,1,1.02881,0.05078,-0.03467,55.42,10.229,12.74
2026-05-21 17:14:08.068,1267187524,41068,2,0.96631,0.12891,0.32568,47.26,26.534,-0.779
2026-05-21 17:14:08.268,1267187724,41268,1,1.01563,0.02905,0.03369,59.725,1.504,17.756
2026-05-21 17:14:08.268,1267187724,41268,2,0.97437,0.15918,0.34473,68.855,-1.504,-1.763
2026-05-21 17:14:08.468,1267187924,41468,1,1.06445,0.0625,0.00391,51.237,0.649,7.573
2026-05-21 17:14:08.468,1267187924,41468,2,0.96362,0.17676,0.35229,40.061,1.435,-6.534
2026-05-21 17:14:08.668,1267188124,41668,1,1.07031,0.09668,-0.00244,29.344,10.985,3.344
2026-05-21 17:14:08.668,1267188124,41668,2,0.93774,0.21802,0.33838,27.26,9.939,-0.817
2026-05-21 17:14:08.868,1267188324,41868,1,0.93945,0.0791,-0.06543,-31.092,9.939,2.779
2026-05-21 17:14:08.868,1267188324,41868,2,0.96484,0.22217,0.36816,-4.641,-4.924,0.053
2026-05-21 17:14:09.202,1267188658,42202,1,1.05469,0.0791,-0.0332,-23.046,5.718,3.74
2026-05-21 17:14:09.202,1267188658,42202,2,0.93774,0.18628,0.39868,-2.16,9.0,3.725
2026-05-21 17:14:09.528,1267188984,42528,1,1.0271,0.07446,0.08276,-15.206,1.817,-3.588
2026-05-21 17:14:09.528,1267188984,42528,2,0.97681,0.13354,0.38525,-12.832,1.542,1.786
2026-05-21 17:14:09.935,1267189391,42935,1,1.03857,-0.04053,0.06299,0.542,-0.565,8.122
2026-05-21 17:14:09.935,1267189391,42935,2,0.95703,0.12207,0.43457,-3.924,5.672,-2.489
2026-05-21 17:14:10.135,1267189591,43135,1,1.05762,-0.0481,0.0188,16.58,-5.351,5.511
2026-05-21 17:14:10.135,1267189591,43135,2,0.9668,0.11011,0.3916,0.496,-0.176,-1.939
2026-05-21 17:14:10.335,1267189791,43335,1,1.05664,-0.06616,0.07178,23.977,-3.458,6.008
2026-05-21 17:14:10.335,1267189791,43335,2,1.00586,0.10376,0.45825,34.55,-3.969,0.443
2026-05-21 17:14:10.535,1267189991,43535,1,1.08032,-0.08911,0.05176,34.153,10.603,-2.611
2026-05-21 17:14:10.535,1267189991,43535,2,0.84644,0.13745,0.45044,-108.779,15.45,-30.885
2026-05-21 17:14:13.799,1267193255,46799,1,1.10254,0.03296,0.11938,-72.328,-3.092,0.573
2026-05-21 17:14:13.799,1267193255,46799,2,1.55054,0.01392,0.60327,6.84,-109.878,3.817
2026-05-21 17:14:14.999,1267194455,46999,1,1.22559,0.03003,-0.00757,-53.656,-69.87,-9.588
2026-05-21 17:14:14.999,1267194455,46999,2,0.77637,0.10791,0.39233,-54.221,48.511,34.786
2026-05-21 17:14:14.216,1267193672,47216,1,0.91968,-0.20947,0.06104,-38.115,16.947,-17.779
2026-05-21 17:14:14.216,1267193672,47216,2,0.88916,-0.07495,0.2854,-65.008,-5.031,-15.122
2026-05-21 17:14:14.462,1267193918,47462,1,1.0166,0.17529,0.11792,25.763,-45.046,-1.374
2026-05-21 17:14:14.462,1267193918,47462,2,0.97852,0.13696,0.65112,144.58,-1.0,10.321
2026-05-21 17:14:14.662,1267194118,47662,1,0.8269,0.14868,-0.08032,44.229,4.832,25.557
2026-05-21 17:14:14.662,1267194118,47662,2,0.7793,0.01782,0.48242,-36.298,32.458,-28.099
2026-05-21 17:14:14.862,1267194318,47862,1,1.00684,0.08154,0.01367,-4.336,-8.0,20.908
2026-05-21 17:14:14.862,1267194318,47862,2,1.05591,0.23999,0.31079,58.13,23.031,15.878
2026-05-21 17:14:15.062,1267194518,48062,1,1.09448,0.06763,-0.26978,62.817,-55.626,3.351
2026-05-21 17:14:15.062,1267194518,48062,2,1.19556,-0.34009,0.81738,83.084,9.84,-11.534
2026-05-21 17:14:15.262,1267194718,48262,1,0.95435,-0.19238,0.05151,36.802,50.771,-10.908
2026-05-21 17:14:15.262,1267194718,48262,2,0.90259,0.00073,0.53418,38.061,-8.832,-4.504
2026-05-21 17:14:15.462,1267194918,48462,1,1.10938,-0.07544,0.07544,131.695,-4.74,20.618
2026-05-21 17:14:15.462,1267194918,48462,2,0.7832,0.44141,0.39404,54.122,32.206,-0.901
2026-05-21 17:14:15.734,1267195190,48734,1,0.91455,0.32568,0.19775,2.26,-1.092,5.756
2026-05-21 17:14:15.734,1267195190,48734,2,0.85571,0.28052,0.64185,4.573,-5.977,-3.16
2026-05-21 17:14:15.934,1267195390,48934,1,0.96509,0.0061,0.2854,-35.519,26.427,-8.74
2026-05-21 17:14:15.934,1267195390,48934,2,0.96777,0.0896,0.62183,-12.832,0.71,10.191
2026-05-21 17:14:16.134,1267195590,49134,1,1.01563,0.09888,0.0835,131.496,-3.031,29.718
2026-05-21 17:14:16.134,1267195590,49134,2,0.92358,0.25562,0.49561,155.115,40.252,2.565
2026-05-21 17:14:16.334,1267195790,49334,1,1.00659,0.18335,0.13574,-9.748,-5.656,-0.153
2026-05-21 17:14:16.334,1267195790,49334,2,0.89307,0.23535,0.55298,-27.809,4.13,3.435
2026-05-21 17:14:16.534,1267195990,49534,1,1.0083,0.07666,0.15723,-13.481,-7.611,2.931
2026-05-21 17:14:16.534,1267195990,49534,2,0.94922,0.19604,0.55542,-12.115,-12.229,-16.29
2026-05-21 17:14:16.734,1267196190,49734,1,1.0835,0.02563,0.11353,2.87,-6.061,0.107
2026-05-21 17:14:16.734,1267196190,49734,2,0.97681,0.2522,0.55151,30.038,14.198,-13.802
2026-05-21 17:14:16.934,1267196390,49934,1,0.99487,0.21948,0.15039,38.847,21.275,-4.748
2026-05-21 17:14:16.934,1267196390,49934,2,0.86841,0.29907,0.56006,53.008,37.664,-2.412
2026-05-21 17:14:17.134,1267196590,50134,1,0.97241,0.25586,0.19385,38.771,-1.374,21.832
2026-05-21 17:14:17.134,1267196590,50134,2,0.85791,0.27734,0.49341,21.771,5.282,20.687
2026-05-21 17:14:17.334,1267196790,50334,1,0.99927,0.20215,0.15991,62.878,-3.756,35.679
2026-05-21 17:14:17.334,1267196790,50334,2,0.91162,0.34229,0.53027,116.84,15.664,29.42
2026-05-21 17:14:17.534,1267196990,50534,1,1.08545,0.03174,0.02979,67.267,0.847,42.076
2026-05-21 17:14:17.534,1267196990,50534,2,0.97485,0.08643,0.45825,39.557,1.718,16.931
2026-05-21 17:14:17.734,1267197190,50734,1,1.16504,-0.0979,0.1521,116.412,1.992,47.046
2026-05-21 17:14:17.734,1267197190,50734,2,0.83618,-0.10986,0.51245,135.229,27.443,40.137
2026-05-21 17:14:17.934,1267197390,50934,1,1.02441,-0.07617,0.03809,63.13,14.176,35.328
2026-05-21 17:14:17.934,1267197390,50934,2,0.94678,0.06714,0.41016,35.366,17.878,12.275
2026-05-21 17:14:18.134,1267197590,51134,1,1.00879,-0.13477,0.0647,-0.84,11.298,1.756
2026-05-21 17:14:18.134,1267197590,51134,2,0.86597,0.11011,0.56641,59.489,54.641,2.435
2026-05-21 17:14:18.430,1267197886,51430,1,1.01758,-0.02026,0.19189,28.519,-35.611,11.412
2026-05-21 17:14:18.430,1267197886,51430,2,1.08569,0.21143,0.50391,64.511,4.13,-2.969
2026-05-21 17:14:18.630,1267198086,51630,1,0.98242,-0.0022,0.02002,-3.16,17.008,11.656
2026-05-21 17:14:18.630,1267198086,51630,2,0.84888,0.15527,0.36523,-20.198,10.534,-5.664
2026-05-21 17:14:18.830,1267198286,51830,1,1.11157,-0.00171,0.07617,2.328,-32.275,20.16
2026-05-21 17:14:18.830,1267198286,51830,2,1.34595,-0.11011,0.22998,-30.046,-24.695,-16.489
2026-05-21 17:14:19.030,1267198486,52030,1,1.17896,-0.16895,0.44849,-84.359,44.733,-22.153
2026-05-21 17:14:19.030,1267198486,52030,2,0.89673,0.07617,0.36548,-99.214,5.397,6.947
2026-05-21 17:14:19.230,1267198686,52230,1,0.88623,-0.1958,0.04004,-62.061,17.015,-21.58
2026-05-21 17:14:19.230,1267198686,52230,2,0.80518,0.00488,0.53394,-58.878,-10.344,-21.504
2026-05-21 17:14:19.430,1267198886,52430,1,1.22705,0.1731,0.07104,22.603,-66.878,12.817
2026-05-21 17:14:19.430,1267198886,52430,2,0.97729,0.01904,0.69092,62.183,90.229,23.74
2026-05-21 17:14:19.630,1267199086,52630,1,0.85327,0.02148,-0.02783,28.351,19.771,13.084
2026-05-21 17:14:19.630,1267199086,52630,2,0.85498,-0.00635,0.48267,-1.053,-16.725,-46.679
2026-05-21 17:14:19.830,1267199286,52830,1,0.98291,0.09448,0.01318,-25.954,25.206,11.0
2026-05-21 17:14:19.830,1267199286,52830,2,1.13037,0.11963,0.42651,40.565,-27.084,14.618
2026-05-21 17:14:20.030,1267199486,53030,1,1.06982,-0.23584,0.18701,44.504,13.351,9.718
2026-05-21 17:14:20.030,1267199486,53030,2,0.9126,0.21851,0.45142,-10.29,-37.137,12.382
2026-05-21 17:14:23.109,1267202565,56109,1,1.01538,0.06055,0.13037,29.084,-13.328,28.58
2026-05-21 17:14:23.109,1267202565,56109,2,0.95557,0.21558,0.48657,31.962,-4.519,11.802
2026-05-21 17:14:23.309,1267202765,56309,1,1.02734,-0.0481,0.19702,114.328,18.389,42.824
2026-05-21 17:14:23.309,1267202765,56309,2,0.88989,0.08936,0.427,123.557,19.71,11.863
2026-05-21 17:14:23.509,1267202965,56509,1,1.1377,-0.18408,0.16699,120.061,-15.824,48.481
2026-05-21 17:14:23.509,1267202965,56509,2,1.04541,0.15332,0.38623,155.656,13.298,10.252
2026-05-21 17:14:23.709,1267203165,56709,1,1.03711,-0.10181,0.05396,167.756,-18.87,64.824
2026-05-21 17:14:23.709,1267203165,56709,2,1.02246,0.21924,0.30908,183.863,-4.519,31.84
2026-05-21 17:14:23.909,1267203365,56909,1,1.01807,-0.02466,0.06616,81.817,1.023,21.275
2026-05-21 17:14:23.909,1267203365,56909,2,0.9751,0.13281,0.35376,9.061,20.214,-12.55
2026-05-21 17:14:24.109,1267203565,57109,1,1.04028,-0.00806,0.04053,70.832,-3.038,7.557
2026-05-21 17:14:24.109,1267203565,57109,2,0.98193,0.16455,0.50708,78.389,10.328,-4.466
2026-05-21 17:14:24.309,1267203765,57309,1,1.021,-0.00488,0.11621,16.901,16.176,-3.802
2026-05-21 17:14:24.309,1267203765,57309,2,0.96143,0.2373,0.48364,4.985,17.588,6.45
2026-05-21 17:14:24.509,1267203965,57509,1,0.99829,-0.00781,0.16968,30.664,6.473,-1.519
2026-05-21 17:14:24.509,1267203965,57509,2,0.94775,0.18433,0.46313,17.656,1.145,4.603
2026-05-21 17:14:24.759,1267204215,57758,1,1.00122,0.01807,0.15161,-0.076,-0.038,-2.137
2026-05-21 17:14:24.759,1267204215,57758,2,0.94092,0.17261,0.49683,9.069,0.061,3.023
2026-05-21 17:14:25.958,1267205414,57958,1,1.01343,0.06689,0.15381,1.916,-6.29,3.313
2026-05-21 17:14:25.958,1267205414,57958,2,0.96387,0.15527,0.4585,-2.817,-10.855,16.344
2026-05-21 17:14:25.158,1267204614,58158,1,1.05298,0.01294,0.10181,-39.084,-7.008,-1.71
2026-05-21 17:14:25.158,1267204614,58158,2,0.99292,0.11157,0.42432,-29.183,-10.947,14.733
2026-05-21 17:14:25.358,1267204814,58358,1,1.0332,-0.03687,0.10059,-30.26,-3.947,-12.351
2026-05-21 17:14:25.358,1267204814,58358,2,0.95581,0.08472,0.45459,-34.649,-2.29,-4.076
2026-05-21 17:14:25.558,1267205014,58558,1,1.04004,0.01245,0.1123,-6.534,-1.183,-10.153
2026-05-21 17:14:25.558,1267205014,58558,2,0.97681,0.07349,0.41846,-1.916,-2.557,0.344
2026-05-21 17:14:25.758,1267205214,58758,1,1.03345,0.06519,0.10059,6.969,0.206,-6.405
2026-05-21 17:14:25.758,1267205214,58758,2,0.95776,0.11548,0.40894,-2.878,0.069,0.313
2026-05-21 17:14:26.958,1267206414,58958,1,1.0376,0.08032,0.09399,-22.229,1.076,-6.855
2026-05-21 17:14:26.958,1267206414,58958,2,0.96582,0.0957,0.40063,-2.298,1.145,3.901
2026-05-21 17:14:26.158,1267205614,59158,1,1.03467,0.03857,0.10327,16.038,0.206,-1.061
2026-05-21 17:14:26.158,1267205614,59158,2,0.96631,0.08472,0.39844,11.611,3.29,-2.023
2026-05-21 17:14:26.358,1267205814,59358,1,1.03174,0.12183,0.104,11.359,0.252,1.656
2026-05-21 17:14:26.358,1267205814,59358,2,0.96826,0.11182,0.4021,9.84,0.382,4.221
2026-05-21 17:14:26.558,1267206014,59558,1,1.0498,0.10278,0.08643,5.412,0.542,4.519
2026-05-21 17:14:26.558,1267206014,59558,2,0.95825,0.11987,0.43677,14.221,7.618,3.496
2026-05-21 17:14:26.758,1267206214,59758,1,1.03833,0.0625,0.12842,-3.405,1.099,-0.084
2026-05-21 17:14:26.758,1267206214,59758,2,1.00635,0.07886,0.40161,-5.015,-3.168,5.42
2026-05-21 17:14:27.958,1267207414,59958,1,1.00171,0.11108,0.1084,-10.802,1.466,16.252
2026-05-21 17:14:27.958,1267207414,59958,2,0.96021,0.08423,0.44727,-35.0,-2.008,16.389
2026-05-21 17:14:27.158,1267206614,60158,1,1.04028,-0.17188,0.09009,-64.641,2.046,-3.099
2026-05-21 17:14:27.158,1267206614,60158,2,0.98145,-0.01294,0.34155,-54.405,8.962,-8.656
2026-05-21 17:14:27.358,1267206814,60358,1,1.03809,-0.07349,0.09033,60.924,-0.687,11.824
2026-05-21 17:14:27.358,1267206814,60358,2,0.95776,0.03906,0.40747,65.931,8.542,0.641
2026-05-21 17:14:27.558,1267207014,60558,1,1.06421,0.02271,0.06934,7.031,0.908,0.511
2026-05-21 17:14:27.558,1267207014,60558,2,0.97803,0.11597,0.44873,16.061,1.985,-4.191
2026-05-21 17:14:27.775,1267207231,60774,1,1.02466,0.01367,0.0896,-11.198,2.985,-7.344
2026-05-21 17:14:27.775,1267207231,60774,2,0.96362,0.11646,0.43335,-14.206,1.763,-1.908
2026-05-21 17:14:28.974,1267208430,60974,1,1.02808,0.03394,0.09351,-4.107,-5.031,0.336
2026-05-21 17:14:28.974,1267208430,60974,2,0.97754,0.08643,0.41528,-9.282,-1.656,7.42
2026-05-21 17:14:28.174,1267207630,61174,1,1.0354,-0.02197,0.05518,-18.611,0.588,-2.321
2026-05-21 17:14:28.174,1267207630,61174,2,0.97876,0.0708,0.40894,-27.115,-8.031,-0.305
2026-05-21 17:14:28.374,1267207830,61374,1,1.03613,-0.02417,0.0835,18.824,2.359,-1.84
2026-05-21 17:14:28.374,1267207830,61374,2,0.98438,0.06836,0.45215,40.687,6.878,-1.794
2026-05-21 17:14:28.574,1267208030,61574,1,1.0415,0.03003,0.08252,-3.924,-1.473,-2.687
2026-05-21 17:14:28.574,1267208030,61574,2,0.97559,0.05054,0.43726,-11.527,4.55,-4.282
2026-05-21 17:14:28.774,1267208230,61774,1,1.0459,0.01709,0.08032,1.374,4.153,1.641
2026-05-21 17:14:28.774,1267208230,61774,2,0.97412,0.07227,0.42603,7.695,4.16,2.191
2026-05-21 17:14:29.974,1267209430,61974,1,1.05151,0.03809,0.10547,0.519,6.588,-8.573
2026-05-21 17:14:29.974,1267209430,61974,2,0.97314,0.06543,0.43335,0.649,-0.137,-3.321
2026-05-21 17:14:29.174,1267208630,62174,1,1.02197,0.05225,0.12427,1.565,4.672,-5.405
2026-05-21 17:14:29.174,1267208630,62174,2,0.96997,0.08862,0.40723,4.206,4.191,-2.069
2026-05-21 17:14:29.374,1267208830,62374,1,1.02563,0.09082,0.14404,0.015,2.939,-2.26
2026-05-21 17:14:29.374,1267208830,62374,2,0.96753,0.10913,0.45435,-1.962,4.244,-1.634
2026-05-21 17:14:29.574,1267209030,62574,1,1.00781,0.07568,0.16479,0.863,2.275,-0.702
2026-05-21 17:14:29.574,1267209030,62574,2,0.97192,0.10449,0.4563,6.603,3.267,-2.046
2026-05-21 17:14:29.774,1267209230,62774,1,1.021,0.09326,0.13159,9.534,0.031,-0.328
2026-05-21 17:14:29.774,1267209230,62774,2,0.97607,0.12378,0.47095,7.382,2.412,-1.947
2026-05-21 17:14:30.233,1267209689,63233,1,1.0105,0.13892,0.14648,-1.618,0.748,-0.305
2026-05-21 17:14:30.233,1267209689,63233,2,0.9585,0.15332,0.45996,2.26,1.397,2.45
2026-05-21 17:14:30.433,1267209889,63433,1,1.01294,0.12061,0.14087,-4.733,-0.702,-1.214
2026-05-21 17:14:30.433,1267209889,63433,2,0.96704,0.14355,0.44995,-7.588,-2.084,0.71
2026-05-21 17:14:30.633,1267210089,63633,1,1.02637,0.11597,0.14648,-2.74,-0.145,-1.023
2026-05-21 17:14:30.633,1267210089,63633,2,0.96069,0.14111,0.47046,-0.656,1.817,1.901
2026-05-21 17:14:30.833,1267210289,63833,1,1.0188,0.11328,0.13818,-2.275,0.443,-1.275
2026-05-21 17:14:30.833,1267210289,63833,2,0.96045,0.13647,0.44727,0.557,-0.26,1.641
2026-05-21 17:14:31.033,1267210489,64033,1,1.01782,0.11963,0.13818,-2.252,-0.16,-0.931
2026-05-21 17:14:31.033,1267210489,64033,2,0.96143,0.13184,0.44727,-3.183,0.664,1.893
2026-05-21 17:14:31.233,1267210689,64233,1,1.01929,0.12524,0.12231,-1.603,0.824,0.42
2026-05-21 17:14:31.233,1267210689,64233,2,0.96509,0.13989,0.44971,0.069,0.763,1.634
2026-05-21 17:14:31.433,1267210889,64433,1,1.01343,0.12183,0.13477,0.649,0.74,0.122
2026-05-21 17:14:31.433,1267210889,64433,2,0.96777,0.13403,0.4502,-0.977,1.008,0.977
2026-05-21 17:14:31.633,1267211089,64633,1,1.02124,0.12354,0.14551,-0.389,1.214,-0.267
2026-05-21 17:14:31.633,1267211089,64633,2,0.96021,0.13745,0.44312,-1.069,1.679,0.977
2026-05-21 17:14:31.833,1267211289,64833,1,1.01904,0.12231,0.13892,-2.336,0.344,-0.565
2026-05-21 17:14:31.833,1267211289,64833,2,0.97021,0.13232,0.448,-1.771,1.687,0.962
2026-05-21 17:14:32.033,1267211489,65033,1,1.01563,0.1167,0.14624,-2.74,0.588,-0.45
2026-05-21 17:14:32.033,1267211489,65033,2,0.96362,0.13501,0.45532,-2.267,2.16,0.664
2026-05-21 17:14:32.233,1267211689,65233,1,1.00952,0.12524,0.14746,0.863,1.29,-0.74
2026-05-21 17:14:32.233,1267211689,65233,2,0.96558,0.14429,0.46313,-0.122,1.16,0.183
2026-05-21 17:14:32.433,1267211889,65433,1,1.0061,0.12524,0.15186,-2.718,0.359,-0.038
2026-05-21 17:14:32.433,1267211889,65433,2,0.96631,0.14038,0.46191,0.435,1.855,1.527
2026-05-21 17:14:32.633,1267212089,65633,1,1.01172,0.13379,0.1521,-1.489,0.412,0.55
2026-05-21 17:14:32.633,1267212089,65633,2,0.96558,0.1438,0.45947,-1.84,0.756,1.87
2026-05-21 17:14:32.833,1267212289,65833,1,1.01953,0.13013,0.14111,1.282,-0.824,0.679
2026-05-21 17:14:32.833,1267212289,65833,2,0.9624,0.14551,0.46509,2.237,1.557,2.145
2026-05-21 17:14:33.033,1267212489,66033,1,1.01221,0.1272,0.1394,-0.832,-0.008,0.275
2026-05-21 17:14:33.033,1267212489,66033,2,0.96045,0.1377,0.46582,0.779,1.061,1.679
2026-05-21 17:14:33.233,1267212689,66233,1,1.03589,0.13843,0.14233,-1.069,-2.191,-0.794
2026-05-21 17:14:33.233,1267212689,66233,2,0.96021,0.13989,0.47534,-1.351,-1.298,1.664
2026-05-21 17:14:33.433,1267212889,66433,1,1.01294,0.12061,0.15308,-4.634,-1.344,-0.634
2026-05-21 17:14:33.433,1267212889,66433,2,0.96655,0.13159,0.44507,-4.603,0.031,1.466
2026-05-21 17:14:33.633,1267213089,66633,1,1.01465,0.11987,0.15039,0.969,-1.58,0.794
2026-05-21 17:14:33.633,1267213089,66633,2,0.96631,0.14624,0.45654,2.023,3.405,1.84
2026-05-21 17:14:33.833,1267213289,66833,1,1.01489,0.12378,0.14648,-1.954,-0.397,-1.305
2026-05-21 17:14:33.833,1267213289,66833,2,0.96313,0.13843,0.45898,7.198,4.122,2.573
2026-05-21 17:14:34.033,1267213489,67033,1,1.01147,0.13965,0.13135,1.588,0.252,1.626
2026-05-21 17:14:34.033,1267213489,67033,2,0.96826,0.13696,0.46484,-0.374,-1.473,2.313
2026-05-21 17:14:34.233,1267213689,67233,1,1.0144,0.11987,0.14868,-3.099,-0.863,0.763
2026-05-21 17:14:34.233,1267213689,67233,2,0.96216,0.13037,0.46143,-2.237,1.008,1.725
2026-05-21 17:14:34.636,1267214092,67636,1,1.01489,0.10278,0.15137,-3.183,-0.656,1.733
2026-05-21 17:14:34.636,1267214092,67636,2,0.95679,0.13062,0.46094,-1.435,-0.893,2.557
2026-05-21 17:14:34.836,1267214292,67836,1,1.02661,0.10229,0.1438,0.855,-0.626,2.038
2026-05-21 17:14:34.836,1267214292,67836,2,0.96362,0.13574,0.45483,2.229,0.733,1.893
2026-05-21 17:14:35.036,1267214492,68036,1,1.02563,0.11523,0.12842,0.313,0.328,0.809
2026-05-21 17:14:35.036,1267214492,68036,2,0.96802,0.13403,0.44507,0.55,1.527,2.473
2026-05-21 17:14:35.236,1267214692,68236,1,1.02075,0.1062,0.1416,-2.313,0.519,0.55
2026-05-21 17:14:35.236,1267214692,68236,2,0.95825,0.1123,0.45483,-2.069,0.58,0.855
2026-05-21 17:14:38.125,1267217581,71125,1,1.02393,0.11597,0.1394,-0.427,-1.0,-0.527
2026-05-21 17:14:38.125,1267217581,71125,2,0.95703,0.12476,0.45068,1.275,1.496,0.252
2026-05-21 17:14:38.325,1267217781,71325,1,1.03662,0.12573,0.09497,-0.557,-0.863,-5.924
2026-05-21 17:14:38.325,1267217781,71325,2,0.96753,0.09888,0.44409,-6.786,-1.947,1.305
2026-05-21 17:14:38.525,1267217981,71525,1,0.99585,0.1189,0.13989,15.046,-10.924,1.496
2026-05-21 17:14:38.525,1267217981,71525,2,0.96777,0.14673,0.41846,17.313,-2.58,-4.641
2026-05-21 17:14:38.732,1267218188,71732,1,1.09033,0.18286,0.02246,-13.74,-4.641,-11.824
2026-05-21 17:14:38.732,1267218188,71732,2,0.99561,0.22363,0.41333,-22.969,1.878,-13.351
2026-05-21 17:14:38.932,1267218388,71932,1,1.02002,0.24414,0.02222,-54.092,-0.924,-14.779
2026-05-21 17:14:38.932,1267218388,71932,2,0.92993,0.19775,0.38086,-58.473,-4.58,5.29
2026-05-21 17:14:39.153,1267218609,72153,1,1.0127,0.2373,0.06323,-53.122,-7.214,-8.863
2026-05-21 17:14:39.153,1267218609,72153,2,0.96704,0.1897,0.41699,-45.321,3.466,5.099
2026-05-21 17:14:39.353,1267218809,72353,1,1.04883,0.1167,0.11694,-77.267,16.405,-15.0
2026-05-21 17:14:39.353,1267218809,72353,2,0.94287,0.18481,0.41211,-77.382,2.435,-6.893
2026-05-21 17:14:39.553,1267219009,72553,1,0.99023,0.08716,0.17065,-52.817,15.0,1.26
2026-05-21 17:14:39.553,1267219009,72553,2,0.93335,0.12622,0.55151,-68.985,20.885,3.603
2026-05-21 17:14:39.753,1267219209,72753,1,0.95435,-0.08398,0.29175,-73.893,21.389,1.817
2026-05-21 17:14:39.753,1267219209,72753,2,0.93481,-0.0498,0.66968,-80.099,4.611,5.351
2026-05-21 17:14:39.953,1267219409,72953,1,0.93213,-0.27734,0.32422,-61.565,-2.29,-9.038
2026-05-21 17:14:39.953,1267219409,72953,2,0.95825,-0.06909,0.63379,-56.74,-7.45,-4.611
2026-05-21 17:14:40.153,1267219609,73153,1,0.94092,-0.17969,0.23584,-5.092,-10.794,-8.939
2026-05-21 17:14:40.153,1267219609,73153,2,0.90601,-0.0415,0.57593,-20.191,-12.733,-5.947
2026-05-21 17:14:40.353,1267219809,73353,1,1.03638,-0.17798,0.22485,-20.092,-4.313,-20.504
2026-05-21 17:14:40.353,1267219809,73353,2,0.9353,0.01221,0.54028,19.977,-1.519,-10.947
2026-05-21 17:14:40.553,1267220009,73553,1,1.00488,-0.0542,0.20068,-9.931,-1.588,-18.458
2026-05-21 17:14:40.553,1267220009,73553,2,0.91675,0.05664,0.58789,-12.344,-3.802,-7.947
2026-05-21 17:14:40.753,1267220209,73753,1,1.19214,0.0918,0.18677,16.198,-12.206,2.534
2026-05-21 17:14:40.753,1267220209,73753,2,0.97339,0.22266,0.45166,8.504,7.443,-2.435
2026-05-21 17:14:40.953,1267220409,73953,1,1.17847,-0.00342,0.12573,-68.153,-16.832,-8.756
2026-05-21 17:14:40.953,1267220409,73953,2,0.9375,0.04004,0.5249,7.573,-0.237,-5.313
2026-05-21 17:14:41.171,1267220627,74170,1,1.01221,-0.03003,0.10986,31.115,-15.939,9.679
2026-05-21 17:14:41.171,1267220627,74170,2,0.97778,0.09766,0.45532,17.137,8.55,5.595
2026-05-21 17:14:41.370,1267220826,74370,1,1.00439,-0.08545,0.08276,-41.809,-1.191,-1.809
2026-05-21 17:14:41.370,1267220826,74370,2,1.00415,0.05249,0.41431,-23.832,-1.176,2.176
2026-05-21 17:14:41.570,1267221026,74570,1,0.99146,-0.10352,0.10571,-10.328,-8.221,1.786
2026-05-21 17:14:41.570,1267221026,74570,2,0.97168,0.07568,0.47754,10.687,-8.008,-6.321
2026-05-21 17:14:41.770,1267221226,74770,1,1.04077,-0.07056,0.06323,-8.809,4.084,-4.58
2026-05-21 17:14:41.770,1267221226,74770,2,0.95459,0.08862,0.41089,-12.183,-0.405,-2.305
2026-05-21 17:14:42.970,1267222426,74970,1,1.05273,-0.06494,0.07935,0.221,-1.481,-0.954
2026-05-21 17:14:42.970,1267222426,74970,2,0.96069,0.08545,0.42798,4.779,1.71,1.992
2026-05-21 17:14:42.170,1267221626,75170,1,1.0542,-0.06982,0.07324,12.481,-0.168,1.832
2026-05-21 17:14:42.170,1267221626,75170,2,0.96118,0.1582,0.44531,11.229,-1.015,-0.198
2026-05-21 17:14:42.370,1267221826,75370,1,1.06396,-0.04736,0.05151,-0.664,-1.534,-0.13
2026-05-21 17:14:42.370,1267221826,75370,2,0.97632,0.10449,0.41333,-5.389,0.122,0.824
2026-05-21 17:14:42.570,1267222026,75570,1,1.05029,-0.04858,0.05737,-0.084,1.183,-1.023
2026-05-21 17:14:42.570,1267222026,75570,2,0.96826,0.1001,0.43481,3.45,1.802,1.771
2026-05-21 17:14:42.770,1267222226,75770,1,1.05005,-0.05469,0.06006,-4.427,1.664,-2.214
2026-05-21 17:14:42.770,1267222226,75770,2,0.97241,0.08301,0.42847,0.038,1.153,2.015
2026-05-21 17:14:43.135,1267222591,76135,1,1.04272,-0.07324,0.08691,1.069,3.405,-0.519
2026-05-21 17:14:43.135,1267222591,76135,2,0.99756,0.08667,0.40503,5.061,-7.389,-0.107
2026-05-21 17:14:43.335,1267222791,76335,1,1.06128,-0.03857,0.06494,8.0,-2.679,0.168
2026-05-21 17:14:43.335,1267222791,76335,2,0.99951,0.07617,0.4082,-0.336,1.191,0.695
2026-05-21 17:14:43.535,1267222991,76535,1,1.0498,-0.04053,0.04321,-5.924,-1.061,-0.382
2026-05-21 17:14:43.535,1267222991,76535,2,0.97119,0.0813,0.40527,-2.237,0.832,1.634
2026-05-21 17:14:43.735,1267223191,76735,1,1.04541,-0.04932,0.05518,-3.45,0.092,0.687
2026-05-21 17:14:43.735,1267223191,76735,2,0.96021,0.07593,0.37354,-9.885,1.832,2.115
2026-05-21 17:14:43.935,1267223391,76935,1,1.05518,-0.04761,0.05591,-7.695,-0.305,-0.534
2026-05-21 17:14:43.935,1267223391,76935,2,0.96387,0.06494,0.44067,9.13,1.702,7.351
2026-05-21 17:14:44.135,1267223591,77135,1,1.04468,-0.0625,0.05493,2.389,-1.649,-0.244
2026-05-21 17:14:44.135,1267223591,77135,2,0.97095,0.07837,0.40112,-2.74,-2.015,3.519
2026-05-21 17:14:44.335,1267223791,77335,1,1.05762,-0.05371,0.05566,6.198,2.084,-0.443
2026-05-21 17:14:44.335,1267223791,77335,2,0.96045,0.0957,0.40674,-0.786,-0.924,-1.962
2026-05-21 17:14:44.535,1267223991,77535,1,1.05225,-0.04224,0.05151,-0.908,-1.305,-2.969
2026-05-21 17:14:44.535,1267223991,77535,2,0.96802,0.09375,0.41406,-2.0,-0.939,-1.786
2026-05-21 17:14:44.939,1267224395,77939,1,1.052,-0.0249,0.04834,-1.038,-0.076,-0.168
2026-05-21 17:14:44.939,1267224395,77939,2,0.96729,0.09961,0.38281,0.313,-1.412,0.565
2026-05-21 17:14:45.139,1267224595,78139,1,1.05371,-0.02515,0.04297,-2.489,-1.382,1.183
2026-05-21 17:14:45.139,1267224595,78139,2,0.9668,0.10522,0.40649,-2.511,-1.481,0.374
2026-05-21 17:14:45.339,1267224795,78339,1,1.05322,-0.03003,0.04517,-0.863,0.443,1.183
2026-05-21 17:14:45.339,1267224795,78339,2,0.98145,0.11499,0.3645,-0.595,0.55,1.504
2026-05-21 17:14:45.539,1267224995,78539,1,1.05493,-0.03369,0.03125,-4.435,-1.221,
2026-05-21 17:14:45.539,1267224995,78539,2,0.96753,0.09619,0.40186,-4.634,-1.435,1.74
2026-05-21 17:14:45.739,1267225195,78739,1,1.06494,-0.03784,0.02173,-3.237,-2.382,1.13
2026-05-21 17:14:45.739,1267225195,78739,2,0.97217,0.09741,0.38477,-2.939,0.672,1.405
2026-05-21 17:14:45.939,1267225395,78939,1,1.05859,-0.04175,0.02246,-4.061,-0.198,-0.45
2026-05-21 17:14:45.939,1267225395,78939,2,0.97339,0.09351,0.39307,-0.687,0.008,2.924
2026-05-21 17:14:46.139,1267225595,79139,1,1.05347,-0.04907,0.02759,-3.313,1.069,-0.481
2026-05-21 17:14:46.139,1267225595,79139,2,0.96875,0.09253,0.38452,-1.855,0.282,-0.481
2026-05-21 17:14:46.339,1267225795,79339,1,1.0542,-0.0415,0.02979,-1.183,1.038,-0.534
2026-05-21 17:14:46.339,1267225795,79339,2,0.9729,0.08716,0.37036,1.366,0.412,0.656
2026-05-21 17:14:46.539,1267225995,79539,1,1.06494,-0.02124,0.00024,-3.382,-2.29,0.298
2026-05-21 17:14:46.539,1267225995,79539,2,0.95142,0.0979,0.38135,0.779,4.45,2.687
2026-05-21 17:14:46.739,1267226195,79739,1,1.05225,-0.03687,0.01196,-2.496,0.649,-0.214
2026-05-21 17:14:46.739,1267226195,79739,2,0.96533,0.09863,0.37305,-2.298,1.977,-1.702
2026-05-21 17:14:46.939,1267226395,79939,1,1.04932,-0.04004,0.02539,2.916,0.008,-0.771
2026-05-21 17:14:46.939,1267226395,79939,2,0.96875,0.10376,0.37354,-3.275,-0.901,0.786
2026-05-21 17:14:47.139,1267226595,80139,1,1.08179,-0.05664,-0.00562,-3.328,-1.947,0.641
2026-05-21 17:14:47.139,1267226595,80139,2,0.98462,0.11206,0.38428,5.206,-0.924,-4.481
2026-05-21 17:14:47.339,1267226795,80339,1,1.03101,-0.03394,0.01563,7.985,1.282,4.725
2026-05-21 17:14:47.339,1267226795,80339,2,0.9729,0.11255,0.38892,-11.145,-2.0,3.26
2026-05-21 17:14:47.539,1267226995,80539,1,1.05981,-0.07593,0.01929,-4.931,1.26,1.855
2026-05-21 17:14:47.539,1267226995,80539,2,0.97485,0.11597,0.37109,12.42,4.473,-3.916
2026-05-21 17:14:47.739,1267227195,80739,1,1.05249,-0.05542,0.03174,4.855,-0.71,3.458
2026-05-21 17:14:47.739,1267227195,80739,2,0.96631,0.15308,0.37134,1.198,3.229,2.305
2026-05-21 17:14:47.939,1267227395,80939,1,1.04517,-0.06372,0.03882,-5.153,2.947,-0.641
2026-05-21 17:14:47.939,1267227395,80939,2,0.97412,0.14526,0.35449,-0.939,3.687,0.618
2026-05-21 17:14:48.139,1267227595,81139,1,1.05347,-0.04199,0.03442,2.031,-4.878,-2.267
2026-05-21 17:14:48.139,1267227595,81139,2,0.97559,0.11133,0.427,-3.496,6.603,0.45
2026-05-21 17:14:48.339,1267227795,81339,1,1.04248,-0.05615,0.03882,-17.794,6.374,-5.931
2026-05-21 17:14:48.339,1267227795,81339,2,1.01904,0.1814,0.34106,-1.237,9.198,-0.763
2026-05-21 17:14:48.547,1267228003,81547,1,1.05737,-0.03003,0.00854,9.511,-19.069,0.305
2026-05-21 17:14:48.547,1267228003,81547,2,0.97754,0.11353,0.34229,13.985,7.634,-0.328
2026-05-21 17:14:51.717,1267231173,84717,1,1.07275,-0.02588,0.00952,5.382,4.763,-4.328
2026-05-21 17:14:51.717,1267231173,84717,2,0.97144,0.12549,0.34009,3.756,-3.534,-5.481
2026-05-21 17:14:51.917,1267231373,84917,1,1.05908,-0.02197,0.0127,-0.641,5.763,-3.397
2026-05-21 17:14:51.917,1267231373,84917,2,0.96704,0.12622,0.34448,6.985,1.916,0.779
2026-05-21 17:14:52.117,1267231573,85117,1,1.04932,-0.01099,0.02466,3.641,3.137,-0.557
2026-05-21 17:14:52.117,1267231573,85117,2,0.9646,0.11328,0.32568,1.366,4.847,3.679
2026-05-21 17:14:52.317,1267231773,85317,1,1.05542,-0.02197,0.02222,-5.733,0.817,1.496
2026-05-21 17:14:52.317,1267231773,85317,2,0.96973,0.08887,0.36108,-6.519,-0.099,2.351
2026-05-21 17:14:52.596,1267232052,85595,1,1.06006,-0.04614,0.02026,-6.939,-0.458,2.641
2026-05-21 17:14:52.596,1267232052,85595,2,0.97241,0.09937,0.35767,-4.847,-0.489,2.061
2026-05-21 17:14:52.795,1267232251,85795,1,1.05884,-0.05884,0.02466,-3.015,0.481,2.29
2026-05-21 17:14:52.795,1267232251,85795,2,0.97925,0.08252,0.35547,-0.466,0.382,-0.359
2026-05-21 17:14:53.995,1267233451,85995,1,1.09863,-0.04492,-0.03027,2.992,-0.71,0.702
2026-05-21 17:14:53.995,1267233451,85995,2,0.94946,0.08789,0.3125,0.191,7.412,4.183
2026-05-21 17:14:53.195,1267232651,86195,1,1.0752,-0.0481,0.0127,1.183,0.382,-0.916
2026-05-21 17:14:53.195,1267232651,86195,2,0.95337,0.0896,0.33887,1.924,-0.092,1.992
2026-05-21 17:14:53.395,1267232851,86395,1,1.05981,-0.0481,0.01221,-5.107,1.237,-0.16
2026-05-21 17:14:53.395,1267232851,86395,2,0.97412,0.0918,0.36865,-2.779,1.321,0.351
2026-05-21 17:14:53.595,1267233051,86595,1,1.04395,-0.03271,0.01465,0.595,1.641,0.908
2026-05-21 17:14:53.595,1267233051,86595,2,0.97681,0.09546,0.35205,-0.305,1.122,5.611
2026-05-21 17:14:53.795,1267233251,86795,1,1.08008,-0.08154,0.01587,-14.565,3.496,-3.092
2026-05-21 17:14:53.795,1267233251,86795,2,0.95923,0.05762,0.37988,-14.168,1.542,-0.397
2026-05-21 17:14:54.995,1267234451,86995,1,1.06128,-0.01587,0.02222,25.954,8.817,-0.916
2026-05-21 17:14:54.995,1267234451,86995,2,0.9895,0.11816,0.37476,29.878,12.786,-5.122
2026-05-21 17:14:54.195,1267233651,87195,1,1.01416,-0.01685,0.08521,-9.847,2.061,-0.351
2026-05-21 17:14:54.195,1267233651,87195,2,0.9707,0.1084,0.4165,-16.985,-3.702,1.16
2026-05-21 17:14:57.257,1267236713,90257,1,1.01392,-0.06738,-0.00317,33.466,-9.611,8.794
2026-05-21 17:14:57.257,1267236713,90257,2,0.94873,0.11206,0.43091,14.786,-2.084,-1.969
2026-05-21 17:14:57.457,1267236913,90457,1,1.11133,-0.08667,0.02979,17.26,-3.473,18.519
2026-05-21 17:14:57.457,1267236913,90457,2,0.99292,0.11792,0.45996,32.809,28.58,-3.55
2026-05-21 17:14:57.657,1267237113,90657,1,1.03491,-0.08618,0.02686,84.008,3.931,2.45
2026-05-21 17:14:57.657,1267237113,90657,2,1.00098,-0.00171,0.34692,-45.374,12.397,-11.397
2026-05-21 17:14:57.857,1267237313,90857,1,1.0791,-0.05591,0.02856,-69.672,-7.87,1.908
2026-05-21 17:14:57.857,1267237313,90857,2,0.89233,0.26147,0.77686,-57.908,-30.687,5.985
2026-05-21 17:14:58.057,1267237513,91057,1,1.12183,-0.01465,0.0957,5.122,-33.359,13.443
2026-05-21 17:14:58.057,1267237513,91057,2,0.98853,0.19263,0.47583,-6.924,19.779,3.252
2026-05-21 17:14:58.257,1267237713,91257,1,1.10693,-0.07861,0.03394,-10.45,18.038,-8.626
2026-05-21 17:14:58.257,1267237713,91257,2,0.97095,0.13184,0.66675,24.557,38.168,-3.947
2026-05-21 17:14:58.457,1267237913,91457,1,0.95874,-0.11304,-0.10693,-55.542,-4.191,9.695
2026-05-21 17:14:58.457,1267237913,91457,2,1.00586,0.08472,0.479,-77.008,-55.817,35.405
2026-05-21 17:14:58.657,1267238113,91657,1,1.08594,-0.12744,0.12866,15.725,42.954,-11.359
2026-05-21 17:14:58.657,1267238113,91657,2,1.0,0.19214,0.51538,6.58,9.13,10.13
2026-05-21 17:14:58.857,1267238313,91857,1,1.03394,-0.07007,0.09204,-4.939,-12.595,5.031
2026-05-21 17:14:58.857,1267238313,91857,2,0.94336,0.05688,0.56299,13.893,-11.13,-10.901
2026-05-21 17:14:59.057,1267238513,92057,1,1.05762,-0.15161,0.01611,-11.641,13.55,-4.145
2026-05-21 17:14:59.057,1267238513,92057,2,0.95313,0.12915,0.55859,-17.908,-2.588,0.771
2026-05-21 17:14:59.257,1267238713,92257,1,1.05542,-0.06836,0.08179,33.191,4.183,-17.542
2026-05-21 17:14:59.257,1267238713,92257,2,0.91406,0.10522,0.37842,-22.771,-19.985,9.206
2026-05-21 17:14:59.457,1267238913,92457,1,1.01563,-0.0957,0.04736,-27.015,24.656,-22.779
2026-05-21 17:14:59.457,1267238913,92457,2,1.06177,0.07935,0.57446,-35.13,8.679,-5.595
2026-05-21 17:14:59.657,1267239113,92657,1,1.07007,-0.0564,0.0166,-9.092,0.771,-8.74
2026-05-21 17:14:59.657,1267239113,92657,2,0.90527,0.14551,0.46802,-20.908,-4.878,0.16
2026-05-21 17:14:59.857,1267239313,92857,1,1.02222,-0.01587,0.05225,28.298,51.336,-35.649
2026-05-21 17:14:59.857,1267239313,92857,2,0.89478,0.14282,0.34253,-149.26,-7.183,10.725
2026-05-21 17:15:00.148,1267239604,93147,1,1.01245,0.06934,0.08545,114.435,-0.809,35.695
2026-05-21 17:15:00.148,1267239604,93147,2,0.94019,0.10254,0.36377,144.733,49.053,14.374
2026-05-21 17:15:00.347,1267239803,93347,1,1.08984,0.02075,0.00952,31.405,0.366,4.26
2026-05-21 17:15:00.347,1267239803,93347,2,1.00659,0.21655,0.47339,19.221,6.45,6.573
2026-05-21 17:15:00.547,1267240003,93547,1,1.01538,0.03003,0.18188,31.832,-8.588,12.092
2026-05-21 17:15:00.547,1267240003,93547,2,1.01733,0.15039,0.42773,16.405,3.321,7.076
2026-05-21 17:15:00.747,1267240203,93747,1,1.08301,-0.07666,0.08423,0.359,-1.458,13.26
2026-05-21 17:15:00.747,1267240203,93747,2,1.02832,0.13013,0.4856,-11.855,-19.328,-0.542
2026-05-21 17:15:00.947,1267240403,93947,1,1.05298,-0.08936,0.10327,24.511,3.389,1.664
2026-05-21 17:15:00.947,1267240403,93947,2,0.97461,0.09155,0.43237,18.344,-4.137,3.977
2026-05-21 17:15:01.147,1267240603,94147,1,1.04688,-0.08984,0.06909,-5.107,7.061,0.389
2026-05-21 17:15:01.147,1267240603,94147,2,0.98242,0.07227,0.39697,-15.023,-0.435,2.924
2026-05-21 17:15:01.347,1267240803,94347,1,1.07886,-0.09448,0.14331,-50.122,1.206,-0.237
2026-05-21 17:15:01.347,1267240803,94347,2,1.01123,0.02051,0.40552,-21.702,-7.282,4.137
2026-05-21 17:15:01.547,1267241003,94547,1,1.05591,-0.13477,0.07202,-2.038,-5.168,1.229
2026-05-21 17:15:01.547,1267241003,94547,2,0.97241,0.0752,0.41553,-3.076,7.061,3.214
2026-05-21 17:15:01.747,1267241203,94747,1,1.04858,-0.07104,0.09473,-0.664,5.267,-4.649
2026-05-21 17:15:01.747,1267241203,94747,2,0.96948,0.10474,0.42578,-10.786,-2.702,-2.076
2026-05-21 17:15:01.947,1267241403,94947,1,1.052,-0.05835,0.07666,-2.382,-0.061,-3.656
2026-05-21 17:15:01.947,1267241403,94947,2,0.96606,0.10083,0.44995,1.107,0.168,-0.511
2026-05-21 17:15:02.147,1267241603,95147,1,1.03589,-0.04639,0.06738,-7.908,0.542,6.962
2026-05-21 17:15:02.147,1267241603,95147,2,0.96753,0.05298,0.40942,-9.069,-3.008,3.824
2026-05-21 17:15:02.347,1267241803,95347,1,1.03174,-0.06104,0.06689,31.588,-4.817,31.412
2026-05-21 17:15:02.347,1267241803,95347,2,1.02246,0.04639,0.44287,41.855,-0.115,4.702
2026-05-21 17:15:02.547,1267242003,95547,1,1.01709,-0.21313,0.05151,20.679,-12.137,45.153
2026-05-21 17:15:02.547,1267242003,95547,2,0.95654,0.06665,0.39038,4.221,-8.244,19.817
2026-05-21 17:15:02.747,1267242203,95747,1,1.04248,-0.33105,-0.01538,-17.641,-19.13,23.931
2026-05-21 17:15:02.747,1267242203,95747,2,0.99341,-0.01025,0.3606,-14.336,-25.382,18.015
2026-05-21 17:15:02.947,1267242403,95947,1,1.00244,-0.43628,-0.11694,-34.916,-3.069,2.626
2026-05-21 17:15:02.947,1267242403,95947,2,0.93628,-0.08911,0.33716,-29.267,-15.298,6.069
2026-05-21 17:15:03.147,1267242603,96147,1,1.0188,-0.40942,-0.13599,-6.275,1.84,1.985
2026-05-21 17:15:03.147,1267242603,96147,2,0.96826,-0.09937,0.23804,-9.366,-1.229,5.427
2026-05-21 17:15:03.347,1267242803,96347,1,1.01147,-0.4165,-0.12915,-13.366,9.267,-4.557
2026-05-21 17:15:03.347,1267242803,96347,2,0.96094,-0.1062,0.26196,-15.16,6.458,1.183
2026-05-21 17:15:03.547,1267243003,96547,1,0.98999,-0.39819,-0.10132,-13.809,10.947,-6.359
2026-05-21 17:15:03.547,1267243003,96547,2,0.94067,-0.12378,0.26001,-16.084,7.198,2.069
2026-05-21 17:15:03.747,1267243203,96747,1,0.99561,-0.39307,-0.07813,-6.359,4.855,-4.244
2026-05-21 17:15:03.747,1267243203,96747,2,0.95361,-0.09131,0.30835,-3.595,0.679,1.954
2026-05-21 17:15:03.947,1267243403,96947,1,1.01025,-0.37817,-0.06348,1.504,5.389,-1.313
2026-05-21 17:15:03.947,1267243403,96947,2,0.9646,-0.0647,0.29053,7.336,1.985,-1.672
2026-05-21 17:15:04.147,1267243603,97147,1,1.00562,-0.3584,-0.04761,2.58,4.771,-4.893
2026-05-21 17:15:04.147,1267243603,97147,2,0.97412,-0.06567,0.3269,1.382,6.092,-3.099
2026-05-21 17:15:04.347,1267243803,97347,1,1.01147,-0.32617,-0.01489,13.435,6.733,-6.664
2026-05-21 17:15:04.347,1267243803,97347,2,0.95703,-0.05273,0.34814,12.718,12.427,-2.878
2026-05-21 17:15:04.547,1267244003,97547,1,1.0188,-0.29395,0.0083,4.115,5.206,-10.214
2026-05-21 17:15:04.547,1267244003,97547,2,0.97925,-0.02954,0.37988,2.855,7.55,-3.504
2026-05-21 17:15:04.747,1267244203,97747,1,1.02808,-0.25537,0.01392,2.786,3.58,-10.16
2026-05-21 17:15:04.747,1267244203,97747,2,0.97314,-0.00684,0.39746,2.733,5.29,-4.573
2026-05-21 17:15:04.947,1267244403,97947,1,1.0354,-0.22095,0.03589,-5.885,4.916,-10.061
2026-05-21 17:15:04.947,1267244403,97947,2,0.97339,0.01953,0.38989,2.855,3.206,-3.229
2026-05-21 17:15:05.147,1267244603,98147,1,1.03833,-0.18042,0.0498,-12.557,7.817,-11.908
2026-05-21 17:15:05.147,1267244603,98147,2,0.96948,0.0144,0.4104,-2.763,5.229,-1.901
2026-05-21 17:15:05.347,1267244803,98347,1,1.05322,-0.15088,0.08838,10.763,6.214,-4.977
2026-05-21 17:15:05.347,1267244803,98347,2,0.97217,0.03223,0.45068,19.321,10.069,-5.305
2026-05-21 17:15:05.547,1267245003,98547,1,1.02075,-0.14209,0.11841,13.336,7.115,-0.534
2026-05-21 17:15:05.547,1267245003,98547,2,0.95117,0.05444,0.45703,13.389,7.779,-3.412
2026-05-21 17:15:05.822,1267245278,98822,1,1.01001,-0.10864,0.125,-0.466,-0.496,1.58
2026-05-21 17:15:05.822,1267245278,98822,2,0.97607,0.10229,0.43286,-8.252,-2.916,3.305
2026-05-21 17:15:06.032,1267245488,99032,1,1.03809,-0.15381,0.12134,-21.031,3.153,-5.168
2026-05-21 17:15:06.032,1267245488,99032,2,0.97754,0.06079,0.47778,5.061,1.13,-3.313
2026-05-21 17:15:06.251,1267245707,99251,1,1.02686,-0.06348,0.12451,19.275,-8.87,0.267
2026-05-21 17:15:06.251,1267245707,99251,2,0.97803,0.08887,0.42554,4.863,5.015,-1.863
2026-05-21 17:15:06.451,1267245907,99451,1,1.04443,-0.1106,0.07227,-25.641,-0.679,-3.351
2026-05-21 17:15:06.451,1267245907,99451,2,0.97949,0.10815,0.4165,-24.542,-6.092,10.985
2026-05-21 17:15:06.651,1267246107,99651,1,1.0481,-0.13672,0.11865,-5.878,0.16,2.466
2026-05-21 17:15:06.651,1267246107,99651,2,0.96973,0.04248,0.43677,-3.13,2.84,4.275
2026-05-21 17:15:06.851,1267246307,99851,1,1.04565,-0.16235,0.11426,7.267,-1.511,5.908
2026-05-21 17:15:06.851,1267246307,99851,2,0.97388,0.05469,0.45679,7.695,4.198,3.359
2026-05-21 17:15:07.051,1267246507,100051,1,1.01807,-0.16089,0.1084,14.763,1.626,7.908
2026-05-21 17:15:07.051,1267246507,100051,2,0.98389,0.07056,0.44922,13.962,4.496,3.649
2026-05-21 17:15:07.251,1267246707,100251,1,1.03223,-0.14624,0.09351,2.321,1.046,5.115
2026-05-21 17:15:07.251,1267246707,100251,2,0.97095,0.07422,0.44678,-3.588,2.435,2.519
2026-05-21 17:15:07.451,1267246907,100451,1,1.04321,-0.17944,0.09448,-2.58,-1.595,4.107
2026-05-21 17:15:07.451,1267246907,100451,2,0.96118,0.06055,0.47437,2.595,2.069,3.168
2026-05-21 17:15:07.653,1267247109,100653,1,1.0127,-0.17529,0.10156,5.863,-2.328,5.664
2026-05-21 17:15:07.653,1267247109,100653,2,0.9978,0.01904,0.50293,1.008,-2.87,0.908
2026-05-21 17:15:07.853,1267247309,100853,1,1.00195,-0.20117,0.11133,-4.328,0.679,-3.763
2026-05-21 17:15:07.853,1267247309,100853,2,0.96704,0.04565,0.48242,2.397,0.603,-0.954
2026-05-21 17:15:08.053,1267247509,101053,1,1.03833,-0.16504,0.08398,0.626,-0.122,-4.267
2026-05-21 17:15:08.053,1267247509,101053,2,0.97583,0.06641,0.46362,-1.626,1.893,-0.656
2026-05-21 17:15:08.253,1267247709,101253,1,1.02344,-0.15063,0.09766,-16.763,2.695,-5.863
2026-05-21 17:15:08.253,1267247709,101253,2,0.97632,0.05811,0.45898,-11.664,-3.496,0.206
2026-05-21 17:15:08.453,1267247909,101453,1,1.04224,-0.1377,0.09473,0.626,1.046,-0.588
2026-05-21 17:15:08.453,1267247909,101453,2,0.95923,0.09839,0.4248,5.359,-1.87,-1.092
2026-05-21 17:15:08.653,1267248109,101653,1,1.0105,-0.16895,0.09106,2.916,1.282,-0.962
2026-05-21 17:15:08.653,1267248109,101653,2,0.96753,0.06348,0.45679,-5.374,-0.473,-1.252
2026-05-21 17:15:08.853,1267248309,101853,1,1.02588,-0.13525,0.08667,5.313,1.061,-0.168
2026-05-21 17:15:08.853,1267248309,101853,2,0.96582,0.07813,0.45117,7.298,3.321,1.237
2026-05-21 17:15:09.053,1267248509,102053,1,1.03149,-0.13135,0.09399,-7.458,0.748,-5.137
2026-05-21 17:15:09.053,1267248509,102053,2,0.96802,0.07471,0.47607,-8.466,-2.115,1.008
2026-05-21 17:15:09.253,1267248709,102253,1,1.04712,-0.13037,0.0896,-1.55,1.092,-0.824
2026-05-21 17:15:09.253,1267248709,102253,2,0.97363,0.06348,0.48584,-0.374,-0.611,0.634
2026-05-21 17:15:09.453,1267248909,102453,1,1.03027,-0.12012,0.09204,7.435,2.305,1.924
2026-05-21 17:15:09.453,1267248909,102453,2,0.9751,0.06885,0.4541,-6.344,1.206,0.45
2026-05-21 17:15:09.653,1267249109,102653,1,1.02515,-0.13257,0.09351,-0.382,4.252,1.069
2026-05-21 17:15:09.653,1267249109,102653,2,0.96753,0.05591,0.48853,-0.168,1.092,0.649
2026-05-21 17:15:09.853,1267249309,102853,1,1.03394,-0.12866,0.09766,0.282,-1.244,2.198
2026-05-21 17:15:09.853,1267249309,102853,2,0.97314,0.08252,0.46704,-0.618,1.939,1.969
2026-05-21 17:15:10.053,1267249509,103053,1,1.02783,-0.12769,0.10352,2.939,-1.221,1.229
2026-05-21 17:15:10.053,1267249509,103053,2,0.97217,0.08276,0.47632,4.031,0.366,-0.038
2026-05-21 17:15:10.253,1267249709,103253,1,1.03491,-0.1333,0.10083,-0.824,0.557,0.794
2026-05-21 17:15:10.253,1267249709,103253,2,0.98022,0.07617,0.44604,0.893,0.183,0.962
2026-05-21 17:15:10.453,1267249909,103453,1,1.03833,-0.12329,0.10059,1.13,-4.229,1.214
2026-05-21 17:15:10.453,1267249909,103453,2,0.96362,0.1167,0.46167,1.107,1.359,0.84
2026-05-21 17:15:10.653,1267250109,103653,1,1.0415,-0.10913,0.07129,-10.573,-0.511,-0.656
2026-05-21 17:15:10.653,1267250109,103653,2,0.97852,0.09839,0.45044,-8.015,-1.29,3.725
2026-05-21 17:15:10.853,1267250309,103853,1,1.01416,-0.15479,0.06274,-7.481,-4.634,-5.779
2026-05-21 17:15:10.853,1267250309,103853,2,0.96313,0.08887,0.45728,-6.359,4.527,0.076
2026-05-21 17:15:11.053,1267250509,104053,1,1.04077,-0.12842,0.08838,-0.252,0.45,-0.153
2026-05-21 17:15:11.053,1267250509,104053,2,0.96362,0.08325,0.46143,-6.771,2.099,-1.702
2026-05-21 17:15:11.253,1267250709,104253,1,1.021,-0.14624,0.09839,-4.137,3.542,1.076
2026-05-21 17:15:11.253,1267250709,104253,2,0.95386,0.09204,0.44482,10.534,2.893,0.496
2026-05-21 17:15:14.410,1267253866,107410,1,0.95239,0.20874,0.18188,27.733,-9.092,16.321
2026-05-21 17:15:14.410,1267253866,107410,2,0.85083,0.35303,0.53247,9.618,-17.176,10.053
2026-05-21 17:15:14.610,1267254066,107610,1,0.98389,0.09033,0.19409,2.672,0.16,26.427
2026-05-21 17:15:14.610,1267254066,107610,2,0.92798,0.31006,0.56543,35.107,16.328,26.718
2026-05-21 17:15:14.810,1267254266,107810,1,1.37012,0.02441,0.29126,39.221,-13.313,34.313
2026-05-21 17:15:14.810,1267254266,107810,2,1.35596,-0.03052,0.47656,20.26,7.168,29.901
2026-05-21 17:15:15.010,1267254466,108010,1,0.90405,-0.35449,0.29565,-30.939,19.794,-7.29
2026-05-21 17:15:15.010,1267254466,108010,2,0.93384,-0.18066,0.66724,9.511,-21.626,18.237
2026-05-21 17:15:15.210,1267254666,108210,1,0.81836,-0.32007,0.38599,39.489,-0.565,21.069
2026-05-21 17:15:15.210,1267254666,108210,2,0.89941,-0.01025,0.60596,16.611,-15.489,-1.87
2026-05-21 17:15:15.410,1267254866,108410,1,0.90869,-0.04126,0.22461,19.588,-21.908,-12.122
2026-05-21 17:15:15.410,1267254866,108410,2,0.87012,-0.05493,0.58569,-11.779,-9.298,-0.718
2026-05-21 17:15:15.610,1267255066,108610,1,0.98511,-0.18384,0.27563,0.229,-0.794,-3.901
2026-05-21 17:15:15.610,1267255066,108610,2,0.97241,0.03052,0.54102,12.832,19.817,-1.344
2026-05-21 17:15:15.810,1267255266,108810,1,0.92139,-0.17163,0.34521,-24.748,0.26,-14.153
2026-05-21 17:15:15.810,1267255266,108810,2,0.91431,-0.00464,0.68579,-38.405,-0.74,-8.405
2026-05-21 17:15:16.010,1267255466,109010,1,0.88257,-0.20825,0.32104,-7.405,0.664,-11.992
2026-05-21 17:15:16.010,1267255466,109010,2,0.87891,-0.05811,0.74634,-14.267,5.45,-9.802
2026-05-21 17:15:16.210,1267255666,109210,1,1.17017,0.3938,0.20679,58.351,-2.954,7.687
2026-05-21 17:15:16.210,1267255666,109210,2,1.08398,0.31104,0.33496,87.962,40.84,0.183
2026-05-21 17:15:16.410,1267255866,109410,1,0.26221,-0.01172,0.0249,-150.489,75.931,-73.115
2026-05-21 17:15:16.410,1267255866,109410,2,0.23315,-0.07959,0.71216,-199.427,32.374,-38.763
2026-05-21 17:15:16.610,1267256066,109610,1,0.96313,-0.12695,0.63696,50.153,23.107,11.198
2026-05-21 17:15:16.610,1267256066,109610,2,0.89624,0.177,1.26831,210.573,-53.13,25.542
2026-05-21 17:15:16.810,1267256266,109810,1,1.45776,0.10303,0.9043,-40.481,32.809,-11.863
2026-05-21 17:15:16.810,1267256266,109810,2,1.55322,0.3562,1.08325,-71.366,-12.031,4.71
2026-05-21 17:15:17.010,1267256466,110010,1,1.29175,0.00732,0.60913,18.992,1.061,18.099
2026-05-21 17:15:17.010,1267256466,110010,2,0.16528,0.05322,0.58057,-66.87,43.221,-12.069
2026-05-21 17:15:17.274,1267256730,110273,1,0.17773,-0.05298,0.16797,-17.809,9.702,-6.229
2026-05-21 17:15:17.274,1267256730,110273,2,0.22119,0.00464,0.71436,-22.962,-2.382,-5.695
2026-05-21 17:15:17.473,1267256929,110473,1,0.50635,-0.0564,0.34277,-2.931,-35.725,-2.634
2026-05-21 17:15:17.473,1267256929,110473,2,0.67505,0.15967,0.79492,22.702,-73.053,0.496
2026-05-21 17:15:17.673,1267257129,110673,1,1.03271,-0.05615,0.50317,0.42,-12.695,-1.015
2026-05-21 17:15:17.673,1267257129,110673,2,1.23975,0.25024,0.87036,26.702,-13.947,6.374
2026-05-21 17:15:17.873,1267257329,110873,1,1.47852,-0.0481,0.60913,-4.176,-3.863,2.443
2026-05-21 17:15:17.873,1267257329,110873,2,1.41797,0.31641,0.96729,-10.481,27.504,-1.092
2026-05-21 17:15:18.073,1267257529,111073,1,0.82227,-0.04614,0.36743,6.084,56.824,3.282
2026-05-21 17:15:18.073,1267257529,111073,2,0.48901,0.13281,0.62842,-16.916,76.908,0.954
2026-05-21 17:15:18.273,1267257729,111273,1,0.24927,-0.06201,0.26758,-5.786,-1.229,-0.351
2026-05-21 17:15:18.273,1267257729,111273,2,0.27417,0.04492,0.75439,-10.16,-2.908,0.13
2026-05-21 17:15:18.473,1267257929,111473,1,1.01221,-0.08545,0.44165,13.832,-77.374,4.565
2026-05-21 17:15:18.473,1267257929,111473,2,1.28857,0.49756,0.79858,-20.58,-162.275,4.084
2026-05-21 17:15:18.673,1267258129,111673,1,1.55029,-0.09814,0.66138,-9.985,26.779,0.977
2026-05-21 17:15:18.673,1267258129,111673,2,1.46069,0.31128,0.99194,0.153,21.466,-0.328
2026-05-21 17:15:18.873,1267258329,111873,1,0.59644,-0.06519,0.33911,-12.634,90.397,-5.397
2026-05-21 17:15:18.873,1267258329,111873,2,0.28101,0.11255,0.64429,-32.687,138.015,-3.557
2026-05-21 17:15:19.074,1267258530,112074,1,0.27832,-0.0647,0.38501,-7.366,-31.046,1.267
2026-05-21 17:15:19.074,1267258530,112074,2,0.55762,0.10156,0.81665,47.092,-64.878,17.321
2026-05-21 17:15:19.274,1267258730,112274,1,1.17871,-0.12207,0.4187,13.275,-73.626,3.389
2026-05-21 17:15:19.274,1267258730,112274,2,1.16626,0.2019,1.0105,-37.519,2.901,-26.466
2026-05-21 17:15:19.474,1267258930,112474,1,1.42041,-0.12329,0.5647,17.405,-6.206,7.977
2026-05-21 17:15:19.474,1267258930,112474,2,1.4231,0.27515,0.96118,-7.092,8.145,-5.565
2026-05-21 17:15:19.674,1267259130,112674,1,0.52539,-0.08594,0.34644,-3.809,79.817,1.466
2026-05-21 17:15:19.674,1267259130,112674,2,0.21899,0.11865,0.68042,4.992,87.397,-0.511
2026-05-21 17:15:19.874,1267259330,112874,1,0.32739,-0.05469,0.44385,-17.344,-17.374,-0.58
2026-05-21 17:15:19.874,1267259330,112874,2,0.50317,0.15063,0.79224,22.382,-71.649,14.069
2026-05-21 17:15:20.074,1267259530,113074,1,0.9812,-0.12134,0.39014,1.725,-64.397,-3.733
2026-05-21 17:15:20.074,1267259530,113074,2,1.19092,0.19678,0.80518,4.26,-0.45,5.061
2026-05-21 17:15:20.274,1267259730,113274,1,1.45972,-0.16919,0.58203,16.847,-16.26,12.26
2026-05-21 17:15:20.274,1267259730,113274,2,1.46826,0.25537,0.88745,-12.786,13.16,-3.855
2026-05-21 17:15:20.474,1267259930,113474,1,0.72876,-0.11011,0.4458,6.29,76.809,0.321
2026-05-21 17:15:20.474,1267259930,113474,2,0.48511,0.12964,0.71411,-8.008,86.305,-7.176
2026-05-21 17:15:20.674,1267260130,113674,1,0.26392,-0.06689,0.41895,-17.015,8.603,-7.412
2026-05-21 17:15:20.674,1267260130,113674,2,0.46606,0.08716,0.74316,29.977,-58.489,10.893
2026-05-21 17:15:20.874,1267260330,113874,1,0.93481,-0.1145,0.45483,2.878,-71.557,0.214
2026-05-21 17:15:20.874,1267260330,113874,2,0.96094,-0.0061,0.53467,-5.718,-1.366,0.137
2026-05-21 17:15:23.696,1267263152,116695,1,0.99731,-0.26172,0.15527,-1.145,-3.573,1.496
2026-05-21 17:15:23.696,1267263152,116695,2,0.97021,0.01147,0.50073,-3.466,-1.878,-0.344
2026-05-21 17:15:23.895,1267263351,116895,1,1.0061,-0.26709,0.13379,-1.626,-1.832,1.427
2026-05-21 17:15:23.895,1267263351,116895,2,0.96704,-0.00708,0.51074,4.046,-2.443,4.046
2026-05-21 17:15:24.095,1267263551,117095,1,0.98413,-0.27197,0.15576,2.336,0.122,0.458
2026-05-21 17:15:24.095,1267263551,117095,2,0.97461,-0.00317,0.50269,0.756,1.939,1.267
2026-05-21 17:15:24.295,1267263751,117295,1,0.97607,-0.26733,0.17822,-2.611,4.588,-0.069
2026-05-21 17:15:24.295,1267263751,117295,2,0.9729,0.00049,0.51514,-2.687,3.611,2.267
2026-05-21 17:15:24.495,1267263951,117495,1,0.96948,-0.26904,0.17822,-2.252,2.298,-0.366
2026-05-21 17:15:24.495,1267263951,117495,2,0.94775,-0.00781,0.51074,-2.229,-0.382,1.015
2026-05-21 17:15:24.695,1267264151,117695,1,0.98315,-0.26294,0.17334,-6.397,1.107,-2.969
2026-05-21 17:15:24.695,1267264151,117695,2,0.96411,-0.00317,0.50952,-6.58,-0.74,-1.076
2026-05-21 17:15:24.895,1267264351,117895,1,0.9895,-0.26489,0.16846,-6.176,2.496,-3.542
2026-05-21 17:15:24.895,1267264351,117895,2,0.97339,0.01392,0.5105,-7.366,0.076,-2.359
2026-05-21 17:15:25.095,1267264551,118095,1,0.98633,-0.24292,0.19067,-4.603,4.527,-6.863
2026-05-21 17:15:25.095,1267264551,118095,2,0.97217,0.01709,0.49072,-2.321,1.901,-0.336
2026-05-21 17:15:25.295,1267264751,118295,1,0.99365,-0.23145,0.20068,-3.214,2.595,-4.84
2026-05-21 17:15:25.295,1267264751,118295,2,0.96265,0.0166,0.50293,-5.718,2.511,-0.58
2026-05-21 17:15:25.495,1267264951,118495,1,0.97632,-0.22656,0.19678,-3.137,2.779,-1.71
2026-05-21 17:15:25.495,1267264951,118495,2,0.96899,0.02271,0.49731,-2.198,3.046,0.756
2026-05-21 17:15:25.695,1267265151,118695,1,0.97217,-0.22534,0.20264,-5.939,0.397,-0.198
2026-05-21 17:15:25.695,1267265151,118695,2,0.97314,0.03687,0.49585,0.527,-2.466,1.45
2026-05-21 17:15:25.895,1267265351,118895,1,0.99609,-0.22534,0.18384,-6.351,-1.649,-1.939
2026-05-21 17:15:25.895,1267265351,118895,2,0.96704,0.01392,0.5,-6.611,-2.634,1.099
2026-05-21 17:15:26.095,1267265551,119095,1,0.98828,-0.23462,0.1814,-3.397,1.13,0.977
2026-05-21 17:15:26.095,1267265551,119095,2,0.97144,0.02173,0.50439,-2.389,1.26,3.107
2026-05-21 17:15:26.295,1267265751,119295,1,0.98315,-0.25366,0.18335,-2.962,0.153,0.672
2026-05-21 17:15:26.295,1267265751,119295,2,0.96899,0.01782,0.49707,-1.435,0.511,1.038
2026-05-21 17:15:26.495,1267265951,119495,1,0.98633,-0.24121,0.18237,-1.649,-0.794,-1.145
2026-05-21T17:15:28.989221,,,,,,,,,
2026-05-21 17:15:26.495,1267265951,119495,2,0.97119,0.02002,0.49805,-0.023,0.779,0.733
2026-05-21 17:15:29.317,1267268773,122317,1,1.02466,-0.17554,0.11938,-14.603,-5.023,-1.672
2026-05-21 17:15:29.317,1267268773,122317,2,0.98828,0.01855,0.44067,-12.588,-7.634,4.565
2026-05-21 17:15:29.517,1267268973,122517,1,1.02808,-0.19116,0.08423,-10.908,-0.977,7.115
2026-05-21 17:15:29.517,1267268973,122517,2,0.98608,0.02563,0.38452,-10.313,2.107,3.924
2026-05-21 17:15:29.717,1267269173,122717,1,1.00903,-0.22632,0.09521,-0.374,0.924,3.618
2026-05-21 17:15:29.717,1267269173,122717,2,0.96167,-0.00659,0.41187,2.473,-0.405,6.298
2026-05-21 17:15:29.917,1267269373,122917,1,1.03613,-0.19849,0.09229,-4.053,-3.298,-4.214
2026-05-21 17:15:29.917,1267269373,122917,2,0.9585,0.04565,0.43311,-8.275,0.756,-0.985
2026-05-21 17:15:30.117,1267269573,123117,1,1.03784,-0.18262,0.08008,-5.962,-2.992,-4.916
2026-05-21 17:15:30.117,1267269573,123117,2,0.97949,0.05273,0.41089,-3.672,-3.107,0.824
2026-05-21 17:15:30.317,1267269773,123317,1,1.03906,-0.17603,0.0625,-6.435,0.092,-4.092
2026-05-21 17:15:30.317,1267269773,123317,2,0.97632,0.04004,0.42163,-3.557,-3.053,-0.504
2026-05-21 17:15:30.517,1267269973,123517,1,1.0437,-0.1438,0.06299,-4.733,2.588,-3.168
2026-05-21 17:15:30.517,1267269973,123517,2,0.97534,0.06055,0.40283,-6.0,0.916,1.649
2026-05-21 17:15:30.717,1267270173,123717,1,1.03857,-0.16333,0.06323,-4.939,2.618,-2.947
2026-05-21 17:15:30.717,1267270173,123717,2,0.97632,0.05249,0.41064,-1.649,2.29,0.244
2026-05-21 17:15:30.917,1267270373,123917,1,1.02954,-0.15991,0.07568,-2.557,1.534,-1.42
2026-05-21 17:15:30.917,1267270373,123917,2,0.99854,-0.01367,0.3147,1.58,8.496,-4.786
2026-05-21 17:15:31.117,1267270573,124117,1,1.02222,-0.14941,0.08936,-5.427,3.702,-0.992
2026-05-21 17:15:31.117,1267270573,124117,2,0.97778,0.05127,0.40918,-0.443,6.534,-0.092
2026-05-21 17:15:31.317,1267270773,124317,1,1.03271,-0.14478,0.08838,-1.779,2.046,-0.748
2026-05-21 17:15:31.317,1267270773,124317,2,0.97437,0.05371,0.40552,-3.321,0.008,0.679
2026-05-21 17:15:31.517,1267270973,124517,1,1.04028,-0.14063,0.0813,0.924,-0.145,-0.015
2026-05-21 17:15:31.517,1267270973,124517,2,0.95776,0.06567,0.41846,0.229,0.725,2.122
2026-05-21 17:15:31.717,1267271173,124717,1,1.03149,-0.15283,0.09546,1.015,2.031,1.244
2026-05-21 17:15:31.717,1267271173,124717,2,0.9646,0.05688,0.42163,0.893,5.58,-0.527
2026-05-21 17:15:31.917,1267271373,124917,1,1.0437,-0.14893,0.08716,-8.16,0.969,0.244
2026-05-21 17:15:31.917,1267271373,124917,2,0.97363,0.05298,0.4187,-6.603,2.038,2.198
2026-05-21 17:15:32.117,1267271573,125117,1,1.0271,-0.15771,0.10229,1.176,1.618,1.695
2026-05-21 17:15:32.117,1267271573,125117,2,0.97412,0.04565,0.39795,-1.344,3.702,0.29
2026-05-21 17:15:32.317,1267271773,125317,1,1.03247,-0.15942,0.08667,-3.336,2.0,0.053
2026-05-21 17:15:32.317,1267271773,125317,2,0.97656,0.04883,0.41211,3.557,2.595,0.962
2026-05-21 17:15:32.517,1267271973,125517,1,1.03247,-0.16064,0.10132,-2.038,1.359,0.252
2026-05-21 17:15:32.517,1267271973,125517,2,1.00977,0.03296,0.427,1.206,-5.534,4.244
2026-05-21 17:15:32.717,1267272173,125717,1,1.01831,-0.21753,0.08472,-9.053,11.618,14.031
2026-05-21 17:15:32.717,1267272173,125717,2,0.95972,-0.00635,0.41406,2.29,23.053,18.58
2026-05-21 17:15:32.917,1267272373,125917,1,1.00928,-0.24365,0.09302,-41.603,3.84,-1.74
2026-05-21 17:15:32.917,1267272373,125917,2,0.97144,-0.06348,0.42334,-52.084,7.802,7.496
2026-05-21 17:15:33.117,1267272573,126117,1,1.00977,-0.3252,0.04248,-40.931,9.336,-19.687
2026-05-21 17:15:33.117,1267272573,126117,2,0.95654,-0.13916,0.37598,-63.076,7.489,-9.328
2026-05-21 17:15:33.317,1267272773,126317,1,0.97119,-0.35254,0.08276,-70.511,12.985,-46.061
2026-05-21 17:15:33.317,1267272773,126317,2,0.99365,-0.02539,0.29565,-53.794,-9.595,-17.557
2026-05-21 17:15:33.517,1267272973,126517,1,1.12036,-0.06641,0.16113,-75.198,-14.191,-41.198
2026-05-21 17:15:33.517,1267272973,126517,2,1.16943,0.05859,0.43726,-68.092,-12.824,-3.076
2026-05-21 17:15:33.717,1267273173,126717,1,0.97095,0.16113,0.17261,7.718,49.634,-51.29
2026-05-21 17:15:33.717,1267273173,126717,2,0.81763,0.22314,0.39111,-128.802,0.458,-1.985
2026-05-21 17:15:34.014,1267273470,127014,1,0.98828,0.11914,0.08203,-114.855,-10.084,-31.916
2026-05-21 17:15:34.014,1267273470,127014,2,1.38184,-0.13599,0.46924,-184.351,-20.023,-11.786
2026-05-21 17:15:34.334,1267273790,127334,1,0.94678,-0.20142,0.16235,-61.588,-0.718,-16.023
2026-05-21 17:15:34.334,1267273790,127334,2,0.89087,-0.22705,0.44141,-216.771,4.679,-21.931
2026-05-21 17:15:34.534,1267273990,127534,1,0.93164,-0.45874,0.19141,-115.641,15.176,-66.763
2026-05-21 17:15:34.534,1267273990,127534,2,1.01343,-0.08887,0.37988,-38.328,11.481,-32.916
2026-05-21 17:15:34.734,1267274190,127734,1,0.76709,0.03491,0.32544,41.611,19.931,-10.504
2026-05-21 17:15:34.734,1267274190,127734,2,1.16089,0.32666,0.44287,-75.351,28.008,-2.244
2026-05-21 17:15:34.934,1267274390,127934,1,0.96289,-0.14063,0.30664,-185.344,27.168,-78.687
2026-05-21 17:15:34.934,1267274390,127934,2,0.93604,-0.07251,0.59106,-209.198,-13.992,-38.893
2026-05-21 17:15:35.134,1267274590,128134,1,0.96069,-0.11328,0.20532,-62.466,-11.466,-57.435
2026-05-21 17:15:35.134,1267274590,128134,2,0.97437,0.04932,0.50342,-10.885,-30.092,-14.29
2026-05-21 17:15:35.334,1267274790,128334,1,1.00708,0.14746,0.09277,-15.443,-20.183,-14.374
2026-05-21 17:15:35.334,1267274790,128334,2,0.92627,0.18701,0.43433,-25.786,-2.55,-2.878
2026-05-21 17:15:35.534,1267274990,128534,1,0.9895,0.20532,0.04614,-68.221,-4.015,-8.191
2026-05-21 17:15:35.534,1267274990,128534,2,1.03467,0.19604,0.53198,-47.649,-4.809,11.359
2026-05-21 17:15:35.734,1267275190,128734,1,1.04248,-0.32495,0.32568,-58.382,58.901,10.626
2026-05-21 17:15:35.734,1267275190,128734,2,0.99927,-0.16089,0.646,-117.504,37.695,3.008
2026-05-21 17:15:35.934,1267275390,128934,1,0.83228,-0.36133,0.31128,-16.718,25.076,-0.588
2026-05-21 17:15:35.934,1267275390,128934,2,0.8042,-0.14624,0.70654,-7.779,16.84,-4.977
2026-05-21 17:15:36.134,1267275590,129134,1,0.93335,-0.13696,0.3374,1.695,-0.679,-9.214
2026-05-21 17:15:36.134,1267275590,129134,2,1.0,-0.07715,0.60791,-8.183,-17.817,-0.191
2026-05-21 17:15:36.334,1267275790,129334,1,1.00195,-0.0896,0.24292,-0.763,-5.672,-7.046
2026-05-21 17:15:36.334,1267275790,129334,2,0.97632,0.02319,0.61523,20.336,-7.336,-0.702
2026-05-21 17:15:36.534,1267275990,129534,1,0.96045,0.05127,0.20044,2.84,9.038,-6.008
2026-05-21 17:15:36.534,1267275990,129534,2,0.90479,0.13599,0.61938,-18.557,4.481,2.328
2026-05-21 17:15:36.734,1267276190,129734,1,0.87817,-0.28467,0.31519,-104.008,17.771,-41.542
2026-05-21 17:15:36.734,1267276190,129734,2,0.90869,-0.09937,0.65088,-109.122,2.168,-25.237
2026-05-21 17:15:36.934,1267276390,129934,1,0.95093,-0.11694,0.30054,-29.542,-22.305,-23.557
2026-05-21 17:15:36.934,1267276390,129934,2,1.03955,0.01318,0.61938,-24.947,-16.992,-11.046
2026-05-21 17:15:37.134,1267276590,130134,1,0.92529,0.04858,0.22266,-73.115,-9.183,-15.26
2026-05-21 17:15:37.134,1267276590,130134,2,0.97803,0.2478,0.4668,-45.733,-23.962,-16.382
2026-05-21 17:15:37.334,1267276790,130334,1,1.02563,0.00806,0.11206,-109.031,-1.733,-22.565
2026-05-21 17:15:37.334,1267276790,130334,2,0.91211,0.15283,0.53735,-117.542,-12.55,-2.725
2026-05-21 17:15:37.534,1267276990,130534,1,1.11597,-0.2312,-0.01196,-65.168,-13.389,-1.885
2026-05-21 17:15:37.534,1267276990,130534,2,1.02441,0.07422,0.50488,-76.557,-5.771,0.458
2026-05-21 17:15:37.734,1267277190,130734,1,1.03687,-0.13647,-0.03735,67.16,-3.321,10.786
2026-05-21 17:15:37.734,1267277190,130734,2,0.94873,0.11157,0.37842,38.282,36.023,10.382
2026-05-21 17:15:37.934,1267277390,130934,1,0.95996,-0.0188,0.11182,25.061,9.611,15.344
2026-05-21 17:15:37.934,1267277390,130934,2,1.11768,0.39429,0.04614,-3.42,-1.168,-16.45
2026-05-21 17:15:38.144,1267277600,131144,1,0.82837,-0.21289,0.37646,32.328,6.443,5.649
2026-05-21 17:15:38.144,1267277600,131144,2,0.91479,-0.01489,0.79077,10.908,18.214,14.382
2026-05-21 17:15:38.344,1267277800,131344,1,0.82764,-0.41235,0.27466,-45.763,6.092,-6.947
2026-05-21 17:15:38.344,1267277800,131344,2,0.95117,0.02002,0.51953,-1.977,-2.71,-18.237
2026-05-21 17:15:38.544,1267278000,131544,1,1.04614,-0.05591,0.13501,65.748,-38.756,1.183
2026-05-21 17:15:38.544,1267278000,131544,2,0.89453,0.17969,0.41333,22.023,-18.405,-1.45
2026-05-21 17:15:38.744,1267278200,131744,1,1.05493,-0.14355,0.0957,-71.45,-2.794,-35.847
2026-05-21 17:15:38.744,1267278200,131744,2,0.95581,0.26831,0.53345,-51.878,0.137,-21.092
2026-05-21 17:15:38.944,1267278400,131944,1,1.05737,-0.02856,0.09448,-10.489,-12.435,-25.031
2026-05-21 17:15:38.944,1267278400,131944,2,0.92114,0.25073,0.48462,-33.893,-11.443,-11.84
2026-05-21 17:15:39.144,1267278600,132144,1,1.07007,-0.01489,0.06152,-21.695,-5.359,-11.252
2026-05-21 17:15:39.144,1267278600,132144,2,0.94336,0.28516,0.47241,-3.908,-4.527,2.015
2026-05-21 17:15:39.344,1267278800,132344,1,1.0625,-0.05273,0.03564,-14.267,-3.046,3.763
2026-05-21 17:15:39.344,1267278800,132344,2,0.93677,0.27393,0.45117,-7.214,-3.527,4.351
2026-05-21 17:15:39.544,1267279000,132544,1,1.07861,-0.08496,0.01318,2.695,-0.282,5.603
2026-05-21 17:15:39.544,1267279000,132544,2,0.93213,0.25317,0.45679,0.298,5.015,3.29
2026-05-21 17:15:39.744,1267279200,132744,1,1.03833,-0.08374,0.02515,-1.107,0.908,1.382
2026-05-21 17:15:39.744,1267279200,132744,2,0.94434,0.25806,0.44604,1.344,1.481,1.267
2026-05-21 17:15:42.772,1267282228,135771,1,1.01587,-0.09814,0.09131,53.672,10.237,4.649
2026-05-21 17:15:42.772,1267282228,135771,2,1.0293,0.18457,0.46753,64.87,15.252,-4.511
2026-05-21 17:15:43.971,1267283427,135971,1,0.99072,-0.01318,0.177,35.931,6.458,-0.885
2026-05-21 17:15:43.971,1267283427,135971,2,0.92456,0.08838,0.51538,25.664,3.809,-4.038
2026-05-21 17:15:43.171,1267282627,136171,1,1.01953,0.01929,0.18018,56.351,-4.664,-3.443
2026-05-21 17:15:43.171,1267282627,136171,2,0.93408,0.2085,0.53174,80.168,9.344,-9.298
2026-05-21 17:15:43.371,1267282827,136371,1,1.00781,0.17554,0.104,42.595,-0.985,-1.466
2026-05-21 17:15:43.371,1267282827,136371,2,0.94287,0.2522,0.5061,17.786,2.771,-0.74
2026-05-21 17:15:43.571,1267283027,136571,1,1.02002,0.1853,0.09717,4.13,1.313,-3.87
2026-05-21 17:15:43.571,1267283027,136571,2,0.93237,0.23047,0.50977,-13.656,-3.901,5.863
2026-05-21 17:15:43.803,1267283259,136803,1,0.99731,-0.03687,0.07764,-12.214,9.351,-1.015
2026-05-21 17:15:43.803,1267283259,136803,2,0.93262,0.10425,0.52026,-43.435,5.969,-22.466
2026-05-21 17:15:44.003,1267283459,137003,1,1.13794,0.22461,0.00244,76.878,3.504,45.489
2026-05-21 17:15:44.003,1267283459,137003,2,0.85327,0.31299,0.54907,142.275,49.076,54.985
2026-05-21 17:15:44.203,1267283659,137203,1,1.01978,-0.02026,0.11353,-53.443,-2.061,7.947
2026-05-21 17:15:44.203,1267283659,137203,2,0.97095,0.125,0.47827,-62.198,-0.573,-1.115
2026-05-21 17:15:44.403,1267283859,137403,1,1.00244,-0.05591,0.13965,24.687,-6.008,10.786
2026-05-21 17:15:44.403,1267283859,137403,2,0.9624,0.13818,0.52905,16.992,-3.924,4.26
2026-05-21 17:15:44.603,1267284059,137603,1,1.02661,-0.05615,0.12231,-11.649,1.031,-1.092
2026-05-21 17:15:44.603,1267284059,137603,2,0.96094,0.11475,0.52954,-3.824,2.809,4.328
2026-05-21 17:15:44.803,1267284259,137803,1,1.03442,-0.07202,0.12549,-3.099,0.29,-0.679
2026-05-21 17:15:44.803,1267284259,137803,2,0.95923,0.12695,0.51929,-7.519,0.534,0.595
2026-05-21 17:15:45.003,1267284459,138003,1,1.02686,-0.04785,0.12646,6.542,-2.168,0.557
2026-05-21 17:15:45.003,1267284459,138003,2,0.9707,0.12671,0.50732,5.122,-0.908,2.55
2026-05-21 17:15:45.203,1267284659,138203,1,1.03906,-0.04736,0.10181,1.176,-0.947,-1.13
2026-05-21 17:15:45.203,1267284659,138203,2,0.96021,0.13086,0.53174,5.634,1.695,2.282
2026-05-21 17:15:45.403,1267284859,138403,1,1.03076,-0.04883,0.11621,5.137,2.939,1.008
2026-05-21 17:15:45.403,1267284859,138403,2,0.9668,0.11133,0.5127,0.756,2.832,-0.344
2026-05-21 17:15:45.603,1267285059,138603,1,1.03052,-0.03149,0.15088,6.344,3.45,2.328
2026-05-21 17:15:45.603,1267285059,138603,2,0.95166,0.13159,0.50366,7.237,3.687,2.58
2026-05-21 17:15:45.803,1267285259,138803,1,1.01489,-0.04126,0.1438,-0.412,0.183,2.298
2026-05-21 17:15:45.803,1267285259,138803,2,0.96265,0.12378,0.51514,-0.756,0.489,2.756
2026-05-21 17:15:46.003,1267285459,139003,1,1.03149,-0.05933,0.14014,-3.649,0.626,3.855
2026-05-21 17:15:46.003,1267285459,139003,2,0.96045,0.09985,0.51367,-7.519,0.137,2.878
2026-05-21 17:15:46.203,1267285659,139203,1,1.02661,-0.09204,0.13525,-4.168,1.435,3.328
2026-05-21 17:15:46.203,1267285659,139203,2,0.96924,0.09277,0.52344,-4.504,0.817,4.359
2026-05-21 17:15:46.403,1267285859,139403,1,1.02319,-0.10864,0.15259,-1.29,0.71,2.183
2026-05-21 17:15:46.403,1267285859,139403,2,0.95728,0.08936,0.52856,3.16,0.038,1.176
2026-05-21 17:15:46.603,1267286059,139603,1,1.03882,-0.08984,0.12964,6.603,-0.817,1.206
2026-05-21 17:15:46.603,1267286059,139603,2,0.95825,0.09131,0.50317,1.29,1.542,-1.115
2026-05-21 17:15:46.803,1267286259,139803,1,1.03149,-0.0918,0.12573,5.71,-0.008,1.221
2026-05-21 17:15:46.803,1267286259,139803,2,0.96973,0.10645,0.49219,2.985,2.634,1.099
2026-05-21 17:15:47.003,1267286459,140003,1,1.03491,-0.08569,0.11719,11.954,-0.634,-0.527
2026-05-21 17:15:47.003,1267286459,140003,2,0.9729,0.08398,0.50732,11.351,2.771,-2.038
2026-05-21 17:15:47.203,1267286659,140203,1,1.02515,-0.06372,0.11987,21.504,3.664,-1.336
2026-05-21 17:15:47.203,1267286659,140203,2,0.96313,0.13696,0.4978,24.664,4.122,-4.046
2026-05-21 17:15:47.403,1267286859,140403,1,1.03369,-0.00269,0.14551,31.053,5.214,0.031
2026-05-21 17:15:47.403,1267286859,140403,2,0.9458,0.23853,0.50806,37.748,6.374,-2.183
2026-05-21 17:15:47.691,1267287147,140691,1,1.03931,0.13916,0.15527,17.74,-2.893,3.374
2026-05-21 17:15:47.691,1267287147,140691,2,0.93652,0.27222,0.4585,-1.908,-1.16,0.779
2026-05-21 17:15:47.891,1267287347,140891,1,0.99878,0.05664,0.14771,-84.351,-2.985,-6.855
2026-05-21 17:15:47.891,1267287347,140891,2,0.9436,0.15137,0.54565,-81.763,-16.275,12.977
2026-05-21 17:15:48.091,1267287547,141091,1,1.02393,-0.10571,0.10303,-98.427,-2.962,-11.603
2026-05-21 17:15:48.091,1267287547,141091,2,0.95264,0.04858,0.45386,-103.511,-11.046,18.511
2026-05-21 17:15:48.291,1267287747,141291,1,1.05981,-0.17896,0.07715,-84.076,3.87,-18.603
2026-05-21 17:15:48.291,1267287747,141291,2,0.97583,-0.04419,0.44897,-84.321,-0.336,4.313
2026-05-21 17:15:48.491,1267287947,141491,1,1.02637,-0.17896,0.07593,-34.481,-1.42,-3.748
2026-05-21 17:15:48.491,1267287947,141491,2,0.96973,-0.06104,0.43555,-24.908,-4.206,6.344
2026-05-21T17:15:49.470954,,,,,,,,,
2026-05-21 17:15:48.691,1267288147,141691,1,1.03223,-0.21167,0.06738,-13.656,-2.206,4.84
2026-05-21 17:15:48.691,1267288147,141691,2,0.94849,-0.08374,0.42993,-11.664,1.702,-1.405
2026-05-21 17:15:48.891,1267288347,141891,1,1.00342,-0.25269,0.07642,41.069,0.641,8.794
2026-05-21 17:15:48.891,1267288347,141891,2,0.94922,-0.09839,0.40967,76.588,10.366,5.664
2026-05-21 17:15:49.091,1267288547,142091,1,1.03638,-0.20972,0.09546,36.573,-3.908,14.595
2026-05-21 17:15:49.091,1267288547,142091,2,0.94604,-0.04565,0.45508,8.679,13.275,-1.046
2026-05-21 17:15:49.291,1267288747,142291,1,0.97412,-0.32593,0.12109,9.664,5.634,-6.557
2026-05-21 17:15:49.291,1267288747,142291,2,0.93921,-0.08813,0.43677,9.344,5.557,-9.908
2026-05-21 17:15:52.069,1267291525,145069,1,0.10059,0.39258,0.71021,-24.046,2.725,-6.13
2026-05-21 17:15:52.069,1267291525,145069,2,0.29395,0.37134,1.20532,-7.061,2.229,-0.412
2026-05-21 17:15:52.269,1267291725,145269,1,0.07861,0.35938,0.68628,-3.267,-6.084,0.481
2026-05-21 17:15:52.269,1267291725,145269,2,0.31787,0.43042,1.26831,4.023,-8.725,-0.351
2026-05-21 17:15:52.469,1267291925,145469,1,0.16382,0.54858,0.86841,-5.366,-13.397,6.855
2026-05-21 17:15:52.469,1267291925,145469,2,0.38721,0.49316,1.38037,-10.198,-11.267,7.374
2026-05-21 17:15:52.669,1267292125,145669,1,-0.00977,0.42529,0.96143,-5.634,-28.611,0.466
2026-05-21 17:15:52.669,1267292125,145669,2,0.37476,0.28052,1.34912,19.412,-35.55,8.229
2026-05-21 17:15:52.869,1267292325,145869,1,0.36841,0.4729,0.74585,-26.626,-50.901,70.794
2026-05-21 17:15:52.869,1267292325,145869,2,0.5459,0.36743,0.94751,41.786,-29.282,80.046
2026-05-21 17:15:53.069,1267292525,146069,1,0.55688,0.1582,0.28809,27.885,-111.305,85.893
2026-05-21 17:15:53.069,1267292525,146069,2,0.74512,0.44653,0.72632,66.29,-106.45,80.061
2026-05-21 17:15:56.104,1267295560,149104,1,1.44458,0.10425,0.29834,24.122,-44.366,14.267
2026-05-21 17:15:56.104,1267295560,149104,2,0.97998,0.25073,0.46338,-62.206,-13.015,5.458
2026-05-21 17:15:56.304,1267295760,149304,1,1.01245,0.00366,0.07007,-24.191,-44.45,1.74
2026-05-21 17:15:56.304,1267295760,149304,2,1.13989,0.16431,0.48828,8.588,-65.519,-1.939
2026-05-21 17:15:56.504,1267295960,149504,1,1.04175,0.03394,0.08203,-10.16,-0.427,-0.107
2026-05-21 17:15:56.504,1267295960,149504,2,0.97119,0.15552,0.41748,14.405,31.069,16.794
2026-05-21 17:15:56.704,1267296160,149704,1,1.03442,-0.01147,0.09741,-10.55,-3.496,-0.802
2026-05-21 17:15:56.704,1267296160,149704,2,0.98608,0.09644,0.5813,-0.229,8.115,4.55
2026-05-21 17:15:56.904,1267296360,149904,1,1.03442,-0.02344,0.12573,-5.321,-2.145,5.26
2026-05-21 17:15:56.904,1267296360,149904,2,0.96289,0.08691,0.51538,3.397,12.748,2.954
2026-05-21 17:15:57.104,1267296560,150104,1,1.05054,-0.01538,0.146,11.137,5.672,2.16
2026-05-21 17:15:57.104,1267296560,150104,2,0.94702,0.10205,0.51099,14.985,1.756,0.458
2026-05-21 17:15:57.304,1267296760,150304,1,1.00073,-0.02905,0.18555,-8.847,3.931,-0.855
2026-05-21 17:15:57.304,1267296760,150304,2,0.96216,0.09009,0.52051,-6.374,4.573,-1.893
2026-05-21 17:15:57.504,1267296960,150504,1,1.01294,-0.01855,0.16968,10.832,0.282,-0.183
2026-05-21 17:15:57.504,1267296960,150504,2,0.96411,0.11523,0.5166,8.954,5.321,-2.763
2026-05-21 17:15:57.704,1267297160,150704,1,1.01953,0.02637,0.1792,-3.779,-2.321,-0.702
2026-05-21 17:15:57.704,1267297160,150704,2,0.95264,0.12964,0.54761,-7.099,1.45,1.55
2026-05-21 17:15:57.904,1267297360,150904,1,1.00684,-0.01221,0.17603,-3.015,0.382,0.298
2026-05-21 17:15:57.904,1267297360,150904,2,0.95752,0.12842,0.521,1.985,-0.45,0.893
2026-05-21 17:15:58.104,1267297560,151104,1,1.00757,0.00928,0.17676,1.229,2.046,-0.115
2026-05-21 17:15:58.104,1267297560,151104,2,0.9585,0.14258,0.53345,7.053,0.641,2.412
2026-05-21 17:15:58.304,1267297760,151304,1,1.02295,0.00952,0.15649,-3.076,2.137,0.069
2026-05-21 17:15:58.304,1267297760,151304,2,0.95874,0.12988,0.52539,-3.664,1.115,2.55
2026-05-21 17:15:58.504,1267297960,151504,1,1.02173,-0.02148,0.17529,-6.817,2.038,-0.496
2026-05-21 17:15:58.504,1267297960,151504,2,0.9668,0.1189,0.52197,-7.885,-0.534,2.031
2026-05-21 17:15:58.704,1267298160,151704,1,1.02344,-0.02148,0.17554,-0.328,0.221,0.908
2026-05-21 17:15:58.704,1267298160,151704,2,0.97974,0.11304,0.51221,-1.092,-0.458,1.092
2026-05-21 17:15:58.904,1267298360,151904,1,1.02393,-0.02173,0.17944,-7.015,0.282,0.221
2026-05-21 17:15:58.904,1267298360,151904,2,0.96069,0.12085,0.51758,4.885,3.214,-1.58
2026-05-21 17:15:59.104,1267298560,152104,1,1.01758,-0.00146,0.1731,10.191,0.718,0.511
2026-05-21 17:15:59.104,1267298560,152104,2,0.96729,0.13794,0.52197,6.015,2.168,0.58
2026-05-21 17:15:59.304,1267298760,152304,1,1.01489,-0.0166,0.17554,-10.176,2.031,-0.504
2026-05-21 17:15:59.304,1267298760,152304,2,0.95801,0.11938,0.53076,2.489,2.618,1.626
2026-05-21 17:15:59.504,1267298960,152504,1,1.01465,-0.00659,0.17554,2.382,-1.328,0.809
2026-05-21 17:15:59.504,1267298960,152504,2,0.95581,0.12524,0.53052,-1.099,0.031,1.931
2026-05-21 17:15:59.704,1267299160,152704,1,1.0166,-0.01904,0.16772,-2.023,0.664,0.053
2026-05-21 17:15:59.704,1267299160,152704,2,0.96094,0.12012,0.52271,3.298,2.267,1.061
2026-05-21 17:15:59.904,1267299360,152904,1,1.01514,-0.01172,0.16943,-0.969,0.107,-0.573
2026-05-21 17:15:59.904,1267299360,152904,2,0.96143,0.12866,0.52393,-2.756,0.412,1.412
2026-05-21 17:16:00.104,1267299560,153104,1,1.01855,-0.01147,0.1731,-0.244,0.084,0.489
2026-05-21 17:16:00.104,1267299560,153104,2,0.96021,0.12354,0.52368,0.588,0.954,1.641
2026-05-21 17:16:00.304,1267299760,153304,1,1.02002,-0.01636,0.17334,-2.275,0.992,0.504
2026-05-21 17:16:00.304,1267299760,153304,2,0.95801,0.13013,0.53833,-0.595,0.718,1.969
2026-05-21 17:16:00.504,1267299960,153504,1,1.01953,-0.01147,0.16919,-2.031,0.985,-0.061
2026-05-21 17:16:00.504,1267299960,153504,2,0.96143,0.12549,0.52905,-3.084,0.374,1.527
2026-05-21 17:16:00.704,1267300160,153704,1,1.02222,-0.01929,0.16675,-2.092,0.626,-0.183
2026-05-21 17:16:00.704,1267300160,153704,2,0.96411,0.12231,0.52148,-1.992,0.794,1.008
2026-05-21 17:16:00.944,1267300400,153943,1,1.01904,-0.01514,0.1709,-1.496,0.74,-0.191
2026-05-21 17:16:00.944,1267300400,153943,2,0.96094,0.12207,0.52734,-1.069,0.878,1.046
2026-05-21 17:16:01.143,1267300599,154143,1,1.01782,-0.02075,0.18628,-1.557,0.435,-0.183
2026-05-21 17:16:01.143,1267300599,154143,2,0.95313,0.11841,0.52197,-1.221,1.198,1.595
2026-05-21 17:16:01.343,1267300799,154343,1,1.0127,-0.01221,0.17432,-0.779,0.046,-0.099
2026-05-21 17:16:01.343,1267300799,154343,2,0.96411,0.12427,0.52051,0.244,1.588,1.168
2026-05-21 17:16:01.543,1267300999,154543,1,1.01807,-0.00977,0.16821,-0.779,-0.496,-0.176
2026-05-21 17:16:01.543,1267300999,154543,2,0.96143,0.12744,0.52075,1.435,1.878,1.527
2026-05-21 17:16:01.743,1267301199,154743,1,1.01782,-0.00879,0.17188,-1.817,-0.137,-0.176
2026-05-21 17:16:01.743,1267301199,154743,2,0.9646,0.12817,0.53418,-0.733,2.237,1.656
2026-05-21 17:16:01.943,1267301399,154943,1,1.0166,-0.00854,0.17749,-2.076,0.313,0.511
2026-05-21 17:16:01.943,1267301399,154943,2,0.95605,0.1167,0.53223,-0.985,1.29,1.595
2026-05-21 17:16:02.143,1267301599,155143,1,1.01782,-0.01343,0.1748,-0.435,-0.42,0.198
2026-05-21 17:16:02.143,1267301599,155143,2,0.96484,0.12183,0.53271,-0.649,1.58,1.237
2026-05-21 17:16:02.343,1267301799,155343,1,1.02002,-0.0083,0.17236,-1.305,-0.359,-0.023
2026-05-21 17:16:02.343,1267301799,155343,2,0.95972,0.12524,0.52808,-0.145,0.962,1.313
2026-05-21 17:16:02.543,1267301999,155543,1,1.01074,-0.01685,0.17407,-3.489,1.023,-0.702
2026-05-21 17:16:02.543,1267301999,155543,2,0.96216,0.11401,0.52979,-3.137,0.504,1.229
2026-05-21 17:16:02.743,1267302199,155743,1,1.02124,-0.00903,0.16284,-1.466,-0.374,-0.733
2026-05-21 17:16:02.743,1267302199,155743,2,0.96143,0.12354,0.51489,-4.252,-0.702,0.718
2026-05-21 17:16:02.943,1267302399,155943,1,1.01685,-0.01758,0.17847,-3.206,-1.115,-0.282
2026-05-21 17:16:02.943,1267302399,155943,2,0.95752,0.12598,0.51831,-1.947,-1.351,0.565
2026-05-21 17:16:03.143,1267302599,156143,1,1.01807,-0.00366,0.17236,-5.008,-0.802,0.435
2026-05-21 17:16:03.143,1267302599,156143,2,0.96655,0.12231,0.5188,-5.244,-2.824,2.824
2026-05-21 17:16:03.343,1267302799,156343,1,1.02563,-0.02295,0.16113,-3.321,-1.305,0.069
2026-05-21 17:16:03.343,1267302799,156343,2,0.96802,0.11328,0.49902,-2.466,-0.206,3.481
2026-05-21 17:16:03.543,1267302999,156543,1,1.01904,-0.01831,0.14233,7.16,-1.023,-1.351
2026-05-21 17:16:03.543,1267302999,156543,2,0.9707,0.11401,0.50073,4.45,0.015,2.237
2026-05-21 17:16:03.743,1267303199,156743,1,1.03271,-0.01782,0.13721,-5.74,-0.527,0.45
2026-05-21 17:16:03.743,1267303199,156743,2,0.97778,0.11035,0.48022,-4.427,3.969,0.786
2026-05-21 17:16:03.943,1267303399,156943,1,1.03101,-0.02588,0.14551,2.046,0.237,-1.511
2026-05-21 17:16:03.943,1267303399,156943,2,0.96655,0.11304,0.47827,-0.374,1.695,1.008
2026-05-21 17:16:04.143,1267303599,157143,1,1.02588,-0.01636,0.15723,-2.962,0.405,-0.191
2026-05-21 17:16:04.143,1267303599,157143,2,0.96484,0.11206,0.50464,1.305,2.985,0.702
2026-05-21 17:16:04.343,1267303799,157343,1,1.02271,-0.01221,0.16992,-1.389,0.053,0.267
2026-05-21 17:16:04.343,1267303799,157343,2,0.96777,0.11426,0.50293,-6.328,1.74,1.573
2026-05-21 17:16:04.543,1267303999,157543,1,1.02222,-0.02563,0.15649,1.985,-0.87,1.611
2026-05-21 17:16:04.543,1267303999,157543,2,0.96973,0.1062,0.51636,-2.878,2.664,0.115
2026-05-21 17:16:04.743,1267304199,157743,1,1.02319,-0.01807,0.15015,4.176,1.672,-0.084
2026-05-21 17:16:04.743,1267304199,157743,2,0.96777,0.12695,0.51001,6.847,1.221,1.649
2026-05-21 17:16:04.943,1267304399,157943,1,1.02441,-0.00806,0.15869,-8.13,1.718,-0.962
2026-05-21 17:16:04.943,1267304399,157943,2,0.97021,0.11328,0.50952,-9.649,-0.885,1.733
2026-05-21 17:16:05.143,1267304599,158143,1,1.0271,-0.01367,0.15112,2.405,0.382,0.344
2026-05-21 17:16:05.143,1267304599,158143,2,0.96118,0.10889,0.49561,1.748,1.802,1.015
2026-05-21 17:16:05.343,1267304799,158343,1,1.02515,-0.01953,0.16382,-3.153,0.511,-0.924
2026-05-21 17:16:05.343,1267304799,158343,2,0.96021,0.11523,0.49805,-0.947,1.16,0.809
2026-05-21 17:16:05.543,1267304999,158543,1,1.02222,0.0083,0.15942,-0.435,0.733,-2.176
2026-05-21 17:16:05.543,1267304999,158543,2,0.97021,0.11743,0.49048,-4.031,0.519,1.954
2026-05-21 17:16:05.747,1267305203,158747,1,1.01953,0.01245,0.17627,-0.443,-0.229,0.382
2026-05-21 17:16:05.747,1267305203,158747,2,0.96069,0.11377,0.49951,0.168,1.672,0.779
2026-05-21 17:16:05.947,1267305403,158947,1,1.01099,-0.00293,0.17334,-6.786,-0.206,2.71
2026-05-21 17:16:05.947,1267305403,158947,2,0.96094,0.11938,0.50171,0.557,0.756,0.969
2026-05-21 17:16:06.147,1267305603,159147,1,1.01807,0.01904,0.14893,-2.366,-1.504,1.664
2026-05-21 17:16:06.147,1267305603,159147,2,0.95752,0.12964,0.49243,-2.282,-0.092,3.557
2026-05-21 17:16:06.347,1267305803,159347,1,1.02148,-0.02637,0.15039,-6.611,1.389,-0.244
2026-05-21 17:16:06.347,1267305803,159347,2,0.95581,0.09888,0.50415,0.244,2.557,1.855
2026-05-21 17:16:06.547,1267306003,159547,1,1.0332,-0.02319,0.13452,-0.221,1.466,0.885
2026-05-21 17:16:06.547,1267306003,159547,2,0.96411,0.11182,0.50684,-1.481,1.87,1.824
2026-05-21 17:16:06.747,1267306203,159747,1,1.02832,-0.01807,0.15137,-0.481,1.595,0.435
2026-05-21 17:16:06.747,1267306203,159747,2,0.96997,0.10156,0.50708,-5.733,0.71,0.29
2026-05-21 17:16:06.947,1267306403,159947,1,1.02075,-0.01074,0.15967,6.527,0.794,-0.191
2026-05-21 17:16:06.947,1267306403,159947,2,0.9585,0.12207,0.50488,9.084,0.656,1.168
2026-05-21 17:16:07.147,1267306603,160147,1,1.021,-0.00562,0.16064,-9.695,2.924,-3.427
2026-05-21 17:16:07.147,1267306603,160147,2,0.96265,0.1145,0.49097,-7.725,0.405,2.939
2026-05-21 17:16:07.347,1267306803,160347,1,1.02246,-0.02368,0.1626,1.901,-1.122,1.939
2026-05-21 17:16:07.347,1267306803,160347,2,0.97217,0.10352,0.49316,-3.496,1.382,-0.649
2026-05-21 17:16:07.547,1267307003,160547,1,1.0293,-0.00854,0.15698,1.947,-1.275,2.313
2026-05-21 17:16:07.547,1267307003,160547,2,0.96411,0.11426,0.49438,2.962,1.405,0.809
2026-05-21 17:16:07.747,1267307203,160747,1,1.01343,-0.01025,0.15283,-8.198,-0.076,-1.481
2026-05-21 17:16:07.747,1267307203,160747,2,0.96924,0.09424,0.48242,-8.55,-1.55,1.511
2026-05-21 17:16:07.947,1267307403,160947,1,1.02832,-0.00952,0.15601,8.015,-0.504,1.0
2026-05-21 17:16:07.947,1267307403,160947,2,0.96118,0.11011,0.49316,5.397,-0.038,0.779
2026-05-21 17:16:08.147,1267307603,161147,1,1.02832,-0.02295,0.15991,-7.84,2.076,-1.947
2026-05-21 17:16:08.147,1267307603,161147,2,0.9646,0.11426,0.50708,-1.206,1.061,1.687
2026-05-21 17:16:08.347,1267307803,161347,1,1.02954,-0.02319,0.1709,-6.053,0.221,-0.13
2026-05-21 17:16:08.347,1267307803,161347,2,0.96143,0.11035,0.49292,1.832,2.305,0.321
2026-05-21 17:16:08.547,1267308003,161547,1,1.02026,-0.01123,0.15381,4.679,-1.863,1.954
2026-05-21 17:16:08.547,1267308003,161547,2,0.96582,0.11865,0.50244,2.015,0.855,1.786
2026-05-21 17:16:08.747,1267308203,161747,1,1.02271,-0.02563,0.15234,-4.763,3.176,0.084
2026-05-21 17:16:08.747,1267308203,161747,2,0.96338,0.11255,0.50073,1.313,1.221,1.977
2026-05-21 17:16:08.947,1267308403,161947,1,1.01343,-0.04297,0.15967,-6.359,1.954,0.069
2026-05-21 17:16:08.947,1267308403,161947,2,0.96606,0.11133,0.49194,-8.588,3.046,1.282
2026-05-21 17:16:09.147,1267308603,162147,1,1.01611,-0.01953,0.15552,5.672,-0.832,-0.405
2026-05-21 17:16:09.147,1267308603,162147,2,0.97461,0.10742,0.51318,-3.214,-0.809,1.534
2026-05-21 17:16:09.347,1267308803,162347,1,1.02661,-0.03052,0.16235,2.183,0.916,-0.603
2026-05-21 17:16:09.347,1267308803,162347,2,0.96021,0.10571,0.49927,5.519,0.313,-0.344
2026-05-21 17:16:09.547,1267309003,162547,1,1.01196,-0.00366,0.16992,-7.435,1.969,-2.58
2026-05-21 17:16:09.547,1267309003,162547,2,0.96069,0.11377,0.49707,-13.557,-3.427,1.809
2026-05-21 17:16:09.747,1267309203,162747,1,1.02759,-0.01416,0.15527,2.611,-0.618,1.893
2026-05-21 17:16:09.747,1267309203,162747,2,0.9541,0.11499,0.49414,10.237,3.809,0.74
2026-05-21 17:16:09.947,1267309403,162947,1,1.01611,0.00269,0.15137,-5.779,1.931,-0.809
2026-05-21 17:16:09.947,1267309403,162947,2,0.95825,0.11719,0.50317,-4.87,0.427,2.542
2026-05-21 17:16:10.147,1267309603,163147,1,1.02051,-0.03052,0.14844,-3.87,1.252,-0.168
2026-05-21 17:16:10.147,1267309603,163147,2,0.96851,0.10669,0.50488,1.863,2.931,0.328
2026-05-21 17:16:10.407,1267309863,163407,1,1.02246,-0.00098,0.15991,-2.863,1.305,-2.237
2026-05-21 17:16:10.407,1267309863,163407,2,0.9707,0.12085,0.47021,-6.969,2.092,2.947
2026-05-21 17:16:10.607,1267310063,163607,1,1.02173,-0.04932,0.13818,-12.328,-0.687,3.908
2026-05-21 17:16:10.607,1267310063,163607,2,0.97217,0.10327,0.49438,-2.076,3.649,-0.489
2026-05-21 17:16:10.807,1267310263,163807,1,1.02026,-0.00684,0.15088,8.115,1.466,1.565
2026-05-21 17:16:10.807,1267310263,163807,2,0.96631,0.12329,0.51563,1.733,1.626,3.45
2026-05-21 17:16:11.007,1267310463,164007,1,1.02124,-0.03174,0.17041,-10.023,2.313,-2.573
2026-05-21 17:16:11.007,1267310463,164007,2,0.96558,0.07739,0.5144,-0.496,-1.802,1.504
2026-05-21 17:16:11.207,1267310663,164207,1,1.0061,-0.00464,0.16187,4.321,0.046,0.473
2026-05-21 17:16:11.207,1267310663,164207,2,0.96729,0.11279,0.50171,5.504,0.641,0.237
2026-05-21 17:16:11.407,1267310863,164407,1,1.02197,-0.02979,0.15405,-8.802,3.099,-1.29
2026-05-21 17:16:11.407,1267310863,164407,2,0.96313,0.10107,0.48389,-5.099,1.573,0.176
2026-05-21 17:16:11.607,1267311063,164607,1,1.0166,-0.00171,0.14966,4.687,-2.824,0.649
2026-05-21 17:16:11.607,1267311063,164607,2,0.95215,0.11401,0.51147,-0.366,2.42,3.443
2026-05-21 17:16:11.807,1267311263,164807,1,1.01392,-0.03833,0.17212,-2.374,1.939,-1.183
2026-05-21 17:16:11.807,1267311263,164807,2,0.97534,0.09985,0.48755,9.344,3.427,1.588
2026-05-21 17:16:12.007,1267311463,165007,1,1.02295,-0.02148,0.15308,-6.198,0.985,-0.702
2026-05-21 17:16:12.007,1267311463,165007,2,0.9668,0.10913,0.50391,-12.58,1.969,0.382
2026-05-21 17:16:12.207,1267311663,165207,1,1.02222,-0.0127,0.15723,6.931,-0.214,1.336
2026-05-21 17:16:12.207,1267311663,165207,2,0.96118,0.11865,0.49268,5.382,2.87,1.87
2026-05-21 17:16:12.407,1267311863,165407,1,1.03491,-0.03809,0.1709,-9.412,1.802,-0.656
2026-05-21 17:16:12.407,1267311863,165407,2,0.96362,0.09253,0.51001,-8.282,1.74,-0.412
2026-05-21 17:16:12.607,1267312063,165607,1,1.01904,-0.01685,0.17407,9.0,-1.603,0.023
2026-05-21 17:16:12.607,1267312063,165607,2,0.95801,0.12134,0.49634,1.351,1.282,2.45
2026-05-21 17:16:12.807,1267312263,165807,1,1.01709,-0.02466,0.15625,-16.481,0.489,0.069
2026-05-21 17:16:12.807,1267312263,165807,2,0.97559,0.0979,0.5127,-3.779,0.282,1.595
2026-05-21 17:16:13.007,1267312463,166007,1,1.02783,-0.01611,0.16333,2.084,-0.527,0.893
2026-05-21 17:16:13.007,1267312463,166007,2,0.96655,0.12109,0.50049,0.969,0.756,0.58
2026-05-21 17:16:13.207,1267312663,166207,1,1.02539,-0.01685,0.16016,-7.198,1.618,-0.573
2026-05-21 17:16:13.207,1267312663,166207,2,0.96802,0.1106,0.49561,-6.298,0.344,2.244
2026-05-21 17:16:13.407,1267312863,166407,1,1.02783,-0.02979,0.16235,2.908,-1.466,1.534
2026-05-21 17:16:13.407,1267312863,166407,2,0.96826,0.10132,0.48389,3.939,0.74,1.458
2026-05-21 17:16:13.607,1267313063,166607,1,1.02637,-0.02002,0.1626,-5.649,0.847,-1.038
2026-05-21 17:16:13.607,1267313063,166607,2,0.96875,0.10034,0.48486,-5.924,1.397,-0.053
2026-05-21 17:16:13.807,1267313263,166807,1,1.02637,-0.01978,0.13599,2.71,0.252,-0.679
2026-05-21 17:16:13.807,1267313263,166807,2,0.95972,0.11548,0.50171,6.992,2.824,-0.053
2026-05-21 17:16:14.007,1267313463,167007,1,1.02856,-0.02393,0.15771,-7.595,1.771,-3.763
2026-05-21 17:16:14.007,1267313463,167007,2,0.96802,0.09521,0.50073,-11.389,-0.092,1.481
2026-05-21 17:16:14.310,1267313766,167310,1,1.02075,-0.0061,0.16577,-9.573,0.664,-1.519
2026-05-21 17:16:14.310,1267313766,167310,2,0.96606,0.08789,0.49927,-2.611,3.618,-0.611
2026-05-21 17:16:14.510,1267313966,167510,1,1.02783,0.00732,0.14722,8.496,-2.55,3.344
2026-05-21 17:16:14.510,1267313966,167510,2,0.97217,0.12061,0.50317,-2.794,0.183,1.427
2026-05-21 17:16:14.710,1267314166,167710,1,1.02466,-0.00757,0.16138,-1.733,1.695,0.344
2026-05-21 17:16:14.710,1267314166,167710,2,0.96094,0.11328,0.50049,6.366,0.641,2.641
2026-05-21 17:16:14.910,1267314366,167910,1,1.03052,-0.0061,0.15601,-5.084,1.244,0.008
2026-05-21 17:16:14.910,1267314366,167910,2,0.96191,0.10986,0.49951,-7.427,-0.229,1.618
2026-05-21 17:16:15.110,1267314566,168110,1,1.02246,-0.01587,0.15332,-2.611,0.45,0.542
2026-05-21 17:16:15.110,1267314566,168110,2,0.96216,0.10815,0.49927,-3.275,-0.206,1.634
2026-05-21 17:16:15.310,1267314766,168310,1,1.02051,-0.01172,0.15771,-2.206,-0.802,0.13
2026-05-21 17:16:15.310,1267314766,168310,2,0.96631,0.10767,0.49414,-1.893,0.015,1.969
2026-05-21 17:16:15.510,1267314966,168510,1,1.02515,-0.01563,0.16235,-1.939,0.191,0.038
2026-05-21 17:16:15.510,1267314966,168510,2,0.96851,0.10522,0.48755,0.206,1.527,1.504
2026-05-21 17:16:15.710,1267315166,168710,1,1.03003,-0.02881,0.16919,2.389,-0.458,2.275
2026-05-21 17:16:15.710,1267315166,168710,2,0.96436,0.10352,0.49316,2.664,2.885,-2.405
2026-05-21 17:16:15.910,1267315366,168910,1,1.0354,0.01025,0.14453,-1.924,-1.435,-0.595
2026-05-21 17:16:15.910,1267315366,168910,2,0.96509,0.09937,0.51587,9.252,4.466,-0.191
2026-05-21 17:16:18.522,1267317978,171522,1,1.02222,0.01367,0.17114,4.542,-0.809,1.336
2026-05-21 17:16:18.522,1267317978,171522,2,0.96338,0.11841,0.50293,-2.031,1.565,1.252
2026-05-21 17:16:18.722,1267318178,171722,1,1.01538,-0.00659,0.16919,-4.733,0.992,-2.092
2026-05-21 17:16:18.722,1267318178,171722,2,0.96948,0.11499,0.51025,-1.374,-0.756,3.221
2026-05-21 17:16:18.922,1267318378,171922,1,1.02563,0.00391,0.16284,-4.275,-0.496,-0.771
2026-05-21 17:16:18.922,1267318378,171922,2,0.96509,0.10449,0.48804,-5.076,-0.305,2.275
2026-05-21 17:16:19.122,1267318578,172122,1,1.02368,-0.00879,0.17822,-0.962,-4.092,3.031
2026-05-21 17:16:19.122,1267318578,172122,2,0.97339,0.11084,0.49414,0.374,-2.008,0.679
2026-05-21 17:16:19.322,1267318778,172322,1,1.02393,-0.00854,0.14844,-3.527,0.511,1.84
2026-05-21 17:16:19.322,1267318778,172322,2,0.96436,0.10352,0.47925,-4.374,-1.313,1.542
2026-05-21 17:16:19.522,1267318978,172522,1,1.01685,-0.01465,0.13452,4.588,4.565,-0.641
2026-05-21 17:16:19.522,1267318978,172522,2,0.9646,0.11646,0.49951,9.42,2.695,4.16
2026-05-21 17:16:19.722,1267319178,172722,1,1.01465,-0.03394,0.16992,-16.679,3.206,-1.405
2026-05-21 17:16:19.722,1267319178,172722,2,0.96436,0.10962,0.49438,2.023,0.893,1.282
2026-05-21 17:16:22.588,1267322044,175588,1,1.01147,-0.00146,0.15625,-2.015,0.939,-1.0
2026-05-21 17:16:22.588,1267322044,175588,2,0.96899,0.10547,0.49902,-2.229,-0.504,1.756
2026-05-21 17:16:22.788,1267322244,175788,1,1.02173,-0.00342,0.16968,-0.519,1.053,-0.679
2026-05-21 17:16:22.788,1267322244,175788,2,0.9668,0.10156,0.5,2.092,1.137,1.45
2026-05-21 17:16:23.988,1267323444,175988,1,1.02002,-0.00342,0.15698,-0.519,1.427,-0.565
2026-05-21 17:16:23.988,1267323444,175988,2,0.96289,0.09863,0.48218,-5.901,0.733,1.229
2026-05-21 17:16:23.188,1267322644,176188,1,1.02002,-0.00464,0.18726,0.443,1.16,1.122
2026-05-21 17:16:23.188,1267322644,176188,2,0.96631,0.10327,0.49927,2.351,2.008,2.802
2026-05-21 17:16:23.388,1267322844,176388,1,1.0166,-0.00122,0.1687,-3.908,0.267,-0.008
2026-05-21 17:16:23.388,1267322844,176388,2,0.96704,0.09668,0.48877,-2.672,0.908,1.55
2026-05-21 17:16:23.588,1267323044,176588,1,1.02539,-0.01538,0.14209,0.611,1.382,2.115
2026-05-21 17:16:23.588,1267323044,176588,2,0.95898,0.11133,0.48975,2.618,1.885,2.252
2026-05-21 17:16:23.788,1267323244,176788,1,1.02905,0.00293,0.14551,-4.771,1.649,0.313
2026-05-21 17:16:23.788,1267323244,176788,2,0.95874,0.09766,0.48389,-4.237,2.176,3.061
2026-05-21 17:16:24.988,1267324444,176988,1,1.01025,-0.00513,0.16113,1.809,-1.809,-0.107
2026-05-21 17:16:24.988,1267324444,176988,2,0.97095,0.10864,0.46655,3.924,1.733,2.145
2026-05-21 17:16:24.188,1267323644,177188,1,1.02637,-0.02612,0.1748,-6.863,-3.275,-0.458
2026-05-21 17:16:24.188,1267323644,177188,2,0.96582,0.08545,0.47192,-2.679,1.115,-0.153
2026-05-21 17:16:24.388,1267323844,177388,1,1.02417,0.00757,0.12134,0.626,-3.359,2.496
2026-05-21 17:16:24.388,1267323844,177388,2,0.96387,0.11694,0.47656,-2.626,-2.565,2.344
2026-05-21 17:16:24.588,1267324044,177588,1,1.02246,-0.02588,0.15771,-21.359,1.786,-5.038
2026-05-21 17:16:24.588,1267324044,177588,2,0.96631,0.07861,0.46973,-13.55,-0.145,-0.061
2026-05-21 17:16:24.788,1267324244,177788,1,1.03711,-0.01782,0.14209,4.053,-3.573,0.634
2026-05-21 17:16:24.788,1267324244,177788,2,0.97681,0.12012,0.44263,5.16,3.702,-2.107
2026-05-21 17:16:25.988,1267325444,177988,1,1.03662,0.00781,0.0979,6.42,-2.901,4.779
2026-05-21 17:16:25.988,1267325444,177988,2,0.95947,0.13232,0.4834,4.061,-3.412,1.573
2026-05-21 17:16:25.188,1267324644,178188,1,1.06641,-0.03442,0.11255,-17.0,2.908,-1.389
2026-05-21 17:16:25.188,1267324644,178188,2,0.97998,0.10059,0.427,-16.031,2.069,4.191
2026-05-21 17:16:25.388,1267324844,178388,1,1.04395,-0.09546,0.13257,-0.405,4.389,-0.191
2026-05-21 17:16:25.388,1267324844,178388,2,0.97095,0.12915,0.50903,7.038,1.679,-5.656
2026-05-21 17:16:25.639,1267325095,178639,1,1.02002,-0.01245,0.18628,1.779,6.573,-4.305
2026-05-21 17:16:25.639,1267325095,178639,2,0.9707,0.14111,0.49878,3.244,1.748,-2.649
2026-05-21 17:16:25.839,1267325295,178839,1,0.99976,-0.04175,0.18799,1.504,6.557,-3.183
2026-05-21 17:16:25.839,1267325295,178839,2,0.95703,0.13184,0.50073,3.42,10.145,-5.176
2026-05-21 17:16:26.039,1267325495,179039,1,1.01587,0.02466,0.20068,2.107,6.038,-0.183
2026-05-21 17:16:26.039,1267325495,179039,2,0.94946,0.17383,0.53638,-3.756,6.687,-1.321
2026-05-21 17:16:26.239,1267325695,179239,1,0.98584,0.0105,0.24365,-9.916,7.771,-0.427
2026-05-21 17:16:26.239,1267325695,179239,2,0.93604,0.17041,0.56128,-10.389,2.122,3.634
2026-05-21 17:16:26.439,1267325895,179439,1,0.94751,0.00317,0.27905,-3.634,-2.076,6.084
2026-05-21 17:16:26.439,1267325895,179439,2,0.95264,0.11719,0.59619,-0.328,-10.695,11.206
2026-05-21 17:16:26.639,1267326095,179639,1,0.99561,-0.03516,0.22607,-3.557,-0.214,-5.504
2026-05-21 17:16:26.639,1267326095,179639,2,0.94775,0.11719,0.49609,-0.519,3.565,-0.374
2026-05-21 17:16:26.839,1267326295,179839,1,1.0083,-0.01831,0.19971,-1.267,-7.221,-1.137
2026-05-21 17:16:26.839,1267326295,179839,2,0.96216,0.09033,0.52881,3.412,-0.008,9.137
2026-05-21 17:16:27.039,1267326495,180039,1,1.00073,-0.02783,0.20337,-0.405,0.924,2.168
2026-05-21 17:16:27.039,1267326495,180039,2,0.97778,0.10474,0.49243,4.794,7.275,1.832
2026-05-21 17:16:27.249,1267326705,180249,1,1.01001,-0.00562,0.19556,0.206,-0.519,-1.55
2026-05-21 17:16:27.249,1267326705,180249,2,0.96484,0.08252,0.51343,-3.137,3.321,1.137
2026-05-21 17:16:30.240,1267329696,183240,1,1.0061,-0.03906,0.18433,-13.046,-4.947,-6.023
2026-05-21 17:16:30.240,1267329696,183240,2,0.96533,0.04565,0.49023,-19.649,-11.908,3.267
2026-05-21 17:16:30.440,1267329896,183440,1,1.02344,-0.07324,0.14526,0.29,-7.481,-1.397
2026-05-21 17:16:30.440,1267329896,183440,2,0.97485,0.0166,0.45728,3.053,-6.878,3.328
2026-05-21 17:16:30.640,1267330096,183640,1,1.04053,-0.05444,0.13184,1.374,-0.145,-0.26
2026-05-21 17:16:30.640,1267330096,183640,2,0.96802,0.01587,0.40625,2.908,-0.618,1.29
2026-05-21 17:16:30.840,1267330296,183840,1,1.02588,-0.05225,0.13306,-1.916,5.107,0.313
2026-05-21 17:16:30.840,1267330296,183840,2,0.95435,0.05493,0.40405,2.382,5.069,0.885
2026-05-21 17:16:31.260,1267330716,184260,1,1.05591,-0.06152,0.12573,2.076,-0.443,0.252
2026-05-21 17:16:31.260,1267330716,184260,2,0.99194,0.04956,0.46216,2.725,-3.29,0.557
2026-05-21 17:16:31.679,1267331135,184679,1,1.02661,-0.05298,0.17969,-0.908,-0.74,-1.504
2026-05-21 17:16:31.679,1267331135,184679,2,0.93555,0.02466,0.48633,-6.046,-14.168,4.832
2026-05-21 17:16:32.981,1267332437,184981,1,1.02393,-0.04858,0.16821,6.427,1.389,0.817
2026-05-21 17:16:32.981,1267332437,184981,2,1.01025,0.03027,0.47583,-1.786,-6.267,1.954
2026-05-21 17:16:32.268,1267331724,185268,1,0.9873,-0.06494,0.18994,-0.351,3.695,1.924
2026-05-21 17:16:32.268,1267331724,185268,2,0.97754,0.04004,0.47046,-8.115,-4.107,2.137
2026-05-21 17:16:32.507,1267331963,185507,1,0.99609,-0.07373,0.19702,-7.366,4.649,-0.649
2026-05-21 17:16:32.507,1267331963,185507,2,0.9541,0.03296,0.45874,0.527,7.824,2.649
2026-05-21 17:16:32.707,1267332163,185707,1,1.02588,-0.05151,0.16821,3.298,-1.855,-0.405
2026-05-21 17:16:32.707,1267332163,185707,2,0.95532,0.02563,0.45972,-8.588,4.71,1.382
2026-05-21 17:16:32.907,1267332363,185907,1,1.01563,-0.06909,0.18286,4.115,0.069,1.153
2026-05-21 17:16:32.907,1267332363,185907,2,0.97998,0.03882,0.47534,12.069,5.771,0.962
