datetime,epoch_ms,ts_millis,mpu_id,ax,ay,az,gx,gy,gz
2026-05-23 15:37:33.596,1434193052,304595,1,0.9209,0.03882,0.33252,-3.809,0.153,-5.855
2026-05-23 15:37:33.596,1434193052,304595,2,0.95801,0.15552,0.49048,3.985,6.779,3.412
2026-05-23 15:37:39.717,1434199173,309717,1,0.91528,0.08228,0.37744,-2.962,0.511,-0.511
2026-05-23 15:37:39.717,1434199173,309717,2,0.95752,0.15845,0.5105,-8.198,-2.183,0.115
2026-05-23 15:37:39.917,1434199373,309917,1,0.93213,0.08643,0.38916,-2.924,-0.153,0.573
2026-05-23 15:37:39.917,1434199373,309917,2,0.97412,0.12524,0.48535,-0.046,12.374,-0.901
2026-05-23 15:37:39.117,1434198573,310117,1,0.95239,0.10107,0.38452,-3.069,1.099,-0.542
2026-05-23 15:37:39.117,1434198573,310117,2,0.94995,0.16138,0.49365,-2.855,8.45,0.916
2026-05-23 15:37:39.317,1434198773,310317,1,0.92871,0.07886,0.3877,-8.756,-0.267,-0.679
2026-05-23 15:37:39.317,1434198773,310317,2,0.94287,0.13379,0.49487,-0.527,7.763,1.099
2026-05-23 15:37:39.517,1434198973,310517,1,0.93481,0.08521,0.38916,-2.496,4.191,2.389
2026-05-23 15:37:39.517,1434198973,310517,2,0.94116,0.15967,0.47607,-0.397,6.626,2.885
2026-05-23 15:37:40.717,1434200173,310717,1,0.9231,0.06421,0.37524,-2.817,-2.702,1.489
2026-05-23 15:37:40.717,1434200173,310717,2,0.95752,0.14575,0.49341,-0.26,1.824,6.595
2026-05-23 15:37:40.917,1434200373,310917,1,0.91724,0.07324,0.36328,-1.809,0.962,4.115
2026-05-23 15:37:40.917,1434200373,310917,2,0.95386,0.13232,0.50806,8.443,1.221,0.008
2026-05-23 15:37:43.017,1434202473,314017,1,0.979,-0.00537,0.30859,9.076,5.565,-2.252
2026-05-23 15:37:43.017,1434202473,314017,2,0.97144,0.1521,0.47754,2.412,11.0,-0.466
2026-05-23 15:37:43.217,1434202673,314217,1,0.94531,0.02319,0.32153,18.305,2.565,1.679
2026-05-23 15:37:43.217,1434202673,314217,2,0.97095,0.11377,0.51416,11.115,14.977,-14.191
2026-05-23 15:37:43.417,1434202873,314417,1,0.89771,0.16479,0.36108,16.916,18.947,4.695
2026-05-23 15:37:43.417,1434202873,314417,2,0.93457,0.26929,0.56201,-2.481,14.221,-2.664
2026-05-23 15:37:44.617,1434204073,314617,1,0.86401,0.12964,0.40503,-9.985,4.931,-8.733
2026-05-23 15:37:44.617,1434204073,314617,2,0.91992,0.19092,0.60864,-6.237,-0.321,-3.802
2026-05-23 15:37:44.817,1434204273,314817,1,0.86206,0.12354,0.43652,2.885,7.832,-2.863
2026-05-23 15:37:44.817,1434204273,314817,2,0.93774,0.22876,0.64746,2.618,8.275,-2.603
2026-05-23 15:37:44.017,1434203473,315017,1,0.84741,0.17334,0.43384,8.603,8.748,-2.603
2026-05-23 15:37:44.017,1434203473,315017,2,0.92358,0.25708,0.66479,1.145,4.901,-4.931
2026-05-23 15:37:44.217,1434203673,315217,1,0.83105,0.18408,0.45874,1.634,4.687,-2.405
2026-05-23 15:37:44.217,1434203673,315217,2,0.90161,0.26025,0.66943,-0.618,7.099,-0.252
2026-05-23 15:37:44.417,1434203873,315417,1,0.82959,0.19263,0.46606,1.046,3.115,-1.412
2026-05-23 15:37:44.417,1434203873,315417,2,0.91431,0.26538,0.67358,-0.252,3.985,-1.565
2026-05-23 15:37:45.617,1434205073,315617,1,0.81885,0.21924,0.46509,2.969,0.847,0.183
2026-05-23 15:37:45.617,1434205073,315617,2,0.88843,0.27515,0.67993,1.588,4.802,0.969
2026-05-23 15:37:45.817,1434205273,315817,1,0.80615,0.22632,0.47437,-0.878,1.901,0.061
2026-05-23 15:37:45.817,1434205273,315817,2,0.89453,0.28174,0.70654,-0.405,-1.603,2.443
2026-05-23 15:37:45.017,1434204473,316017,1,0.82349,0.23486,0.47119,-12.267,-7.229,4.74
2026-05-23 15:37:45.017,1434204473,316017,2,0.88843,0.28516,0.67822,-1.466,-3.748,7.748
2026-05-23 15:37:45.217,1434204673,316217,1,0.81982,0.1582,0.47705,-20.382,-9.718,-5.069
2026-05-23 15:37:45.217,1434204673,316217,2,0.90527,0.21533,0.65698,-6.397,-9.595,5.244
2026-05-23 15:37:45.417,1434204873,316417,1,0.85156,0.17017,0.4436,0.389,-4.519,6.939
2026-05-23 15:37:45.417,1434204873,316417,2,0.92529,0.23657,0.61377,6.985,-1.618,6.786
2026-05-23 15:37:46.617,1434206073,316617,1,0.87012,0.15186,0.42822,-8.298,-7.885,4.466
2026-05-23 15:37:46.617,1434206073,316617,2,0.93823,0.20532,0.57568,-8.061,-10.748,7.328
2026-05-23 15:37:46.817,1434206273,316817,1,0.90576,0.10693,0.3877,-6.183,-5.679,2.534
2026-05-23 15:37:46.817,1434206273,316817,2,0.93652,0.21875,0.55176,1.412,-9.771,10.008
2026-05-23 15:37:46.017,1434205473,317017,1,0.94214,0.08179,0.37402,-12.229,-4.137,-2.817
2026-05-23 15:37:46.017,1434205473,317017,2,0.96338,0.16187,0.51245,12.122,-0.901,0.771
2026-05-23 15:37:46.217,1434205673,317217,1,0.9043,0.03516,0.35986,-5.137,-1.023,4.336
2026-05-23 15:37:46.217,1434205673,317217,2,0.95996,0.19849,0.51221,6.015,13.649,-0.374
2026-05-23 15:37:46.417,1434205873,317417,1,0.92578,0.09692,0.37451,-8.908,-5.962,-9.191
2026-05-23 15:37:46.417,1434205873,317417,2,0.93677,0.11011,0.55908,-15.55,-6.496,0.122
2026-05-23 15:37:47.617,1434207073,317617,1,0.87256,0.11255,0.41577,5.435,3.824,2.504
2026-05-23 15:37:47.617,1434207073,317617,2,0.95117,0.20752,0.5083,-5.588,-1.908,2.427
2026-05-23 15:37:47.817,1434207273,317817,1,0.90894,0.09937,0.36719,-1.153,3.55,-1.702
2026-05-23 15:37:47.817,1434207273,317817,2,0.96313,0.16479,0.5022,-0.206,-1.924,-2.702
2026-05-23 15:37:47.017,1434206473,318017,1,0.90259,0.1145,0.38525,-0.206,-2.954,0.16
2026-05-23 15:37:47.017,1434206473,318017,2,0.95483,0.19189,0.50122,-3.26,-1.473,1.672
2026-05-23 15:37:47.217,1434206673,318217,1,0.90259,0.13257,0.36865,0.26,1.878,-0.916
2026-05-23 15:37:47.217,1434206673,318217,2,0.95972,0.18335,0.49951,-1.344,-0.557,0.74
2026-05-23 15:37:47.417,1434206873,318417,1,0.91968,0.11353,0.36865,-3.496,1.084,0.084
2026-05-23 15:37:47.417,1434206873,318417,2,0.95508,0.18555,0.4978,-3.412,4.137,1.489
2026-05-23 15:37:48.617,1434208073,318617,1,0.89648,0.11401,0.38599,2.282,-3.405,-3.916
2026-05-23 15:37:48.617,1434208073,318617,2,0.95728,0.1792,0.50342,-3.603,0.298,1.695
2026-05-23 15:37:48.817,1434208273,318817,1,0.90894,0.13623,0.37598,2.771,4.023,-0.878
2026-05-23 15:37:48.817,1434208273,318817,2,0.95752,0.1853,0.49805,-0.992,-0.534,2.901
2026-05-23 15:37:48.017,1434207473,319017,1,0.91479,0.11426,0.37622,0.267,-0.786,0.779
2026-05-23 15:37:48.017,1434207473,319017,2,0.95923,0.17676,0.4917,2.313,1.008,-1.557
2026-05-23 15:37:48.217,1434207673,319217,1,0.91431,0.14624,0.36768,-1.588,-2.908,-0.458
2026-05-23 15:37:48.217,1434207673,319217,2,0.95386,0.1853,0.49731,-7.282,-3.458,0.725
2026-05-23 15:37:48.417,1434207873,319417,1,0.90991,0.15234,0.35352,4.504,2.084,-0.412
2026-05-23 15:37:48.417,1434207873,319417,2,0.94849,0.19604,0.48145,0.366,1.237,2.733
2026-05-23 15:37:49.617,1434209073,319617,1,0.91846,0.14771,0.34521,-1.328,1.191,1.061
2026-05-23 15:37:49.617,1434209073,319617,2,0.9624,0.18042,0.47437,-0.756,0.275,3.427
2026-05-23 15:37:49.817,1434209273,319817,1,0.90918,0.13013,0.36279,-2.366,0.282,1.397
2026-05-23 15:37:49.817,1434209273,319817,2,0.96558,0.17554,0.48047,-1.702,1.542,3.244
2026-05-23 15:37:49.017,1434208473,320017,1,0.92017,0.1228,0.35791,-0.763,1.664,-0.733
2026-05-23 15:37:49.017,1434208473,320017,2,0.96021,0.15869,0.48389,1.725,2.565,-0.565
2026-05-23 15:37:49.217,1434208673,320217,1,0.90576,0.10522,0.37109,-2.252,0.275,-0.863
2026-05-23 15:37:49.217,1434208673,320217,2,0.95728,0.17896,0.49707,-0.863,1.679,-2.962
2026-05-23 15:37:49.417,1434208873,320417,1,0.91455,0.13184,0.38623,0.382,-3.336,-3.817
2026-05-23 15:37:49.417,1434208873,320417,2,0.96021,0.18677,0.48877,0.443,0.855,-5.198
2026-05-23 15:37:50.617,1434210073,320617,1,0.93872,0.1272,0.32837,3.748,-4.145,5.069
2026-05-23 15:37:50.617,1434210073,320617,2,0.94312,0.23584,0.4917,-0.565,-2.214,2.664
2026-05-23 15:37:50.817,1434210273,320817,1,0.92188,0.12964,0.34741,-5.603,2.244,-0.962
2026-05-23 15:37:50.817,1434210273,320817,2,0.96436,0.18896,0.48389,5.115,2.206,2.992
2026-05-23 15:37:50.017,1434209473,321017,1,0.93091,0.12036,0.34814,-10.061,-10.183,3.695
2026-05-23 15:37:50.017,1434209473,321017,2,0.9585,0.18945,0.47437,-3.412,0.786,-1.389
2026-05-23 15:37:50.217,1434209673,321217,1,0.92749,0.13062,0.31348,-2.626,-1.748,-0.794
2026-05-23 15:37:50.217,1434209673,321217,2,0.95239,0.21655,0.47705,-5.389,3.786,-0.214
2026-05-23 15:37:50.417,1434209873,321417,1,0.91382,0.1333,0.33643,-2.244,-3.756,0.656
2026-05-23 15:37:50.417,1434209873,321417,2,0.94653,0.2019,0.48218,-0.145,-4.58,4.557
2026-05-23 15:37:51.617,1434211073,321617,1,0.93018,0.13208,0.323,-0.641,3.931,3.038
2026-05-23 15:37:51.617,1434211073,321617,2,0.95288,0.20386,0.45874,2.405,4.756,3.969
2026-05-23 15:37:51.817,1434211273,321817,1,0.92773,0.09351,0.31274,1.634,-1.855,1.374
2026-05-23 15:37:51.817,1434211273,321817,2,0.9519,0.20288,0.47168,-0.191,-0.618,-2.924
2026-05-23 15:37:51.017,1434210473,322017,1,0.91919,0.12891,0.34009,-7.336,4.061,-5.855
2026-05-23 15:37:51.017,1434210473,322017,2,0.9397,0.21216,0.46729,-11.763,-3.939,0.466
2026-05-23 15:37:51.217,1434210673,322217,1,0.93164,0.14966,0.32935,-2.87,0.382,-3.947
2026-05-23 15:37:51.217,1434210673,322217,2,0.94556,0.21484,0.48438,-4.947,0.359,1.962
2026-05-23 15:37:51.417,1434210873,322417,1,0.89551,0.16016,0.3772,-0.702,-2.076,2.603
2026-05-23 15:37:51.417,1434210873,322417,2,0.94385,0.19482,0.47363,-0.595,-7.221,6.267
2026-05-23 15:37:52.617,1434212073,322617,1,0.95947,0.09766,0.31299,1.267,-8.832,1.168
2026-05-23 15:37:52.617,1434212073,322617,2,0.98853,0.21851,0.42603,-2.084,-4.176,8.206
2026-05-23 15:37:52.817,1434212273,322817,1,0.94873,0.11841,0.28638,-5.237,-2.076,-0.626
2026-05-23 15:37:52.817,1434212273,322817,2,0.94507,0.18579,0.46191,4.267,6.221,9.763
2026-05-23 15:37:52.017,1434211473,323017,1,0.93506,0.10181,0.17236,10.992,-22.977,3.779
2026-05-23 15:37:52.017,1434211473,323017,2,0.9502,0.14282,0.42603,7.939,1.489,8.473
2026-05-23 15:37:52.217,1434211673,323217,1,1.01001,0.13525,0.1731,1.038,-35.076,2.878
2026-05-23 15:37:52.217,1434211673,323217,2,0.96094,0.15308,0.41406,-6.198,4.878,5.084
2026-05-23 15:37:52.417,1434211873,323417,1,0.98511,0.10596,0.18848,-2.069,-4.275,4.153
2026-05-23 15:37:52.417,1434211873,323417,2,0.97046,0.14209,0.45044,-1.84,4.137,2.603
2026-05-23 15:37:53.617,1434213073,323617,1,1.02173,0.07104,0.21094,3.13,-22.595,3.74
2026-05-23 15:37:53.617,1434213073,323617,2,1.02026,0.18457,0.38525,-4.779,-16.511,-12.229
2026-05-23 15:37:53.817,1434213273,323817,1,1.01587,0.10571,0.05566,-6.153,-19.427,-1.229
2026-05-23 15:37:53.817,1434213273,323817,2,0.96704,0.14966,0.46777,2.489,4.992,3.824
2026-05-23 15:37:53.017,1434212473,324017,1,0.98706,0.07031,0.07813,-6.145,3.832,-5.176
2026-05-23 15:37:53.017,1434212473,324017,2,0.93066,0.17383,0.40112,-3.603,3.969,2.252
2026-05-23 15:37:53.217,1434212673,324217,1,1.05298,0.1272,0.08447,-1.191,-4.069,2.473
2026-05-23 15:37:53.217,1434212673,324217,2,0.94116,0.22119,0.42041,6.405,3.718,-0.901
2026-05-23 15:37:53.452,1434212908,324451,1,1.01294,0.11401,0.16699,-3.916,-13.626,0.924
2026-05-23 15:37:53.452,1434212908,324451,2,0.96582,0.15576,0.41431,-6.244,-3.084,7.42
2026-05-23 15:37:54.651,1434214107,324651,1,1.06665,0.06055,0.0647,-3.802,-1.015,-4.168
2026-05-23 15:37:54.651,1434214107,324651,2,1.03174,0.11743,0.42407,-2.374,-4.382,-1.374
2026-05-23 15:37:54.851,1434214307,324851,1,1.05933,0.08154,0.05371,6.481,-4.427,3.679
2026-05-23 15:37:54.851,1434214307,324851,2,0.96631,0.15869,0.42139,3.443,2.16,-2.351
2026-05-23 15:37:54.051,1434213507,325051,1,1.02271,0.08643,0.09424,-6.16,3.458,5.359
2026-05-23 15:37:54.051,1434213507,325051,2,0.95166,0.1687,0.41821,-0.794,4.237,4.802
2026-05-23 15:37:54.251,1434213707,325251,1,1.03174,0.0603,0.10156,-0.985,7.405,-1.328
2026-05-23 15:37:54.251,1434213707,325251,2,0.97949,0.16455,0.45532,1.229,2.443,3.206
2026-05-23 15:37:54.451,1434213907,325451,1,1.01953,0.09155,0.10205,2.015,2.099,-1.649
2026-05-23 15:37:54.451,1434213907,325451,2,0.97119,0.19556,0.41772,1.45,4.13,0.031
2026-05-23 15:37:55.651,1434215107,325651,1,1.01245,0.05127,0.12329,-5.924,4.786,1.267
2026-05-23 15:37:55.651,1434215107,325651,2,0.93823,0.15161,0.48242,-1.168,4.565,0.763
2026-05-23 15:37:55.851,1434215307,325851,1,1.00854,0.0708,0.08765,1.069,4.58,-2.26
2026-05-23 15:37:55.851,1434215307,325851,2,1.00122,0.19287,0.43384,-3.244,12.733,-8.191
2026-05-23 15:37:55.051,1434214507,326051,1,0.99683,0.11377,0.18945,13.443,9.679,-9.244
2026-05-23 15:37:55.051,1434214507,326051,2,0.92773,0.2041,0.54688,3.237,10.206,-5.847
2026-05-23 15:37:55.251,1434214707,326251,1,0.97827,0.1748,0.19043,-5.344,-0.962,-2.435
2026-05-23 15:37:55.251,1434214707,326251,2,0.9314,0.26758,0.61353,-19.191,-10.076,5.397
2026-05-23 15:37:55.451,1434214907,326451,1,0.96753,0.13281,0.26514,-4.794,7.458,-23.74
2026-05-23 15:37:55.451,1434214907,326451,2,0.88525,0.23193,0.52393,5.053,31.947,7.099
2026-05-23 15:37:56.651,1434216107,326651,1,0.98096,0.21436,0.26709,-2.45,6.916,2.137
2026-05-23 15:37:56.651,1434216107,326651,2,0.93066,0.24316,0.51489,18.176,10.603,1.191
2026-05-23 15:37:56.851,1434216307,326851,1,0.95117,0.24072,0.25122,-14.031,1.183,-5.099
2026-05-23 15:37:56.851,1434216307,326851,2,0.86743,0.2561,0.57227,-7.939,3.786,13.702
2026-05-23 15:37:56.051,1434215507,327051,1,0.98438,0.17969,0.302,0.641,6.183,-2.282
2026-05-23 15:37:56.051,1434215507,327051,2,0.85327,0.18115,0.56714,7.336,23.351,6.366
2026-05-23 15:37:56.251,1434215707,327251,1,0.98511,0.20923,0.34497,7.122,8.71,7.321
2026-05-23 15:37:56.251,1434215707,327251,2,0.91943,0.18604,0.5564,-0.435,10.42,3.977
2026-05-23 15:37:56.451,1434215907,327451,1,0.9978,0.16772,0.31885,-7.71,-6.634,-0.198
2026-05-23 15:37:56.451,1434215907,327451,2,0.97754,0.24438,0.51294,5.061,10.573,-0.198
2026-05-23 15:37:57.651,1434217107,327651,1,0.94775,0.229,0.30322,0.527,-6.802,-0.756
2026-05-23 15:37:57.651,1434217107,327651,2,1.00488,0.21313,0.56006,2.969,-2.573,3.718
2026-05-23 15:37:57.851,1434217307,327851,1,0.90942,0.20898,0.30225,5.366,3.206,-0.611
2026-05-23 15:37:57.851,1434217307,327851,2,0.97876,0.23389,0.54321,-2.595,-12.802,1.328
2026-05-23 15:37:57.051,1434216507,328051,1,0.84692,0.18921,0.29956,-0.947,-5.855,0.679
2026-05-23 15:37:57.051,1434216507,328051,2,0.96167,0.22119,0.56934,0.282,-14.496,5.809
2026-05-23 15:38:00.740,1434220196,330740,1,0.92798,0.15967,0.31494,-1.046,-1.504,-0.634
2026-05-23 15:38:00.740,1434220196,330740,2,0.94775,0.19214,0.52173,-1.115,-2.435,1.756
2026-05-23 15:38:00.940,1434220396,330940,1,0.93335,0.14233,0.32251,-1.649,2.649,0.206
2026-05-23 15:38:00.940,1434220396,330940,2,0.95239,0.19019,0.52026,3.275,2.366,0.603
2026-05-23 15:38:00.140,1434219596,331140,1,0.92603,0.15332,0.31567,-1.267,0.542,-0.405
2026-05-23 15:38:00.140,1434219596,331140,2,0.95288,0.20459,0.49976,-2.641,2.626,-1.389
2026-05-23 15:38:00.340,1434219796,331340,1,0.91211,0.17114,0.32788,-3.641,-2.924,-0.305
2026-05-23 15:38:00.340,1434219796,331340,2,0.94238,0.2085,0.52832,-3.702,-0.534,2.817
2026-05-23 15:38:00.540,1434219996,331540,1,0.95288,0.14478,0.31299,-0.756,3.71,0.183
2026-05-23 15:38:00.540,1434219996,331540,2,0.94922,0.19824,0.51465,-0.176,3.702,3.519
2026-05-23 15:38:01.740,1434221196,331740,1,0.94116,0.14331,0.32178,-3.076,-0.481,0.824
2026-05-23 15:38:01.740,1434221196,331740,2,0.95361,0.18335,0.51758,2.87,2.809,-0.191
2026-05-23 15:38:01.940,1434221396,331940,1,0.93506,0.13623,0.33472,-3.015,-1.664,0.26
2026-05-23 15:38:01.940,1434221396,331940,2,0.94067,0.21509,0.54175,-6.099,-6.511,-0.634
2026-05-23 15:38:01.140,1434220596,332140,1,0.93848,0.17798,0.30396,-2.206,-0.038,-3.611
2026-05-23 15:38:01.140,1434220596,332140,2,0.93848,0.21484,0.51831,-4.42,0.58,2.015
2026-05-23 15:38:01.340,1434220796,332340,1,0.9248,0.17749,0.30811,2.595,3.679,-1.435
2026-05-23 15:38:01.340,1434220796,332340,2,0.95557,0.21313,0.49341,-6.718,-0.237,3.405
2026-05-23 15:38:01.540,1434220996,332540,1,0.93506,0.16577,0.31665,-3.038,2.817,1.237
2026-05-23 15:38:01.540,1434220996,332540,2,0.95166,0.19141,0.5,-1.794,1.771,4.58
2026-05-23 15:38:02.740,1434222196,332740,1,0.93164,0.14966,0.32227,-3.649,-0.954,2.511
2026-05-23 15:38:02.740,1434222196,332740,2,0.95532,0.17285,0.5127,1.809,1.344,3.275
2026-05-23 15:38:02.940,1434222396,332940,1,0.94116,0.14893,0.31299,-2.458,2.038,1.725
2026-05-23 15:38:02.940,1434222396,332940,2,0.97119,0.18018,0.49268,0.466,1.794,-1.099
2026-05-23 15:38:02.140,1434221596,333140,1,0.94019,0.14502,0.32031,-0.748,0.145,-1.511
2026-05-23 15:38:02.140,1434221596,333140,2,0.95825,0.19702,0.50464,-3.038,1.13,-1.718
2026-05-23 15:38:02.340,1434221796,333340,1,0.91992,0.16772,0.31885,-3.145,-1.855,-1.679
2026-05-23 15:38:02.340,1434221796,333340,2,0.95117,0.20459,0.5127,-3.321,-2.015,1.153
2026-05-23 15:38:02.540,1434221996,333540,1,0.93213,0.16455,0.31299,-1.771,-0.595,-0.679
2026-05-23 15:38:02.540,1434221996,333540,2,0.95801,0.18848,0.49658,-0.427,0.008,2.992
2026-05-23 15:38:03.740,1434223196,333740,1,0.94336,0.16309,0.29907,-2.626,1.71,2.58
2026-05-23 15:38:03.740,1434223196,333740,2,0.95825,0.18921,0.49658,-0.115,2.397,1.771
2026-05-23 15:38:03.027,1434222483,334027,1,0.93042,0.15234,0.32837,-1.42,-0.664,-0.015
2026-05-23 15:38:03.027,1434222483,334027,2,0.94995,0.19873,0.51001,-4.366,-3.038,1.405
2026-05-23 15:38:03.227,1434222683,334227,1,0.9314,0.13965,0.31348,-1.267,-1.145,-0.58
2026-05-23 15:38:03.227,1434222683,334227,2,0.95264,0.19702,0.49438,-0.191,-0.626,0.351
2026-05-23 15:38:03.427,1434222883,334427,1,0.9397,0.1438,0.31372,-2.061,-0.122,-1.824
2026-05-23 15:38:03.427,1434222883,334427,2,0.95386,0.19995,0.48193,1.13,0.985,-0.023
2026-05-23 15:38:04.627,1434224083,334627,1,0.93262,0.15771,0.3042,-2.397,-3.893,-1.985
2026-05-23 15:38:04.627,1434224083,334627,2,0.9585,0.19434,0.50146,-2.756,-1.321,0.763
2026-05-23 15:38:04.827,1434224283,334827,1,0.9436,0.15796,0.30591,-2.611,0.901,-0.344
2026-05-23 15:38:04.827,1434224283,334827,2,0.96216,0.20239,0.49731,-0.275,2.198,1.695
2026-05-23 15:38:04.027,1434223483,335027,1,0.94824,0.15283,0.30566,-0.542,3.557,2.076
2026-05-23 15:38:04.027,1434223483,335027,2,0.96362,0.2019,0.49316,0.779,4.237,
2026-05-23 15:38:04.227,1434223683,335227,1,0.9353,0.14087,0.32715,-2.924,-2.092,-0.802
2026-05-23 15:38:04.227,1434223683,335227,2,0.94995,0.19922,0.48633,2.115,-0.878,-1.634
2026-05-23 15:38:04.427,1434223883,335427,1,0.95801,0.14941,0.30054,0.229,3.756,-0.679
2026-05-23 15:38:04.427,1434223883,335427,2,0.95142,0.21997,0.51147,2.603,6.542,-4.473
2026-05-23 15:38:05.627,1434225083,335627,1,0.92334,0.13989,0.33423,-3.153,4.908,-0.863
2026-05-23 15:38:05.627,1434225083,335627,2,0.93115,0.24365,0.50806,0.229,0.87,-5.992
2026-05-23 15:38:05.870,1434225326,335870,1,0.9292,0.18457,0.32788,-4.183,-1.687,-3.832
2026-05-23 15:38:05.870,1434225326,335870,2,0.93896,0.26416,0.51733,-1.038,0.885,-3.679
2026-05-23 15:38:05.070,1434224526,336070,1,0.91284,0.13867,0.34644,-0.824,0.099,-1.992
2026-05-23 15:38:05.070,1434224526,336070,2,0.93823,0.28125,0.51709,-2.427,-0.031,-0.427
2026-05-23 15:38:05.270,1434224726,336270,1,0.91577,0.18701,0.31958,-2.069,3.824,0.214
2026-05-23 15:38:05.270,1434224726,336270,2,0.94507,0.28784,0.49829,-5.908,-0.847,4.519
2026-05-23 15:38:05.470,1434224926,336470,1,0.93286,0.20972,0.34595,-4.718,-5.71,-0.084
2026-05-23 15:38:05.470,1434224926,336470,2,0.93726,0.25537,0.50488,-5.359,-3.466,11.908
2026-05-23 15:38:06.670,1434226126,336670,1,0.92285,0.14404,0.33618,-0.84,2.725,9.71
2026-05-23 15:38:06.670,1434226126,336670,2,0.94458,0.22388,0.50317,7.725,2.71,10.924
2026-05-23 15:38:06.870,1434226326,336870,1,0.94141,0.10669,0.34692,-0.16,6.107,4.939
2026-05-23 15:38:06.870,1434226326,336870,2,0.96655,0.16992,0.48877,7.206,5.366,1.679
2026-05-23 15:38:06.070,1434225526,337070,1,0.92407,0.08667,0.38013,0.26,-0.137,2.29
2026-05-23 15:38:06.070,1434225526,337070,2,0.95215,0.21436,0.50781,0.321,4.336,-5.939
2026-05-23 15:38:06.270,1434225726,337270,1,0.90967,0.14746,0.36279,-2.405,-2.496,-5.817
2026-05-23 15:38:06.270,1434225726,337270,2,0.93018,0.24414,0.52075,-4.321,0.573,-6.824
2026-05-23 15:38:06.470,1434225926,337470,1,0.91528,0.15674,0.35303,-0.573,4.794,1.87
2026-05-23 15:38:06.470,1434225926,337470,2,0.92041,0.28491,0.51831,0.817,6.221,0.634
2026-05-23 15:38:07.670,1434227126,337670,1,0.90845,0.16309,0.37109,-1.802,-3.405,-3.206
2026-05-23 15:38:07.670,1434227126,337670,2,0.93115,0.25635,0.5249,-7.458,-7.496,5.427
2026-05-23 15:38:07.870,1434227326,337870,1,0.91187,0.14038,0.34351,-0.962,-0.031,-0.763
2026-05-23 15:38:07.870,1434227326,337870,2,0.93823,0.24609,0.51294,-1.58,-0.511,7.298
2026-05-23 15:38:07.070,1434226526,338070,1,0.92456,0.13696,0.354,-3.092,1.855,-0.176
2026-05-23 15:38:07.070,1434226526,338070,2,0.95264,0.22363,0.50684,2.053,2.664,3.725
2026-05-23 15:38:07.270,1434226726,338270,1,0.90894,0.12622,0.37427,-1.183,-0.405,1.634
2026-05-23 15:38:07.270,1434226726,338270,2,0.94067,0.22729,0.52588,-1.458,-0.412,-0.931
2026-05-23 15:38:07.470,1434226926,338470,1,0.91431,0.14819,0.35303,-2.802,0.298,-1.122
2026-05-23 15:38:07.470,1434226926,338470,2,0.93848,0.24341,0.5188,-3.542,-0.756,0.298
2026-05-23 15:38:08.670,1434228126,338670,1,0.90234,0.16528,0.3584,-1.26,2.435,-3.443
2026-05-23 15:38:08.670,1434228126,338670,2,0.9502,0.23389,0.50122,-2.832,-0.183,4.061
2026-05-23 15:38:08.870,1434228326,338870,1,0.93359,0.1438,0.33667,-1.405,1.504,0.817
2026-05-23 15:38:08.870,1434228326,338870,2,0.94043,0.25073,0.49316,-2.458,0.878,3.855
2026-05-23 15:38:08.070,1434227526,339070,1,0.90308,0.13452,0.37378,-7.565,4.053,3.26
2026-05-23 15:38:08.070,1434227526,339070,2,0.94287,0.18677,0.52856,-0.687,1.313,0.496
2026-05-23 15:38:08.270,1434227726,339270,1,0.89893,0.1499,0.36768,-8.954,8.137,4.527
2026-05-23 15:38:08.270,1434227726,339270,2,0.9502,0.23682,0.53149,-4.847,6.908,5.023
2026-05-23 15:38:08.470,1434227926,339470,1,0.89868,0.09741,0.38232,-27.863,7.656,4.405
2026-05-23 15:38:08.470,1434227926,339470,2,0.95142,0.18628,0.56616,-12.252,10.733,15.115
2026-05-23 15:38:09.670,1434229126,339670,1,0.89502,0.04102,0.3877,-33.725,6.466,3.947
2026-05-23 15:38:09.670,1434229126,339670,2,0.9668,0.14233,0.59082,-16.115,11.427,14.885
2026-05-23 15:38:09.870,1434229326,339870,1,0.88013,-0.17847,0.52979,15.42,16.519,9.626
2026-05-23 15:38:09.870,1434229326,339870,2,0.92651,0.1333,0.68652,10.466,12.221,7.802
2026-05-23 15:38:09.070,1434228526,340070,1,0.78223,-0.09717,0.51172,0.435,5.366,-3.763
2026-05-23 15:38:09.070,1434228526,340070,2,0.90015,0.0481,0.65332,-9.565,-7.359,2.985
2026-05-23 15:38:09.270,1434228726,340270,1,0.8269,-0.07983,0.48096,-1.122,0.389,4.939
2026-05-23 15:38:09.270,1434228726,340270,2,0.93433,0.06934,0.68457,4.626,4.962,1.748
2026-05-23 15:38:09.470,1434228926,340470,1,0.82935,-0.06177,0.4856,-0.954,1.099,1.366
2026-05-23 15:38:09.470,1434228926,340470,2,0.9353,0.09131,0.698,1.893,3.626,-0.802
2026-05-23 15:38:10.670,1434230126,340670,1,0.82715,-0.06567,0.48047,-3.855,0.809,-4.122
2026-05-23 15:38:10.670,1434230126,340670,2,0.92676,0.0835,0.70825,-2.565,1.718,0.687
2026-05-23 15:38:10.870,1434230326,340870,1,0.82471,-0.05054,0.49438,-1.824,1.366,1.573
2026-05-23 15:38:10.870,1434230326,340870,2,0.93018,0.0979,0.70264,0.557,2.0,1.206
2026-05-23 15:38:10.070,1434229526,341070,1,0.82349,-0.06299,0.48999,-5.16,2.847,1.893
2026-05-23 15:38:10.070,1434229526,341070,2,0.93359,0.08887,0.70874,0.977,2.954,2.198
2026-05-23 15:38:10.270,1434229726,341270,1,0.82056,-0.06787,0.49487,0.13,0.435,-0.855
2026-05-23 15:38:10.270,1434229726,341270,2,0.92554,0.0874,0.70605,-0.771,0.649,2.198
2026-05-23 15:38:10.470,1434229926,341470,1,0.8269,-0.07056,0.49219,-1.366,0.168,0.542
2026-05-23 15:38:10.470,1434229926,341470,2,0.93237,0.08838,0.69971,1.153,1.573,2.397
2026-05-23 15:38:11.670,1434231126,341670,1,0.81885,-0.08105,0.50391,-2.992,-0.756,0.313
2026-05-23 15:38:11.670,1434231126,341670,2,0.92749,0.08374,0.70581,-0.229,-0.702,1.519
2026-05-23 15:38:11.870,1434231326,341870,1,0.86206,-0.04907,0.52881,-4.542,-3.947,-4.168
2026-05-23 15:38:11.870,1434231326,341870,2,0.97705,0.08252,0.60083,9.634,-0.931,-4.939
2026-05-23 15:38:11.070,1434230526,342070,1,1.02759,-0.11987,0.47192,19.534,-35.107,-22.008
2026-05-23 15:38:11.070,1434230526,342070,2,0.98999,0.15942,0.52905,-13.046,-26.29,-20.115
2026-05-23 15:38:11.270,1434230726,342270,1,1.06421,-0.03833,0.26636,3.771,-61.634,-18.809
2026-05-23 15:38:11.270,1434230726,342270,2,1.03442,0.1521,0.59912,28.824,-19.443,19.504
2026-05-23 15:38:11.470,1434230926,342470,1,0.69385,0.30127,-0.00293,12.901,-22.244,-14.389
2026-05-23 15:38:11.470,1434230926,342470,2,0.48535,0.1748,0.50171,-35.053,-15.916,-10.794
2026-05-23 15:38:12.670,1434232126,342670,1,1.0752,0.28955,0.06201,13.214,-29.145,-11.458
2026-05-23 15:38:12.670,1434232126,342670,2,1.18457,0.22778,0.14648,-0.84,-39.336,9.786
2026-05-23 15:38:12.870,1434232326,342870,1,1.12061,0.15698,-0.03174,-7.031,-22.16,-6.527
2026-05-23 15:38:12.870,1434232326,342870,2,0.98022,0.09766,0.25146,-32.656,-8.763,-4.198
2026-05-23 15:38:12.070,1434231526,343070,1,1.03027,0.1897,-0.02246,-8.908,-2.756,5.397
2026-05-23 15:38:12.070,1434231526,343070,2,0.96313,0.12866,0.21338,2.382,3.649,6.763
2026-05-23 15:38:12.270,1434231726,343270,1,1.05933,0.13574,-0.04126,14.397,7.542,5.122
2026-05-23 15:38:12.270,1434231726,343270,2,0.96191,0.13379,0.26563,15.939,10.756,-7.031
2026-05-23 15:38:12.504,1434231960,343504,1,1.01367,0.17749,0.04688,11.053,8.824,9.84
2026-05-23 15:38:12.504,1434231960,343504,2,0.1521,0.87378,0.97705,-78.382,80.443,-77.794
2026-05-23 15:38:13.704,1434233160,343704,1,1.0686,0.1377,0.01221,-15.267,-0.618,-3.282
2026-05-23 15:38:13.704,1434233160,343704,2,0.91821,0.31055,0.41138,56.939,-84.939,19.473
2026-05-23 15:38:13.904,1434233360,343904,1,1.06396,0.19385,0.06177,-15.771,-10.84,0.084
2026-05-23 15:38:13.904,1434233360,343904,2,0.91772,0.17139,0.31128,-37.168,-47.802,-30.107
2026-05-23 15:38:13.104,1434232560,344104,1,1.07739,0.09619,0.00684,3.916,-0.298,0.244
2026-05-23 15:38:13.104,1434232560,344104,2,0.97876,0.19946,0.31396,1.687,6.756,1.053
2026-05-23 15:38:13.304,1434232760,344304,1,1.03564,0.12695,0.04907,3.321,8.824,-0.71
2026-05-23 15:38:13.304,1434232760,344304,2,0.96777,0.18652,0.35254,-3.168,4.496,1.809
2026-05-23 15:38:13.504,1434232960,344504,1,1.04639,0.13159,0.04492,-4.84,3.435,-1.817
2026-05-23 15:38:13.504,1434232960,344504,2,0.97192,0.19043,0.3645,-5.916,2.916,0.626
2026-05-23 15:38:14.704,1434234160,344704,1,1.01563,0.1167,0.08447,-3.588,1.252,-3.237
2026-05-23 15:38:14.704,1434234160,344704,2,0.95068,0.17529,0.38135,-2.16,4.977,-0.489
2026-05-23 15:38:14.904,1434234360,344904,1,1.02148,0.15405,0.0896,0.237,3.588,-0.176
2026-05-23 15:38:14.904,1434234360,344904,2,0.97144,0.17676,0.36597,-1.076,2.176,7.87
2026-05-23 15:38:14.115,1434233571,345115,1,1.0354,0.13086,0.1001,5.397,6.282,-1.519
2026-05-23 15:38:14.115,1434233571,345115,2,0.95483,0.17798,0.4021,3.687,1.702,-3.42
2026-05-23 15:38:14.317,1434233773,345317,1,1.01001,0.15259,0.10327,-0.908,3.565,0.55
2026-05-23 15:38:14.317,1434233773,345317,2,0.97388,0.16138,0.38965,7.305,-17.115,11.954
2026-05-23 15:38:14.517,1434233973,345517,1,0.99121,0.14697,0.11719,1.267,0.779,1.885
2026-05-23 15:38:14.517,1434233973,345517,2,0.96777,0.16455,0.37158,3.885,1.527,2.924
2026-05-23 15:38:15.717,1434235173,345717,1,1.09033,0.14551,0.11157,-5.16,5.282,-3.252
2026-05-23 15:38:15.717,1434235173,345717,2,0.96143,0.14258,0.34912,1.221,2.84,8.595
2026-05-23 15:38:15.917,1434235373,345917,1,1.0293,0.12329,0.0874,-3.893,0.656,-1.916
2026-05-23 15:38:15.917,1434235373,345917,2,0.95972,0.16431,0.39282,0.305,2.824,-1.672
2026-05-23 15:38:15.117,1434234573,346117,1,1.00854,0.15259,0.11865,-4.771,2.466,-3.878
2026-05-23 15:38:15.117,1434234573,346117,2,0.96338,0.18359,0.40259,-4.191,3.282,6.336
2026-05-23 15:38:15.317,1434234773,346317,1,1.00757,0.17261,0.12842,4.191,2.893,-12.229
2026-05-23 15:38:15.317,1434234773,346317,2,0.979,0.19385,0.41333,-4.519,5.443,-9.275
2026-05-23 15:38:15.517,1434234973,346517,1,0.99487,0.21338,0.11108,-4.061,-14.137,11.397
2026-05-23 15:38:15.517,1434234973,346517,2,0.9751,0.27148,0.3479,1.389,-2.42,-0.847
2026-05-23 15:38:16.717,1434236173,346717,1,1.0249,0.20166,0.0979,-6.534,0.008,-1.405
2026-05-23 15:38:16.717,1434236173,346717,2,0.94165,0.20703,0.40649,-6.74,-2.206,2.153
2026-05-23 15:38:16.917,1434236373,346917,1,1.0144,0.19116,0.08789,-2.435,-1.641,0.542
2026-05-23 15:38:16.917,1434236373,346917,2,0.94971,0.20215,0.38574,3.74,-6.313,-0.16
2026-05-23 15:38:16.117,1434235573,347117,1,1.03003,0.17065,0.09424,2.786,0.405,3.939
2026-05-23 15:38:16.117,1434235573,347117,2,1.08545,0.48828,0.13208,-7.351,-45.786,-26.221
2026-05-23 15:38:16.317,1434235773,347317,1,1.02881,0.21094,0.08252,4.344,3.756,-3.847
2026-05-23 15:38:16.317,1434235773,347317,2,0.95825,0.21289,0.34692,4.863,4.45,4.008
2026-05-23 15:38:16.517,1434235973,347517,1,0.95776,0.17944,0.07104,-11.137,-5.45,-3.557
2026-05-23 15:38:16.517,1434235973,347517,2,0.94507,0.2605,0.39746,2.412,-4.908,0.023
2026-05-23 15:38:17.717,1434237173,347717,1,1.03174,0.16138,0.08472,-3.626,-8.771,1.542
2026-05-23 15:38:17.717,1434237173,347717,2,0.97998,0.26416,0.39673,-3.351,-5.802,-5.939
2026-05-23 15:38:17.917,1434237373,347917,1,1.03394,0.19067,0.06372,0.641,-0.198,5.832
2026-05-23 15:38:17.917,1434237373,347917,2,0.94678,0.25171,0.44189,19.321,-31.237,7.504
2026-05-23 15:38:17.117,1434236573,348117,1,1.04736,0.16748,0.09302,2.977,-1.802,-1.42
2026-05-23 15:38:17.117,1434236573,348117,2,0.92871,0.23267,0.40991,-5.252,1.565,-2.282
2026-05-23 15:38:17.317,1434236773,348317,1,1.11401,0.16479,0.07544,2.771,-0.481,-3.397
2026-05-23 15:38:17.317,1434236773,348317,2,0.95239,0.24976,0.3689,2.802,0.206,2.542
2026-05-23 15:38:17.517,1434236973,348517,1,1.01025,0.17529,0.09546,-5.061,-2.71,-0.046
2026-05-23 15:38:17.517,1434236973,348517,2,0.94312,0.25757,0.37378,-6.244,-4.672,0.71
2026-05-23 15:38:18.717,1434238173,348717,1,1.03027,0.16357,0.08276,-8.656,-1.305,-4.053
2026-05-23 15:38:18.717,1434238173,348717,2,0.94678,0.23535,0.37109,-2.885,-0.672,2.817
2026-05-23 15:38:18.917,1434238373,348917,1,1.04199,0.16162,0.07788,-6.176,5.374,-2.092
2026-05-23 15:38:18.917,1434238373,348917,2,0.94189,0.22998,0.36084,-1.313,3.611,2.069
2026-05-23 15:38:18.117,1434237573,349117,1,1.01099,0.19165,0.08667,0.244,-1.481,1.947
2026-05-23 15:38:18.117,1434237573,349117,2,0.9458,0.24878,0.37646,-0.588,-0.802,0.252
2026-05-23 15:38:18.317,1434237773,349317,1,1.01367,0.18945,0.08398,-4.214,-2.611,-0.71
2026-05-23 15:38:18.317,1434237773,349317,2,0.94971,0.24072,0.37134,-2.55,-1.0,3.611
2026-05-23 15:38:18.517,1434237973,349517,1,1.04834,0.18896,0.07861,-3.389,1.931,0.26
2026-05-23 15:38:18.517,1434237973,349517,2,0.94629,0.23999,0.37061,-0.664,2.58,-2.023
2026-05-23 15:38:19.717,1434239173,349717,1,1.02344,0.18652,0.08789,-3.153,-0.366,1.748
2026-05-23 15:38:19.717,1434239173,349717,2,0.93921,0.25098,0.36865,0.359,1.344,3.153
2026-05-23 15:38:19.917,1434239373,349917,1,0.93457,0.14624,0.07373,-3.466,-5.214,0.176
2026-05-23 15:38:19.917,1434239373,349917,2,0.94116,0.25415,0.37183,-6.107,-2.427,-1.992
2026-05-23 15:38:19.117,1434238573,350117,1,1.02856,0.18506,0.08008,1.588,0.55,2.947
2026-05-23 15:38:19.117,1434238573,350117,2,0.93188,0.26099,0.38159,2.962,1.802,-2.031
2026-05-23 15:38:19.349,1434238805,350348,1,1.05542,0.18579,0.07642,-1.649,0.756,1.351
2026-05-23 15:38:19.349,1434238805,350348,2,0.94238,0.26245,0.37671,-1.924,-0.321,-0.779
2026-05-23 15:38:19.548,1434239004,350548,1,1.0376,0.17798,0.0564,-6.481,-3.427,-0.168
2026-05-23 15:38:19.548,1434239004,350548,2,0.94116,0.25146,0.3562,-4.145,-1.206,2.863
2026-05-23 15:38:20.748,1434240204,350748,1,1.0437,0.18262,0.05005,-12.405,0.061,-5.321
2026-05-23 15:38:20.748,1434240204,350748,2,0.94312,0.23242,0.37793,-7.038,1.046,5.053
2026-05-23 15:38:20.948,1434240404,350948,1,1.02246,0.1687,0.07568,-7.176,3.557,-6.183
2026-05-23 15:38:20.948,1434240404,350948,2,0.9458,0.22119,0.37402,-4.519,-0.603,2.481
2026-05-23 15:38:20.148,1434239604,351148,1,0.92334,0.15967,0.10596,4.595,-7.42,1.527
2026-05-23 15:38:20.148,1434239604,351148,2,0.93726,0.22339,0.37598,1.42,1.939,0.153
2026-05-23 15:38:20.348,1434239804,351348,1,1.01514,0.18311,0.07739,-3.084,0.779,-1.618
2026-05-23 15:38:20.348,1434239804,351348,2,0.95483,0.25391,0.36377,-3.42,1.618,-0.771
2026-05-23 15:38:20.548,1434240004,351548,1,1.00757,0.18408,0.0813,10.237,3.992,4.191
2026-05-23 15:38:20.548,1434240004,351548,2,0.93823,0.25342,0.37817,4.725,-0.802,-0.458
2026-05-23 15:38:21.748,1434241204,351748,1,0.98828,0.16284,0.09009,7.725,2.382,3.389
2026-05-23 15:38:21.748,1434241204,351748,2,0.9375,0.27148,0.37061,3.45,3.504,-2.802
2026-05-23 15:38:21.948,1434241404,351948,1,1.02368,0.17236,0.07666,-1.763,1.565,-1.55
2026-05-23 15:38:21.948,1434241404,351948,2,0.94702,0.27588,0.36475,-2.168,0.16,0.908
2026-05-23 15:38:21.148,1434240604,352148,1,1.01563,0.19092,0.07349,-2.702,-1.618,-1.557
2026-05-23 15:38:21.148,1434240604,352148,2,0.93774,0.26172,0.36353,-2.198,-1.397,3.382
2026-05-23 15:38:21.348,1434240804,352348,1,1.02271,0.19824,0.06934,-7.924,-2.427,-2.13
2026-05-23 15:38:21.348,1434240804,352348,2,0.93921,0.25586,0.35547,-6.191,-1.733,3.557
2026-05-23 15:38:21.548,1434241004,352548,1,1.02026,0.19775,0.07104,-3.053,-1.473,-1.656
2026-05-23 15:38:21.548,1434241004,352548,2,0.94507,0.23828,0.3667,-1.191,-0.26,1.931
2026-05-23 15:38:22.748,1434242204,352748,1,1.08447,0.19434,0.0957,-3.779,12.366,3.397
2026-05-23 15:38:22.748,1434242204,352748,2,0.99927,0.23218,0.5022,26.435,15.618,21.29
2026-05-23 15:38:22.967,1434242423,352967,1,0.88672,0.1582,0.09521,-10.031,49.412,11.382
2026-05-23 15:38:22.967,1434242423,352967,2,0.75586,0.31958,0.43701,-19.427,23.13,-25.061
2026-05-23 15:38:22.167,1434241623,353167,1,0.93726,0.24487,0.38965,36.13,29.542,4.985
2026-05-23 15:38:22.167,1434241623,353167,2,0.93872,0.20703,0.78467,45.115,11.748,24.321
2026-05-23 15:38:22.367,1434241823,353367,1,1.1023,0.18042,0.37769,1.817,17.618,-3.435
2026-05-23 15:38:22.367,1434241823,353367,2,0.78174,0.12671,0.271,-5.321,-9.092,25.275
2026-05-23 15:38:22.567,1434242023,353567,1,0.98071,0.15918,0.38892,5.573,-13.366,-5.679
2026-05-23 15:38:22.567,1434242023,353567,2,1.02759,0.09766,0.41968,-7.794,-10.313,3.405
2026-05-23 15:38:23.767,1434243223,353767,1,0.97803,0.17749,0.22803,-3.664,-18.267,5.924
2026-05-23 15:38:23.767,1434243223,353767,2,0.99365,0.22437,0.35986,-6.84,-13.221,-3.336
2026-05-23 15:38:23.967,1434243423,353967,1,0.9895,0.15649,0.22241,-12.939,-9.031,-2.878
2026-05-23 15:38:23.967,1434243423,353967,2,0.9397,0.11792,0.33154,-12.313,-9.618,-3.42
2026-05-23 15:38:23.167,1434242623,354167,1,0.948,0.10498,0.24951,6.458,-5.015,-0.748
2026-05-23 15:38:23.167,1434242623,354167,2,0.97607,0.15137,0.36963,0.336,-11.023,-2.489
2026-05-23 15:38:23.367,1434242823,354367,1,0.97168,0.13916,0.20874,-0.733,5.519,0.977
2026-05-23 15:38:23.367,1434242823,354367,2,0.95728,0.18115,0.39673,0.053,5.802,-0.359
2026-05-23 15:38:23.567,1434243023,354567,1,0.95313,0.15063,0.23242,4.817,10.13,-2.58
2026-05-23 15:38:23.567,1434243023,354567,2,0.93237,0.17163,0.39673,2.527,7.771,3.504
2026-05-23 15:38:24.767,1434244223,354767,1,0.94751,0.14648,0.24365,-4.275,2.664,0.397
2026-05-23 15:38:24.767,1434244223,354767,2,0.95361,0.14258,0.40894,-1.87,-1.901,2.069
2026-05-23 15:38:24.967,1434244423,354967,1,0.95532,0.13818,0.2688,0.511,4.809,0.954
2026-05-23 15:38:24.967,1434244423,354967,2,0.92358,0.13281,0.40503,-2.557,-1.595,2.191
2026-05-23 15:38:24.167,1434243623,355167,1,0.95117,0.14575,0.27368,-3.489,1.176,-3.031
2026-05-23 15:38:24.167,1434243623,355167,2,0.96436,0.14624,0.43823,-1.42,0.038,1.565
2026-05-23 15:38:24.367,1434243823,355367,1,0.94458,0.16895,0.27588,-2.985,1.405,-0.389
2026-05-23 15:38:24.367,1434243823,355367,2,0.96436,0.1709,0.4231,-4.809,-2.58,1.305
2026-05-23 15:38:24.567,1434244023,355567,1,0.94556,0.14307,0.28418,1.71,1.595,0.237
2026-05-23 15:38:24.567,1434244023,355567,2,0.95654,0.1543,0.4165,-3.664,-2.832,-0.321
2026-05-23 15:38:25.767,1434245223,355767,1,0.95117,0.12988,0.28467,-3.099,4.573,2.366
2026-05-23 15:38:25.767,1434245223,355767,2,0.95288,0.16504,0.44116,-1.794,2.847,3.672
2026-05-23 15:38:25.967,1434245423,355967,1,0.94604,0.13086,0.30103,-0.885,1.443,2.176
2026-05-23 15:38:25.967,1434245423,355967,2,0.95874,0.1626,0.43872,-7.863,-5.565,0.908
2026-05-23 15:38:25.167,1434244623,356167,1,0.95728,0.11328,0.30151,2.168,2.382,-0.092
2026-05-23 15:38:25.167,1434244623,356167,2,0.96118,0.16895,0.42432,1.344,-1.267,0.038
2026-05-23 15:38:25.367,1434244823,356367,1,0.93677,0.13501,0.30005,-1.977,-0.038,0.275
2026-05-23 15:38:25.367,1434244823,356367,2,0.95898,0.16113,0.43677,6.992,10.611,5.687
2026-05-23 15:38:25.567,1434245023,356567,1,0.9436,0.12476,0.30688,-0.221,1.191,0.145
2026-05-23 15:38:25.567,1434245023,356567,2,0.97437,0.18579,0.41968,-6.695,-2.26,-1.298
2026-05-23 15:38:26.770,1434246226,356769,1,0.95947,0.09204,0.29858,3.053,1.313,-11.092
2026-05-23 15:38:26.770,1434246226,356769,2,0.96021,0.14893,0.46558,-8.221,-15.71,-6.473
2026-05-23 15:38:26.969,1434246425,356969,1,0.94775,0.17236,0.29688,1.046,3.115,-0.733
2026-05-23 15:38:26.969,1434246425,356969,2,0.95874,0.20654,0.45752,0.443,6.809,-3.084
2026-05-23 15:38:26.169,1434245625,357169,1,0.93018,0.17725,0.31934,-1.046,1.847,-1.863
2026-05-23 15:38:26.169,1434245625,357169,2,0.94897,0.19604,0.44824,4.435,3.847,1.855
2026-05-23 15:38:26.369,1434245825,357369,1,0.94263,0.15649,0.29272,-5.198,2.58,-1.702
2026-05-23 15:38:26.369,1434245825,357369,2,0.94287,0.19702,0.43237,-2.939,-7.458,4.893
2026-05-23 15:38:26.569,1434246025,357569,1,0.9353,0.1731,0.3147,1.779,0.87,1.992
2026-05-23 15:38:26.569,1434246025,357569,2,0.97144,0.21191,0.55933,2.969,4.794,1.046
2026-05-23 15:38:27.769,1434247225,357769,1,0.94263,0.15601,0.32202,-1.427,1.695,0.122
2026-05-23 15:38:27.769,1434247225,357769,2,0.9541,0.1853,0.48682,2.534,3.313,0.305
2026-05-23 15:38:27.969,1434247425,357969,1,0.95728,0.17944,0.2937,-2.756,1.55,-1.237
2026-05-23 15:38:27.969,1434247425,357969,2,0.9541,0.19556,0.47144,-14.252,-0.634,3.832
2026-05-23 15:38:27.169,1434246625,358169,1,0.93774,0.17261,0.32031,7.122,7.588,-2.954
2026-05-23 15:38:27.169,1434246625,358169,2,0.98096,0.17334,0.4812,5.511,9.023,-0.863
2026-05-23 15:38:27.369,1434246825,358369,1,0.91162,0.15942,0.3335,-5.649,-2.206,-2.015
2026-05-23 15:38:27.369,1434246825,358369,2,0.95728,0.17212,0.49292,-0.824,6.229,2.748
2026-05-23 15:38:27.569,1434247025,358569,1,0.9231,0.18506,0.31201,-3.076,-0.359,-0.443
2026-05-23 15:38:27.569,1434247025,358569,2,0.9624,0.18042,0.48071,-1.443,3.878,3.504
2026-05-23 15:38:28.769,1434248225,358769,1,0.93066,0.19604,0.30078,-0.557,-2.641,0.191
2026-05-23 15:38:28.769,1434248225,358769,2,0.95898,0.18359,0.47241,-2.42,-6.794,
2026-05-23 15:38:28.969,1434248425,358969,1,0.94824,0.18506,0.30127,-1.763,-0.649,0.382
2026-05-23 15:38:28.969,1434248425,358969,2,0.95874,0.18848,0.46167,-1.542,-0.855,1.115
2026-05-23 15:38:28.169,1434247625,359169,1,0.92944,0.18091,0.29468,-2.336,0.336,0.573
2026-05-23 15:38:28.169,1434247625,359169,2,0.95581,0.1814,0.46094,0.382,4.664,2.672
2026-05-23 15:38:28.369,1434247825,359369,1,0.93628,0.18848,0.30396,-0.893,1.939,-0.305
2026-05-23 15:38:28.369,1434247825,359369,2,0.96191,0.18213,0.47168,-1.015,1.176,0.924
2026-05-23 15:38:28.569,1434248025,359569,1,0.93799,0.17505,0.30396,-2.198,0.328,-0.588
2026-05-23 15:38:28.569,1434248025,359569,2,0.95557,0.18188,0.47974,-1.534,1.069,0.588
2026-05-23 15:38:29.769,1434249225,359769,1,0.92603,0.18628,0.30859,-1.405,1.015,-0.031
2026-05-23 15:38:29.769,1434249225,359769,2,0.95459,0.18433,0.48413,-0.366,2.206,1.427
2026-05-23 15:38:29.969,1434249425,359969,1,0.9314,0.18433,0.30566,-2.412,0.794,0.076
2026-05-23 15:38:29.969,1434249425,359969,2,0.94995,0.18506,0.48169,-1.084,1.321,2.351
2026-05-23 15:38:29.169,1434248625,360169,1,0.93359,0.17383,0.31543,-1.382,1.29,0.221
2026-05-23 15:38:29.169,1434248625,360169,2,0.95386,0.18652,0.49146,0.061,-0.015,1.58
2026-05-23 15:38:29.369,1434248825,360369,1,0.93164,0.18018,0.29907,-1.779,-0.015,0.115
2026-05-23 15:38:29.369,1434248825,360369,2,0.95093,0.18701,0.48975,-1.756,0.267,1.252
2026-05-23 15:38:29.592,1434249048,360592,1,0.93555,0.17847,0.30981,-2.031,-0.756,0.603
2026-05-23 15:38:29.592,1434249048,360592,2,0.95581,0.18701,0.49097,-0.985,1.969,2.008
2026-05-23 15:38:30.792,1434250248,360792,1,0.9353,0.17871,0.31396,-1.679,0.137,0.107
2026-05-23 15:38:30.792,1434250248,360792,2,0.95972,0.18774,0.4873,-1.687,0.924,1.489
2026-05-23 15:38:30.992,1434250448,360992,1,0.97412,0.18799,0.26904,9.374,0.679,0.046
2026-05-23 15:38:30.992,1434250448,360992,2,1.04297,0.19775,0.45801,-4.16,-6.649,-3.748
2026-05-23 15:38:30.192,1434249648,361192,1,1.01611,0.21387,0.3335,-6.046,-24.832,5.542
2026-05-23 15:38:30.192,1434249648,361192,2,1.03467,0.22144,0.38525,22.527,13.435,0.763
2026-05-23 15:38:30.392,1434249848,361392,1,1.22363,0.16602,0.23193,-6.176,-13.137,14.137
2026-05-23 15:38:30.392,1434249848,361392,2,0.80933,0.22485,0.50537,0.809,18.832,16.214
2026-05-23 15:38:31.621,1434251077,361621,1,0.65869,0.10107,0.09912,-17.176,-3.626,1.351
2026-05-23 15:38:31.621,1434251077,361621,2,0.61401,0.13696,0.45679,-27.45,-69.046,13.13
2026-05-23 15:38:31.821,1434251277,361821,1,0.98779,0.09204,0.15527,-0.901,-9.519,-11.71
2026-05-23 15:38:31.821,1434251277,361821,2,0.99194,0.16235,0.31836,-6.847,-19.771,5.0
2026-05-23 15:38:31.021,1434250477,362021,1,1.04956,0.11694,0.10156,-6.603,-11.649,-9.214
2026-05-23 15:38:31.021,1434250477,362021,2,0.99048,0.22778,0.3374,-38.244,8.176,-19.969
2026-05-23 15:38:31.221,1434250677,362221,1,1.03638,0.13989,0.05737,-4.557,-6.679,-3.443
2026-05-23 15:38:31.221,1434250677,362221,2,0.94336,0.1814,0.375,-1.427,-0.863,4.26
2026-05-23 15:38:31.421,1434250877,362421,1,1.04907,0.14526,0.04688,-1.534,-0.534,0.504
2026-05-23 15:38:31.421,1434250877,362421,2,0.95703,0.20068,0.38599,-0.595,2.443,1.298
2026-05-23 15:38:32.621,1434252077,362621,1,1.03125,0.14063,0.04907,1.038,2.595,-0.26
2026-05-23 15:38:32.621,1434252077,362621,2,0.94727,0.20801,0.37183,-3.16,-0.053,1.084
2026-05-23 15:38:32.821,1434252277,362821,1,1.03394,0.15503,0.0481,-5.344,0.466,-3.122
2026-05-23 15:38:32.821,1434252277,362821,2,0.95313,0.21777,0.36768,-2.282,-0.489,2.313
2026-05-23 15:38:32.021,1434251477,363021,1,1.0376,0.14746,0.04688,-2.244,1.0,0.221
2026-05-23 15:38:32.021,1434251477,363021,2,0.94971,0.20483,0.36938,-0.366,0.168,0.29
2026-05-23 15:38:32.221,1434251677,363221,1,1.0293,0.14893,0.05103,-2.061,-0.107,-1.229
2026-05-23 15:38:32.221,1434251677,363221,2,0.95215,0.19678,0.35815,-2.962,1.397,4.695
2026-05-23 15:38:32.421,1434251877,363421,1,1.0376,0.1499,0.05029,-0.824,0.405,3.489
2026-05-23 15:38:32.421,1434251877,363421,2,0.94922,0.20581,0.3645,1.214,3.427,2.893
2026-05-23 15:38:33.621,1434253077,363621,1,1.03149,0.1521,0.05786,-7.221,-1.916,-2.29
2026-05-23 15:38:33.621,1434253077,363621,2,0.95605,0.18652,0.37598,-9.534,1.45,6.153
2026-05-23 15:38:33.821,1434253277,363821,1,1.04004,0.14209,0.04492,-8.252,-1.229,-2.649
2026-05-23 15:38:33.821,1434253277,363821,2,0.96191,0.16333,0.39502,-5.038,2.061,3.076
2026-05-23 15:38:33.021,1434252477,364021,1,1.04395,0.13867,0.05908,-1.145,2.74,-1.931
2026-05-23 15:38:33.021,1434252477,364021,2,0.95068,0.16235,0.38721,-0.763,1.847,0.328
2026-05-23 15:38:33.221,1434252677,364221,1,1.02979,0.15796,0.04956,0.534,-0.427,-0.038
2026-05-23 15:38:33.221,1434252677,364221,2,0.95898,0.17798,0.38501,1.634,-0.779,-1.29
2026-05-23 15:38:33.421,1434252877,364421,1,1.03931,0.15942,0.03735,3.328,2.626,0.481
2026-05-23 15:38:33.421,1434252877,364421,2,0.96387,0.18823,0.37085,-0.237,0.954,1.824
2026-05-23 15:38:34.621,1434254077,364621,1,1.03564,0.15063,0.04736,-3.038,-0.099,-0.389
2026-05-23 15:38:34.621,1434254077,364621,2,0.9519,0.17896,0.3833,-2.992,0.198,2.565
2026-05-23 15:38:34.821,1434254277,364821,1,1.04321,0.14746,0.04883,-2.076,0.588,-0.985
2026-05-23 15:38:34.821,1434254277,364821,2,0.95801,0.17383,0.37085,-1.885,0.901,1.099
2026-05-23 15:38:34.021,1434253477,365021,1,1.03931,0.15942,0.05688,0.26,0.962,1.023
2026-05-23 15:38:34.021,1434253477,365021,2,0.95557,0.1792,0.37476,1.435,0.046,-0.557
2026-05-23 15:38:34.221,1434253677,365221,1,1.03418,0.14941,0.06079,3.359,0.458,3.489
2026-05-23 15:38:34.221,1434253677,365221,2,0.96533,0.19604,0.36548,1.458,-0.145,-0.863
2026-05-23 15:38:34.421,1434253877,365421,1,1.03687,0.14331,0.05054,-0.565,0.481,1.344
2026-05-23 15:38:34.421,1434253877,365421,2,0.95166,0.19287,0.36865,0.214,0.931,1.405
2026-05-23 15:38:35.621,1434255077,365621,1,1.03687,0.13379,0.0603,-2.847,1.015,-1.061
2026-05-23 15:38:35.621,1434255077,365621,2,0.95337,0.18848,0.37036,-4.145,0.481,1.603
2026-05-23 15:38:35.821,1434255277,365821,1,1.03857,0.14697,0.05127,-1.252,0.611,-0.099
2026-05-23 15:38:35.821,1434255277,365821,2,0.95874,0.18945,0.3689,-0.962,1.061,0.58
2026-05-23 15:38:35.021,1434254477,366021,1,1.03613,0.1377,0.05566,-2.489,0.924,0.595
2026-05-23 15:38:35.021,1434254477,366021,2,0.9585,0.18555,0.37451,-0.534,1.595,1.954
2026-05-23 15:38:35.224,1434254680,366224,1,1.03809,0.14453,0.06592,-0.359,5.695,-2.122
2026-05-23 15:38:35.224,1434254680,366224,2,0.96558,0.19458,0.36987,-0.878,1.893,3.969
2026-05-23 15:38:35.424,1434254880,366424,1,1.02612,0.13184,0.08276,-9.489,7.939,-5.069
2026-05-23 15:38:35.424,1434254880,366424,2,0.95654,0.17969,0.37305,-6.878,-0.405,4.443
2026-05-23 15:38:36.624,1434256080,366624,1,1.0293,0.16602,0.08643,0.71,3.702,-1.115
2026-05-23 15:38:36.624,1434256080,366624,2,0.95166,0.16895,0.37622,-5.954,0.893,-4.374
2026-05-23 15:38:36.824,1434256280,366824,1,1.03198,0.15796,0.08691,-9.649,4.107,2.969
2026-05-23 15:38:36.824,1434256280,366824,2,0.94458,0.19653,0.3833,-6.214,7.015,5.618
2026-05-23 15:38:36.024,1434255480,367024,1,1.03296,0.18188,0.10767,-10.893,5.908,0.992
2026-05-23 15:38:36.024,1434255480,367024,2,0.948,0.17578,0.37915,6.794,-1.908,7.008
2026-05-23 15:38:36.224,1434255680,367224,1,1.02344,0.16284,0.07813,5.412,0.267,1.328
2026-05-23 15:38:36.224,1434255680,367224,2,0.94995,0.16968,0.37256,4.664,-2.359,3.466
2026-05-23 15:38:36.424,1434255880,367424,1,1.02612,0.14624,0.06641,-5.176,2.473,-0.107
2026-05-23 15:38:36.424,1434255880,367424,2,0.96021,0.16479,0.37476,0.053,0.664,3.679
2026-05-23 15:38:37.624,1434257080,367624,1,1.0188,0.14429,0.08228,0.817,-1.382,0.802
2026-05-23 15:38:37.624,1434257080,367624,2,0.96411,0.16602,0.36548,-2.359,2.58,0.45
2026-05-23 15:38:37.824,1434257280,367824,1,1.02686,0.1543,0.09131,-3.618,0.237,-1.344
2026-05-23 15:38:37.824,1434257280,367824,2,0.95801,0.1543,0.36621,-3.115,0.954,3.992
2026-05-23 15:38:37.024,1434256480,368024,1,1.02417,0.15869,0.08911,-3.015,0.588,-0.221
2026-05-23 15:38:37.024,1434256480,368024,2,0.9668,0.14917,0.35767,-0.87,2.45,0.74
2026-05-23 15:38:37.224,1434256680,368224,1,1.02368,0.16187,0.09839,0.237,0.87,0.817
2026-05-23 15:38:37.224,1434256680,368224,2,0.96118,0.1438,0.3689,1.122,0.305,2.053
2026-05-23 15:38:37.424,1434256880,368424,1,1.02368,0.15186,0.07813,-4.038,1.496,-0.695
2026-05-23 15:38:37.424,1434256880,368424,2,0.97339,0.14502,0.35376,-2.962,-0.053,2.412
2026-05-23 15:38:38.624,1434258080,368624,1,1.02148,0.15112,0.09521,-9.718,1.916,2.489
2026-05-23 15:38:38.624,1434258080,368624,2,0.96216,0.13135,0.3728,-2.779,3.511,7.153
2026-05-23 15:38:38.824,1434258280,368824,1,1.02466,0.11426,0.11206,-1.672,3.977,-0.221
2026-05-23 15:38:38.824,1434258280,368824,2,0.96582,0.13159,0.37305,2.969,1.519,1.237
2026-05-23 15:38:38.024,1434257480,369024,1,1.0166,0.12061,0.10522,-7.664,-1.221,2.229
2026-05-23 15:38:38.024,1434257480,369024,2,0.97534,0.1272,0.37012,0.763,1.176,0.092
2026-05-23 15:38:38.224,1434257680,369224,1,1.01904,0.09912,0.11792,3.664,-4.389,-0.573
2026-05-23 15:38:38.224,1434257680,369224,2,0.95605,0.12817,0.40137,5.023,3.435,2.008
2026-05-23 15:38:38.424,1434257880,369424,1,1.02197,0.10645,0.10645,-0.74,3.489,-0.405
2026-05-23 15:38:38.424,1434257880,369424,2,0.96436,0.11523,0.38013,-2.87,0.908,2.359
2026-05-23 15:38:39.624,1434259080,369624,1,1.03101,0.10767,0.07886,0.527,2.267,-1.908
2026-05-23 15:38:39.624,1434259080,369624,2,0.97119,0.15015,0.37354,-2.519,-0.115,1.969
2026-05-23 15:38:39.824,1434259280,369824,1,1.0144,0.15112,0.12109,-5.229,-1.137,2.489
2026-05-23 15:38:39.824,1434259280,369824,2,0.96997,0.13452,0.36377,-2.267,2.328,3.321
2026-05-23 15:38:42.605,1434262061,372605,1,0.91553,0.15234,0.35059,5.328,3.969,-1.573
2026-05-23 15:38:42.605,1434262061,372605,2,0.91382,0.19189,0.32544,-27.817,-7.756,-5.863
2026-05-23 15:38:42.805,1434262261,372805,1,1.00244,0.12085,0.17993,-2.878,9.489,0.076
2026-05-23 15:38:42.805,1434262261,372805,2,0.96021,0.24023,0.33667,5.053,8.733,4.046
2026-05-23 15:38:42.005,1434261461,373005,1,0.98389,0.11719,0.22314,-5.191,4.412,-0.901
2026-05-23 15:38:42.005,1434261461,373005,2,0.97827,0.21533,0.38501,-9.962,14.084,-1.328
2026-05-23 15:38:42.205,1434261661,373205,1,0.96729,0.11523,0.25513,-0.794,9.092,-6.038
2026-05-23 15:38:42.205,1434261661,373205,2,0.94385,0.18457,0.40063,-9.176,5.725,2.573
2026-05-23 15:38:42.405,1434261861,373405,1,0.93188,0.104,0.30347,-7.366,0.031,-4.779
2026-05-23 15:38:42.405,1434261861,373405,2,0.96191,0.1875,0.43237,11.916,1.992,1.992
2026-05-23 15:38:43.605,1434263061,373605,1,0.96997,0.15527,0.26587,2.817,4.389,3.87
2026-05-23 15:38:43.605,1434263061,373605,2,0.96265,0.18604,0.36108,1.534,8.435,1.145
2026-05-23 15:38:43.805,1434263261,373805,1,0.97217,0.12158,0.27441,-5.573,2.588,0.374
2026-05-23 15:38:43.805,1434263261,373805,2,0.9729,0.16528,0.3811,0.779,11.687,1.45
2026-05-23 15:38:43.005,1434262461,374005,1,0.95361,0.13086,0.28149,5.595,9.046,5.115
2026-05-23 15:38:43.005,1434262461,374005,2,0.96631,0.18555,0.40405,6.656,6.992,2.74
2026-05-23 15:38:43.205,1434262661,374205,1,0.93237,0.09155,0.32202,-6.756,2.229,1.466
2026-05-23 15:38:43.205,1434262661,374205,2,0.96289,0.1543,0.41821,2.031,-2.206,-0.573
2026-05-23 15:38:43.405,1434262861,374405,1,0.93799,0.15186,0.31494,-0.786,0.176,-1.969
2026-05-23 15:38:43.405,1434262861,374405,2,0.95801,0.17896,0.42236,-8.489,-5.252,-0.13
2026-05-23 15:38:44.605,1434264061,374605,1,0.94604,0.11694,0.30322,-2.198,1.481,-0.031
2026-05-23 15:38:44.605,1434264061,374605,2,0.9541,0.17358,0.40308,5.214,3.733,-0.252
2026-05-23 15:38:44.805,1434264261,374805,1,0.9563,0.12842,0.29004,1.321,0.687,3.405
2026-05-23 15:38:44.805,1434264261,374805,2,0.9668,0.18823,0.39282,2.389,1.542,-0.282
2026-05-23 15:38:44.005,1434263461,375005,1,0.9502,0.12744,0.30103,-0.985,-0.099,-0.427
2026-05-23 15:38:44.005,1434263461,375005,2,0.96118,0.18213,0.40454,-3.336,1.038,3.695
2026-05-23 15:38:44.205,1434263661,375205,1,0.94263,0.10596,0.30664,2.947,5.435,-5.008
2026-05-23 15:38:44.205,1434263661,375205,2,0.9707,0.17017,0.41162,0.557,7.435,-2.336
2026-05-23 15:38:44.405,1434263861,375405,1,0.93018,0.1228,0.31982,-4.595,2.916,1.84
2026-05-23 15:38:44.405,1434263861,375405,2,0.95898,0.177,0.42456,2.321,3.74,-2.069
2026-05-23 15:38:45.605,1434265061,375605,1,0.91309,0.14258,0.33813,-0.977,-2.023,-0.42
2026-05-23 15:38:45.605,1434265061,375605,2,0.9563,0.19385,0.41333,1.122,2.458,0.809
2026-05-23 15:38:45.805,1434265261,375805,1,0.9436,0.12183,0.32251,1.435,0.321,0.687
2026-05-23 15:38:45.805,1434265261,375805,2,0.95581,0.19702,0.41699,3.229,1.092,2.321
2026-05-23 15:38:45.005,1434264461,376005,1,0.93896,0.13989,0.31274,-1.832,-1.298,-1.779
2026-05-23 15:38:45.005,1434264461,376005,2,0.95508,0.19604,0.43115,-2.435,1.038,0.389
2026-05-23 15:38:45.205,1434264661,376205,1,0.92529,0.11255,0.30933,-1.328,2.359,-2.641
2026-05-23 15:38:45.205,1434264661,376205,2,0.96777,0.17944,0.42188,3.527,6.924,0.382
2026-05-23 15:38:45.405,1434264861,376405,1,0.92798,0.14868,0.32324,-1.84,1.031,0.344
2026-05-23 15:38:45.405,1434264861,376405,2,0.95947,0.19971,0.4375,-2.298,1.634,2.649
2026-05-23 15:38:46.605,1434266061,376605,1,0.92944,0.14868,0.33423,-0.618,0.679,0.137
2026-05-23 15:38:46.605,1434266061,376605,2,0.95752,0.19116,0.43237,-0.084,0.542,2.489
2026-05-23 15:38:46.805,1434266261,376805,1,0.92358,0.1377,0.3252,-2.084,-0.069,1.534
2026-05-23 15:38:46.805,1434266261,376805,2,0.96021,0.18164,0.43359,-2.794,-1.244,1.443
2026-05-23 15:38:46.005,1434265461,377005,1,0.92236,0.18286,0.34692,-9.55,2.015,-1.763
2026-05-23 15:38:46.005,1434265461,377005,2,0.96069,0.17236,0.42236,-12.092,-0.992,3.786
2026-05-23 15:38:46.205,1434265661,377205,1,0.91504,0.12207,0.3457,-7.557,-5.756,1.321
2026-05-23 15:38:46.205,1434265661,377205,2,0.96362,0.16357,0.44287,-3.542,-2.985,0.45
2026-05-23 15:38:46.405,1434265861,377405,1,0.93774,0.12744,0.32031,3.634,-1.527,5.0
2026-05-23 15:38:46.405,1434265861,377405,2,0.98511,0.17285,0.4314,2.458,5.282,-4.26
2026-05-23 15:38:47.605,1434267061,377605,1,0.92603,0.13892,0.32959,-1.931,2.626,-4.168
2026-05-23 15:38:47.605,1434267061,377605,2,0.94702,0.20044,0.44189,-5.229,3.031,0.42
2026-05-23 15:38:47.805,1434267261,377805,1,0.9209,0.11011,0.3418,-5.824,3.382,3.71
2026-05-23 15:38:47.805,1434267261,377805,2,0.96069,0.20142,0.46558,3.702,4.107,1.763
2026-05-23 15:38:47.005,1434266461,378005,1,0.90918,0.13037,0.36108,-0.519,4.626,-5.176
2026-05-23 15:38:47.005,1434266461,378005,2,0.9563,0.18018,0.46338,1.458,3.809,1.427
2026-05-23 15:38:47.205,1434266661,378205,1,0.9126,0.1167,0.35962,-5.29,-1.183,7.435
2026-05-23 15:38:47.205,1434266661,378205,2,0.94556,0.21606,0.47339,3.504,1.542,1.885
2026-05-23 15:38:47.405,1434266861,378405,1,0.91626,0.11182,0.36353,-0.198,1.809,0.16
2026-05-23 15:38:47.405,1434266861,378405,2,0.95874,0.1897,0.47583,1.595,2.351,-0.26
2026-05-23 15:38:48.605,1434268061,378605,1,0.91455,0.09937,0.36646,0.115,0.847,0.771
2026-05-23 15:38:48.605,1434268061,378605,2,0.95044,0.21338,0.4751,-0.664,1.397,0.069
2026-05-23 15:38:48.805,1434268261,378805,1,0.91919,0.09839,0.35718,-2.931,-1.115,0.55
2026-05-23 15:38:48.805,1434268261,378805,2,0.95825,0.20386,0.47412,-0.565,1.672,0.931
2026-05-23 15:38:48.005,1434267461,379005,1,0.91504,0.10596,0.36133,-1.725,-0.137,0.076
2026-05-23 15:38:48.005,1434267461,379005,2,0.95386,0.20776,0.46655,-1.718,-1.176,1.29
2026-05-23 15:38:48.205,1434267661,379205,1,0.91846,0.09766,0.35352,-1.076,0.13,0.466
2026-05-23 15:38:48.205,1434267661,379205,2,0.9541,0.20508,0.47607,0.29,2.473,1.458
2026-05-23 15:38:48.405,1434267861,379405,1,0.91821,0.09424,0.36646,-1.947,0.695,0.435
2026-05-23 15:38:48.405,1434267861,379405,2,0.95117,0.20093,0.47314,-1.344,0.977,1.267
2026-05-23 15:38:49.633,1434269089,379633,1,0.90991,0.09277,0.35742,-1.824,0.344,-0.198
2026-05-23 15:38:49.633,1434269089,379633,2,0.95044,0.21094,0.47803,-0.832,1.748,1.55
2026-05-23 15:38:49.833,1434269289,379833,1,0.91479,0.09644,0.35645,-2.176,0.26,-0.084
2026-05-23 15:38:49.833,1434269289,379833,2,0.95361,0.20654,0.47632,-0.992,0.656,1.267
2026-05-23 15:38:49.033,1434268489,380033,1,0.92334,0.1001,0.35132,-2.206,0.031,-0.351
2026-05-23 15:38:49.033,1434268489,380033,2,0.95752,0.20361,0.48071,-0.832,1.137,1.481
2026-05-23 15:38:49.233,1434268689,380233,1,0.91455,0.09204,0.35669,-3.679,-1.038,-0.137
2026-05-23 15:38:49.233,1434268689,380233,2,0.95435,0.20215,0.47437,-0.489,1.275,0.939
2026-05-23 15:38:49.433,1434268889,380433,1,0.91895,0.08765,0.35034,-2.58,-0.069,0.13
2026-05-23 15:38:49.433,1434268889,380433,2,0.95215,0.20801,0.47559,-1.176,2.176,1.176
2026-05-23 15:38:50.633,1434270089,380633,1,0.91968,0.08936,0.35376,-2.924,-0.237,0.038
2026-05-23 15:38:50.633,1434270089,380633,2,0.94775,0.2063,0.48193,-1.031,0.733,1.458
2026-05-23 15:38:50.833,1434270289,380833,1,0.91675,0.08325,0.36963,-1.351,1.534,0.916
2026-05-23 15:38:50.833,1434270289,380833,2,0.94434,0.20142,0.48975,0.588,0.542,0.756
2026-05-23 15:38:50.033,1434269489,381033,1,0.91797,0.09082,0.3645,-1.916,0.496,1.0
2026-05-23 15:38:50.033,1434269489,381033,2,0.95117,0.20898,0.47388,-0.145,1.397,1.595
2026-05-23 15:38:50.233,1434269689,381233,1,0.91553,0.08423,0.35767,-1.122,0.107,0.786
2026-05-23 15:38:50.233,1434269689,381233,2,0.94873,0.21558,0.48291,-1.176,0.107,1.794
2026-05-23 15:38:53.378,1434272834,384378,1,1.02271,0.14746,0.12134,-5.779,-1.0,2.145
2026-05-23 15:38:53.378,1434272834,384378,2,0.93506,0.18604,0.38989,-8.863,-7.076,2.229
2026-05-23 15:38:53.578,1434273034,384578,1,1.0105,0.11768,0.14575,-4.542,3.489,-0.084
2026-05-23 15:38:53.578,1434273034,384578,2,0.96313,0.16553,0.41406,0.595,6.244,4.679
2026-05-23 15:38:54.778,1434274234,384778,1,1.01001,0.08936,0.15039,-7.718,-1.107,-0.527
2026-05-23 15:38:54.778,1434274234,384778,2,0.96948,0.16211,0.4209,-9.519,-1.908,9.107
2026-05-23 15:38:54.978,1434274434,384978,1,1.03345,0.08179,0.12329,-1.328,1.603,1.901
2026-05-23 15:38:54.978,1434274434,384978,2,0.94946,0.14038,0.41431,-1.214,1.336,0.802
2026-05-23 15:38:54.178,1434273634,385178,1,1.01245,0.10181,0.14844,8.74,2.458,-0.573
2026-05-23 15:38:54.178,1434273634,385178,2,0.97363,0.16821,0.39063,8.16,-0.031,5.786
2026-05-23 15:38:54.378,1434273834,385378,1,1.02075,0.07642,0.15137,-1.588,-3.45,0.84
2026-05-23 15:38:54.378,1434273834,385378,2,0.9624,0.13135,0.38354,0.107,0.634,-3.588
2026-05-23 15:38:54.578,1434274034,385578,1,1.03638,0.08203,0.11841,-9.237,-6.542,5.939
2026-05-23 15:38:54.578,1434274034,385578,2,0.94873,0.16309,0.38574,-0.466,5.321,0.435
2026-05-23 15:38:55.778,1434275234,385778,1,1.03052,0.06592,0.12036,-7.916,-11.893,4.252
2026-05-23 15:38:55.778,1434275234,385778,2,0.9292,0.19531,0.38013,-1.313,2.076,0.267
2026-05-23 15:38:55.978,1434275434,385978,1,1.02734,0.10229,0.10303,0.832,1.893,-4.366
2026-05-23 15:38:55.978,1434275434,385978,2,0.93896,0.12378,0.40063,-1.214,-1.427,7.939
2026-05-23 15:38:55.178,1434274634,386178,1,1.04321,0.04639,0.09619,-6.214,3.008,-4.656
2026-05-23 15:38:55.178,1434274634,386178,2,0.95605,0.08472,0.38574,4.198,-0.382,-2.084
2026-05-23 15:38:55.378,1434274834,386378,1,1.04004,0.10864,0.10376,-2.924,5.298,2.321
2026-05-23 15:38:55.378,1434274834,386378,2,0.96582,0.1355,0.37207,-3.573,3.672,-3.366
2026-05-23 15:38:55.578,1434275034,386578,1,1.02222,0.10864,0.10962,-2.206,3.153,4.313
2026-05-23 15:38:55.578,1434275034,386578,2,0.95483,0.12207,0.38794,-3.168,1.275,3.061
2026-05-23 15:38:56.778,1434276234,386778,1,1.03491,0.08887,0.11133,-0.817,1.427,0.924
2026-05-23 15:38:56.778,1434276234,386778,2,0.9624,0.1626,0.3916,-0.588,4.145,0.008
2026-05-23 15:38:56.978,1434276434,386978,1,1.03223,0.08569,0.13867,2.344,4.618,-0.664
2026-05-23 15:38:56.978,1434276434,386978,2,0.94995,0.14526,0.38281,-2.939,1.405,3.947
2026-05-23 15:38:56.220,1434275676,387220,1,1.03003,0.07837,0.12524,-5.527,-0.534,-1.802
2026-05-23 15:38:56.220,1434275676,387220,2,0.96436,0.12109,0.39624,-1.58,0.275,-3.962
2026-05-23 15:38:56.420,1434275876,387420,1,1.02881,0.11108,0.11182,-3.466,1.099,-2.725
2026-05-23 15:38:56.420,1434275876,387420,2,0.95264,0.13501,0.39233,0.031,1.634,3.092
2026-05-23 15:38:57.620,1434277076,387620,1,1.01709,0.09912,0.1521,-3.267,6.71,2.565
2026-05-23 15:38:57.620,1434277076,387620,2,0.96631,0.11768,0.39063,1.122,0.443,-0.076
2026-05-23 15:38:57.820,1434277276,387820,1,1.00928,0.104,0.14819,0.672,1.183,4.092
2026-05-23 15:38:57.820,1434277276,387820,2,0.96484,0.15088,0.37622,-4.008,1.015,-1.29
2026-05-23 15:38:57.020,1434276476,388020,1,1.01514,0.11646,0.12305,-3.466,-4.13,-4.176
2026-05-23 15:38:57.020,1434276476,388020,2,0.96704,0.14746,0.37744,-5.504,-2.328,3.893
2026-05-23 15:38:57.220,1434276676,388220,1,1.01904,0.07544,0.14722,-1.313,-1.595,-0.336
2026-05-23 15:38:57.220,1434276676,388220,2,0.95728,0.13232,0.375,-0.382,1.702,-0.107
2026-05-23 15:38:57.420,1434276876,388420,1,1.03027,0.07886,0.11279,1.282,-3.344,-0.084
2026-05-23 15:38:57.420,1434276876,388420,2,0.94727,0.14844,0.3877,4.618,1.321,-1.13
2026-05-23 15:38:58.620,1434278076,388620,1,1.03784,0.12378,0.09668,-5.763,-1.183,-4.794
2026-05-23 15:38:58.620,1434278076,388620,2,0.96899,0.13403,0.38867,-4.298,-0.29,-1.13
2026-05-23 15:38:58.820,1434278276,388820,1,1.00708,0.14893,0.11255,3.55,2.489,-3.237
2026-05-23 15:38:58.820,1434278276,388820,2,0.96045,0.16162,0.36987,-4.107,0.55,2.046
2026-05-23 15:38:58.020,1434277476,389020,1,1.02686,0.12085,0.10498,-1.382,-1.573,0.366
2026-05-23 15:38:58.020,1434277476,389020,2,0.95923,0.1582,0.39307,1.237,4.718,-2.557
2026-05-23 15:38:58.220,1434277676,389220,1,1.02368,0.13525,0.10864,3.412,9.908,-0.099
2026-05-23 15:38:58.220,1434277676,389220,2,0.95679,0.1582,0.39014,1.947,2.115,-1.237
2026-05-23 15:38:58.420,1434277876,389420,1,1.03418,0.11816,0.09375,-6.557,-4.26,-1.542
2026-05-23 15:38:58.420,1434277876,389420,2,0.96191,0.16675,0.37354,-2.191,0.74,-1.511
2026-05-23 15:38:59.620,1434279076,389620,1,1.02563,0.1499,0.1123,1.153,3.466,-0.908
2026-05-23 15:38:59.620,1434279076,389620,2,0.95288,0.17871,0.37134,-0.565,0.573,1.45
2026-05-23 15:38:59.820,1434279276,389820,1,1.06128,0.15112,0.07861,-7.618,4.061,-1.878
2026-05-23 15:38:59.820,1434279276,389820,2,0.91528,0.15015,0.52734,6.977,-0.947,7.725
2026-05-23 15:38:59.020,1434278476,390020,1,0.83472,0.12988,0.10962,-16.542,38.397,4.275
2026-05-23 15:38:59.020,1434278476,390020,2,0.85669,0.24243,0.73901,-11.84,19.74,-42.672
2026-05-23 15:38:59.220,1434278676,390220,1,1.04321,0.12988,0.31714,-2.847,1.069,-5.427
2026-05-23 15:38:59.220,1434278676,390220,2,0.9668,0.24121,0.63281,13.779,-29.023,12.038
2026-05-23 15:38:59.420,1434278876,390420,1,1.05054,0.05688,0.47681,0.282,42.634,5.824
2026-05-23 15:38:59.420,1434278876,390420,2,0.87622,0.19824,0.26367,-36.649,-17.679,-12.038
2026-05-23 15:39:00.620,1434280076,390620,1,1.021,0.15454,0.34766,-8.687,-11.183,-8.756
2026-05-23 15:39:00.620,1434280076,390620,2,1.01294,0.23535,0.37939,7.397,-17.595,15.397
2026-05-23 15:39:00.820,1434280276,390820,1,1.01294,0.15332,0.21948,3.221,-11.679,-0.511
2026-05-23 15:39:00.820,1434280276,390820,2,0.96704,0.25317,0.38794,6.695,-15.611,0.466
2026-05-23 15:39:00.020,1434279476,391020,1,0.93774,0.16235,0.3147,-6.206,-6.076,3.252
2026-05-23 15:39:00.020,1434279476,391020,2,0.91895,0.23901,0.38208,-0.115,27.275,5.71
2026-05-23 15:39:00.220,1434279676,391220,1,0.95654,0.11792,0.33789,-7.611,9.771,0.015
2026-05-23 15:39:00.220,1434279676,391220,2,0.96411,0.18481,0.39331,8.374,4.855,12.344
2026-05-23 15:39:00.420,1434279876,391420,1,0.95288,0.13086,0.32983,3.992,7.901,-2.099
2026-05-23 15:39:00.420,1434279876,391420,2,0.95337,0.20142,0.40796,-0.13,-2.0,2.122
2026-05-23 15:39:01.620,1434281076,391620,1,0.92358,0.1394,0.34644,3.725,2.641,2.977
2026-05-23 15:39:01.620,1434281076,391620,2,0.95752,0.21313,0.43994,4.313,3.435,1.473
2026-05-23 15:39:01.820,1434281276,391820,1,0.91821,0.15112,0.32764,1.794,0.45,4.702
2026-05-23 15:39:01.820,1434281276,391820,2,0.95337,0.22485,0.42334,0.725,0.115,3.076
2026-05-23 15:39:01.020,1434280476,392020,1,0.92944,0.10327,0.32935,-2.725,-0.16,-0.603
2026-05-23 15:39:01.020,1434280476,392020,2,0.96069,0.19946,0.41626,2.504,4.542,2.885
2026-05-23 15:39:01.220,1434280676,392220,1,0.91553,0.12915,0.33374,-2.611,-0.878,1.237
2026-05-23 15:39:01.220,1434280676,392220,2,0.94336,0.20142,0.4314,-4.427,-1.832,1.87
2026-05-23 15:39:01.420,1434280876,392420,1,0.92822,0.11597,0.33179,-5.542,-1.023,1.038
2026-05-23 15:39:01.420,1434280876,392420,2,0.96143,0.19409,0.42969,-1.473,-1.321,1.695
2026-05-23 15:39:02.620,1434282076,392620,1,0.9248,0.1167,0.36597,-4.985,0.099,-1.878
2026-05-23 15:39:02.620,1434282076,392620,2,0.95508,0.19702,0.42969,-1.786,-0.901,2.26
2026-05-23 15:39:02.854,1434282310,392854,1,0.94019,0.09741,0.31396,0.962,3.679,-0.069
2026-05-23 15:39:02.854,1434282310,392854,2,0.95898,0.17651,0.42041,3.802,3.763,0.924
2026-05-23 15:39:02.054,1434281510,393054,1,0.92969,0.12476,0.35229,-4.504,0.466,-2.038
2026-05-23 15:39:02.054,1434281510,393054,2,0.95508,0.16943,0.40356,-0.679,1.397,-2.458
2026-05-23 15:39:02.254,1434281710,393254,1,0.93091,0.10107,0.34058,-5.397,-9.748,0.893
2026-05-23 15:39:02.254,1434281710,393254,2,0.94873,0.2085,0.42114,-4.351,-1.573,-2.702
2026-05-23 15:39:02.454,1434281910,393454,1,0.93921,0.11182,0.32568,0.282,3.16,0.58
2026-05-23 15:39:02.454,1434281910,393454,2,0.9668,0.19653,0.41992,-4.496,-1.336,-0.664
2026-05-23 15:39:03.654,1434283110,393654,1,0.93604,0.1272,0.32617,-1.214,3.87,1.168
2026-05-23 15:39:03.654,1434283110,393654,2,0.96973,0.19629,0.41357,1.031,1.435,-0.588
2026-05-23 15:39:03.854,1434283310,393854,1,0.92065,0.12695,0.33496,-0.672,-6.771,0.55
2026-05-23 15:39:03.854,1434283310,393854,2,0.93823,0.17554,0.45776,0.641,-3.786,-0.534
2026-05-23 15:39:03.054,1434282510,394054,1,0.95044,0.15747,0.31128,-1.71,3.863,0.389
2026-05-23 15:39:03.054,1434282510,394054,2,0.9585,0.19336,0.40771,-5.824,5.427,-0.542
2026-05-23 15:39:03.254,1434282710,394254,1,0.93042,0.10474,0.35547,-4.954,-0.466,-5.397
2026-05-23 15:39:03.254,1434282710,394254,2,0.97437,0.16357,0.41113,-1.519,8.863,-2.634
2026-05-23 15:39:03.454,1434282910,394454,1,0.92578,0.1167,0.33716,-4.794,-9.229,3.244
2026-05-23 15:39:03.454,1434282910,394454,2,0.94263,0.21191,0.43701,0.748,5.267,0.565
2026-05-23 15:39:04.654,1434284110,394654,1,0.89795,0.10693,0.34668,-1.214,5.611,-5.069
2026-05-23 15:39:04.654,1434284110,394654,2,0.95142,0.20044,0.4021,2.527,4.405,0.427
2026-05-23 15:39:04.854,1434284310,394854,1,0.95508,0.0957,0.3186,-1.298,2.489,0.13
2026-05-23 15:39:04.854,1434284310,394854,2,0.9397,0.22925,0.39868,3.092,1.183,3.489
2026-05-23 15:39:04.102,1434283558,395102,1,0.93335,0.10986,0.33179,-4.656,-6.313,-1.084
2026-05-23 15:39:04.102,1434283558,395102,2,0.93188,0.22266,0.42407,-5.733,-2.695,-0.397
2026-05-23 15:39:04.302,1434283758,395302,1,0.94434,0.14624,0.31812,4.481,-0.443,0.656
2026-05-23 15:39:04.302,1434283758,395302,2,0.97437,0.2168,0.40479,1.985,2.74,-1.435
2026-05-23 15:39:04.502,1434283958,395502,1,0.92139,0.13306,0.32813,-9.855,-3.092,1.58
2026-05-23 15:39:04.502,1434283958,395502,2,0.979,0.17773,0.36304,-0.733,8.023,-6.084
2026-05-23 15:39:05.702,1434285158,395702,1,0.87915,0.08887,0.32983,0.405,-14.55,-1.29
2026-05-23 15:39:05.702,1434285158,395702,2,0.96631,0.25903,0.37549,6.504,4.275,-0.649
2026-05-23 15:39:05.902,1434285358,395902,1,0.93018,0.15039,0.27783,3.092,7.122,2.298
2026-05-23 15:39:05.902,1434285358,395902,2,0.93945,0.23584,0.40259,8.649,5.176,6.061
2026-05-23 15:39:05.102,1434284558,396102,1,0.93726,0.13647,0.34277,-9.511,6.939,-7.031
2026-05-23 15:39:05.102,1434284558,396102,2,0.96021,0.19287,0.38867,-6.221,12.137,3.382
2026-05-23 15:39:05.302,1434284758,396302,1,0.92749,0.14502,0.31079,-1.931,-1.466,6.458
2026-05-23 15:39:05.302,1434284758,396302,2,0.93896,0.24585,0.41211,-11.412,-2.802,1.13
2026-05-23 15:39:05.502,1434284958,396502,1,0.99463,0.13135,0.24854,6.664,4.649,3.389
2026-05-23 15:39:05.502,1434284958,396502,2,0.92749,0.24146,0.44141,-12.0,-6.382,0.695
2026-05-23 15:39:06.702,1434286158,396702,1,0.93677,0.12476,0.32275,1.076,0.481,2.115
2026-05-23 15:39:06.702,1434286158,396702,2,0.96533,0.24121,0.43311,9.511,7.282,3.168
2026-05-23 15:39:06.902,1434286358,396902,1,0.94531,0.11499,0.31055,-1.924,1.435,0.244
2026-05-23 15:39:06.902,1434286358,396902,2,0.95093,0.20874,0.42456,-1.008,8.664,0.649
2026-05-23 15:39:06.102,1434285558,397102,1,0.94043,0.16406,0.32202,-1.809,3.687,0.015
2026-05-23 15:39:06.102,1434285558,397102,2,0.93555,0.2207,0.42505,-2.046,4.748,3.511
2026-05-23 15:39:06.302,1434285758,397302,1,0.93457,0.13403,0.32324,-0.74,3.939,-2.595
2026-05-23 15:39:06.302,1434285758,397302,2,0.94971,0.2019,0.42822,2.634,6.519,1.023
2026-05-23 15:39:06.502,1434285958,397502,1,0.92676,0.14014,0.31934,-4.137,-1.053,-0.641
2026-05-23 15:39:06.502,1434285958,397502,2,0.92993,0.21411,0.43799,0.779,0.779,1.55
2026-05-23 15:39:07.702,1434287158,397702,1,0.91943,0.14551,0.33569,-3.496,1.427,1.534
2026-05-23 15:39:07.702,1434287158,397702,2,0.95435,0.23047,0.4314,1.725,1.214,5.13
2026-05-23 15:39:07.902,1434287358,397902,1,0.9375,0.12695,0.33276,-2.168,-0.336,1.977
2026-05-23 15:39:07.902,1434287358,397902,2,0.94922,0.20923,0.42773,0.038,-1.947,2.45
2026-05-23 15:39:07.102,1434286558,398102,1,0.92896,0.12939,0.3479,-1.969,0.557,3.366
2026-05-23 15:39:07.102,1434286558,398102,2,0.95728,0.21289,0.42749,-3.412,2.45,0.351
2026-05-23 15:39:07.302,1434286758,398302,1,0.93213,0.10278,0.3418,-17.282,-1.351,1.336
2026-05-23 15:39:07.302,1434286758,398302,2,0.94946,0.2146,0.42944,-17.321,-6.901,3.58
2026-05-23 15:39:07.502,1434286958,398502,1,0.9624,0.09155,0.3396,2.305,5.802,1.038
2026-05-23 15:39:07.502,1434286958,398502,2,0.95435,0.19531,0.40942,6.641,11.511,0.252
2026-05-23 15:39:08.702,1434288158,398702,1,0.9165,0.08936,0.34741,0.534,0.695,-1.679
2026-05-23 15:39:08.702,1434288158,398702,2,0.94653,0.20947,0.4436,-3.198,2.321,0.87
2026-05-23 15:39:08.902,1434288358,398902,1,0.92603,0.09912,0.33228,1.244,-1.435,-0.298
2026-05-23 15:39:08.902,1434288358,398902,2,0.95483,0.21387,0.42847,-2.267,1.45,0.382
2026-05-23 15:39:08.102,1434287558,399102,1,0.93945,0.09155,0.34058,-1.397,-0.305,-4.015
2026-05-23 15:39:08.102,1434287558,399102,2,0.95923,0.20142,0.39502,3.298,2.947,-0.382
2026-05-23 15:39:08.302,1434287758,399302,1,0.92993,0.10718,0.3606,5.176,4.023,4.008
2026-05-23 15:39:08.302,1434287758,399302,2,0.93677,0.22876,0.44482,-2.664,-0.824,0.656
2026-05-23 15:39:08.560,1434288016,399560,1,0.92676,0.1311,0.34766,-3.031,2.481,-1.107
2026-05-23 15:39:08.560,1434288016,399560,2,0.96484,0.22095,0.427,4.55,2.702,2.55
2026-05-23 15:39:09.768,1434289224,399768,1,0.92163,0.10645,0.34253,-3.099,-2.107,-2.153
2026-05-23 15:39:09.768,1434289224,399768,2,0.94556,0.22046,0.43457,0.832,3.595,-1.489
2026-05-23 15:39:09.968,1434289424,399968,1,0.93457,0.11841,0.3269,1.282,1.351,-1.344
2026-05-23 15:39:09.968,1434289424,399968,2,0.95996,0.2063,0.41943,-1.137,4.351,-1.901
2026-05-23 15:39:09.168,1434288624,400168,1,0.90356,0.13379,0.3645,-3.908,1.763,-1.405
2026-05-23 15:39:09.168,1434288624,400168,2,0.95142,0.2312,0.4458,-4.244,-0.969,2.588
2026-05-23 15:39:09.368,1434288824,400368,1,0.92334,0.11792,0.35742,-5.573,-0.168,1.328
2026-05-23 15:39:09.368,1434288824,400368,2,0.94995,0.21655,0.43311,-3.298,1.565,0.359
2026-05-23 15:39:09.568,1434289024,400568,1,0.9082,0.14795,0.35254,0.748,2.29,-0.282
2026-05-23 15:39:09.568,1434289024,400568,2,0.94971,0.22754,0.4436,-1.366,-1.237,2.87
2026-05-23 15:39:10.768,1434290224,400768,1,0.90967,0.146,0.35425,-0.702,-0.565,0.802
2026-05-23 15:39:10.768,1434290224,400768,2,0.94922,0.22266,0.43628,0.931,-4.626,5.305
2026-05-23 15:39:10.968,1434290424,400968,1,0.91748,0.14087,0.34204,3.679,2.817,0.008
2026-05-23 15:39:10.968,1434290424,400968,2,0.94287,0.25513,0.43481,0.359,3.336,2.237
2026-05-23 15:39:10.168,1434289624,401168,1,0.93408,0.07178,0.31519,-3.023,-0.481,-0.466
2026-05-23 15:39:10.168,1434289624,401168,2,0.96387,0.20801,0.41333,5.008,14.275,-0.344
2026-05-23 15:39:10.368,1434289824,401368,1,0.90674,0.12988,0.35205,0.924,3.099,2.489
2026-05-23 15:39:10.368,1434289824,401368,2,0.9502,0.23462,0.45142,-1.313,3.824,0.71
2026-05-23 15:39:10.568,1434290024,401568,1,0.97217,0.15405,0.36475,-3.053,0.26,-2.015
2026-05-23 15:39:10.568,1434290024,401568,2,0.9751,0.23145,0.39209,-1.038,2.267,1.427
2026-05-23 15:39:11.768,1434291224,401768,1,0.97607,0.12085,0.34888,6.588,-35.847,1.817
2026-05-23 15:39:11.768,1434291224,401768,2,0.96167,0.22949,0.31567,5.557,9.16,-7.824
2026-05-23 15:39:11.968,1434291424,401968,1,1.11865,0.1355,0.20728,-13.298,-51.176,0.427
2026-05-23 15:39:11.968,1434291424,401968,2,0.97363,0.26294,0.51172,-10.504,36.176,-7.992
2026-05-23 15:39:11.168,1434290624,402168,1,1.06763,0.07446,0.15479,-14.863,-3.672,-7.115
2026-05-23 15:39:11.168,1434290624,402168,2,0.66211,0.15112,0.49707,11.489,40.122,11.87
2026-05-23 15:39:11.368,1434290824,402368,1,0.75903,0.09546,0.02856,8.427,8.176,-0.565
2026-05-23 15:39:11.368,1434290824,402368,2,0.70337,0.17749,0.57324,-39.366,-5.282,-14.802
2026-05-23 15:39:11.568,1434291024,402568,1,0.95313,0.17651,0.19092,4.466,-2.504,1.412
2026-05-23 15:39:11.568,1434291024,402568,2,0.94678,0.29443,0.3252,-3.252,6.664,-1.267
2026-05-23 15:39:12.768,1434292224,402768,1,1.02979,0.13379,0.09351,-7.153,0.885,-2.924
2026-05-23 15:39:12.768,1434292224,402768,2,0.95215,0.22852,0.42114,-13.084,-2.771,-13.641
2026-05-23 15:39:12.968,1434292424,402968,1,1.04639,0.16138,0.09692,4.313,2.641,-0.244
2026-05-23 15:39:12.968,1434292424,402968,2,0.9231,0.35107,0.41138,4.481,0.084,3.916
2026-05-23 15:39:12.168,1434291624,403168,1,1.0166,0.0874,0.11572,-10.977,1.29,0.802
2026-05-23 15:39:12.168,1434291624,403168,2,0.91064,-0.00708,0.29932,69.351,0.893,60.008
2026-05-23 15:39:12.368,1434291824,403368,1,1.03149,0.11597,0.11328,10.733,10.26,1.763
2026-05-23 15:39:12.368,1434291824,403368,2,0.92969,0.25513,0.42578,12.42,-6.267,-2.42
2026-05-23 15:39:12.568,1434292024,403568,1,0.98633,0.09351,0.18433,1.74,7.023,-7.031
2026-05-23 15:39:12.568,1434292024,403568,2,0.89502,0.25537,0.42871,-1.489,7.885,6.29
2026-05-23 15:39:13.768,1434293224,403768,1,1.00757,0.14795,0.12817,-3.885,-3.458,-1.756
2026-05-23 15:39:13.768,1434293224,403768,2,0.96143,0.27222,0.37842,-2.534,-0.435,0.26
2026-05-23 15:39:13.968,1434293424,403968,1,1.04272,0.14502,0.10547,-9.786,-4.794,-2.344
2026-05-23 15:39:13.968,1434293424,403968,2,0.95215,0.26904,0.37793,-18.611,-4.405,-13.214
2026-05-23 15:39:13.168,1434292624,404168,1,1.02856,0.13501,0.10278,-1.748,1.794,-1.916
2026-05-23 15:39:13.168,1434292624,404168,2,0.93848,0.28223,0.38477,0.771,0.435,2.496
2026-05-23 15:39:13.368,1434292824,404368,1,1.00757,0.15552,0.10962,-0.298,1.206,1.924
2026-05-23 15:39:13.368,1434292824,404368,2,0.94312,0.27783,0.38916,-2.29,5.84,1.099
2026-05-23 15:39:13.568,1434293024,404568,1,1.03369,0.13623,0.10181,-0.832,-1.221,0.42
2026-05-23 15:39:13.568,1434293024,404568,2,0.94116,0.26489,0.38843,-2.023,0.924,-0.351
2026-05-23 15:39:14.768,1434294224,404768,1,1.03101,0.13965,0.09692,-1.55,1.802,0.084
2026-05-23 15:39:14.768,1434294224,404768,2,0.948,0.28418,0.38647,-1.176,2.244,1.924
2026-05-23 15:39:14.968,1434294424,404968,1,1.03345,0.14136,0.10669,-2.916,2.771,0.565
2026-05-23 15:39:14.968,1434294424,404968,2,0.94165,0.2644,0.36865,-1.84,-3.626,-0.527
2026-05-23 15:39:14.168,1434293624,405168,1,1.01465,0.14795,0.11011,0.504,1.305,-0.328
2026-05-23 15:39:14.168,1434293624,405168,2,0.94458,0.29468,0.37891,-1.489,6.336,1.893
2026-05-23 15:39:14.368,1434293824,405368,1,1.03516,0.09912,0.10962,-6.366,-1.603,-2.695
2026-05-23 15:39:14.368,1434293824,405368,2,0.94458,0.27075,0.40137,-1.977,-9.168,-5.145
2026-05-23 15:39:14.568,1434294024,405568,1,1.02393,0.14771,0.1106,-1.45,-0.389,-0.405
2026-05-23 15:39:14.568,1434294024,405568,2,0.94238,0.2832,0.41064,-0.382,6.603,3.534
2026-05-23 15:39:15.768,1434295224,405768,1,1.02271,0.14673,0.10645,-0.344,-0.099,-0.107
2026-05-23 15:39:15.768,1434295224,405768,2,0.94043,0.28955,0.38965,-1.84,2.695,2.267
2026-05-23 15:39:15.968,1434295424,405968,1,1.02637,0.16577,0.10645,-1.855,1.588,-0.275
2026-05-23 15:39:15.968,1434295424,405968,2,0.93726,0.28003,0.39771,-1.443,1.45,2.588
2026-05-23 15:39:15.199,1434294655,406199,1,1.02515,0.14355,0.08984,-1.489,0.794,-1.176
2026-05-23 15:39:15.199,1434294655,406199,2,0.94214,0.27661,0.40845,-1.939,-0.595,0.794
2026-05-23 15:39:15.399,1434294855,406399,1,1.02466,0.14551,0.1001,-3.702,-0.214,-0.725
2026-05-23 15:39:15.399,1434294855,406399,2,0.94263,0.27563,0.39819,-1.214,1.695,1.649
2026-05-23 15:39:16.599,1434296055,406599,1,1.0271,0.14771,0.09277,-1.893,-0.038,0.229
2026-05-23 15:39:16.599,1434296055,406599,2,0.93604,0.27612,0.41479,-1.29,3.092,1.473
2026-05-23 15:39:16.799,1434296255,406799,1,1.02466,0.1377,0.10107,-1.878,1.115,0.282
2026-05-23 15:39:16.799,1434296255,406799,2,0.93359,0.27173,0.40894,-1.718,2.435,1.359
2026-05-23 15:39:16.999,1434296455,406999,1,1.02563,0.14038,0.10938,-0.351,1.198,-0.221
2026-05-23 15:39:16.999,1434296455,406999,2,0.94092,0.26636,0.41113,0.038,0.366,0.893
2026-05-23 15:39:16.199,1434295655,407199,1,1.02612,0.1416,0.10181,-1.893,0.183,-0.511
2026-05-23 15:39:16.199,1434295655,407199,2,0.94189,0.2644,0.40894,-0.908,1.183,1.649
2026-05-23 15:39:16.399,1434295855,407399,1,1.02124,0.14526,0.09741,-1.695,0.847,-0.679
2026-05-23 15:39:16.399,1434295855,407399,2,0.94971,0.26782,0.39502,-1.595,0.527,2.168
2026-05-23 15:39:17.599,1434297055,407599,1,1.02368,0.15112,0.10059,-1.634,0.595,-0.473
2026-05-23 15:39:17.599,1434297055,407599,2,0.93945,0.27051,0.39722,-1.649,0.366,1.939
2026-05-23 15:39:17.799,1434297255,407799,1,1.02393,0.14868,0.10156,-1.939,0.458,-0.183
2026-05-23 15:39:17.799,1434297255,407799,2,0.94312,0.25757,0.39526,-1.901,0.901,1.939
2026-05-23 15:39:17.999,1434297455,407999,1,1.01929,0.14893,0.10156,-0.901,1.824,0.763
2026-05-23 15:39:17.999,1434297455,407999,2,0.93604,0.26392,0.40015,-0.748,1.924,1.084
2026-05-23 15:39:17.199,1434296655,408199,1,1.02637,0.14087,0.10645,-1.916,0.733,-0.214
2026-05-23 15:39:17.199,1434296655,408199,2,0.93921,0.26538,0.40234,-0.137,2.473,1.74
2026-05-23 15:39:17.399,1434296855,408399,1,1.02026,0.14746,0.10693,-2.084,1.542,0.611
2026-05-23 15:39:17.399,1434296855,408399,2,0.93726,0.25806,0.42651,-0.595,2.718,1.687
2026-05-23 15:39:18.599,1434298055,408599,1,1.01782,0.13843,0.11987,-2.16,1.137,0.061
2026-05-23 15:39:18.599,1434298055,408599,2,0.94067,0.2644,0.42065,-1.634,0.481,1.0
2026-05-23 15:39:18.799,1434298255,408799,1,1.0144,0.14819,0.10669,-2.84,0.237,-1.145
2026-05-23 15:39:18.799,1434298255,408799,2,0.94507,0.25195,0.39575,-1.443,6.71,5.695
2026-05-23 15:39:18.999,1434298455,408999,1,1.02368,0.14038,0.10815,-2.069,-3.13,1.878
2026-05-23 15:39:18.999,1434298455,408999,2,0.93774,0.26147,0.40649,0.687,-5.573,-0.031
2026-05-23 15:39:18.199,1434297655,409199,1,1.03882,0.13818,0.08691,-5.0,-3.656,2.389
2026-05-23 15:39:18.199,1434297655,409199,2,0.93335,0.23853,0.42139,2.153,5.954,0.13
2026-05-23 15:39:18.399,1434297855,409399,1,1.02515,0.12451,0.08887,-0.756,-0.489,1.244
2026-05-23 15:39:18.399,1434297855,409399,2,0.95166,0.27075,0.37158,-1.473,3.992,1.992
2026-05-23 15:39:19.599,1434299055,409599,1,1.02344,0.11377,0.10107,-1.351,-2.695,1.107
2026-05-23 15:39:19.599,1434299055,409599,2,0.9646,0.24561,0.37402,-10.313,-1.641,-5.443
2026-05-23 15:39:19.799,1434299255,409799,1,1.02856,0.10938,0.09741,-2.435,-2.519,-0.832
2026-05-23 15:39:19.799,1434299255,409799,2,0.93579,0.24878,0.40625,-3.046,-6.45,0.695
2026-05-23 15:39:19.006,1434298462,410006,1,1.02612,0.1355,0.09961,-2.0,-0.779,-0.412
2026-05-23 15:39:19.006,1434298462,410006,2,0.93286,0.25806,0.40015,-2.252,0.252,0.954
2026-05-23 15:39:19.206,1434298662,410206,1,1.02856,0.1355,0.10107,0.519,2.374,0.389
2026-05-23 15:39:19.206,1434298662,410206,2,0.88892,0.27417,0.38989,-0.718,-0.237,0.832
2026-05-23 15:39:19.406,1434298862,410406,1,1.03271,0.13794,0.08789,-0.359,-0.794,0.908
2026-05-23 15:39:19.406,1434298862,410406,2,0.94458,0.25317,0.3894,1.931,-1.237,1.405
2026-05-23 15:39:20.606,1434300062,410606,1,1.02905,0.11768,0.08374,-2.267,-0.611,-0.969
2026-05-23 15:39:20.606,1434300062,410606,2,0.94385,0.25854,0.38135,-1.099,1.855,0.282
2026-05-23 15:39:20.806,1434300262,410806,1,1.05615,0.14258,0.06836,-2.275,1.374,-0.481
2026-05-23 15:39:20.806,1434300262,410806,2,0.9624,0.24683,0.44971,7.412,4.122,6.756
2026-05-23 15:39:20.006,1434299462,411006,1,0.66138,0.10107,-0.02148,18.061,58.939,6.397
2026-05-23 15:39:20.006,1434299462,411006,2,0.46582,0.1145,0.36987,55.115,91.534,6.908
2026-05-23 15:39:20.206,1434299662,411206,1,0.85767,0.11963,0.53027,-24.725,41.748,4.74
2026-05-23 15:39:20.206,1434299662,411206,2,0.79761,0.24512,0.3999,-0.763,-82.038,-2.351
2026-05-23 15:39:20.406,1434299862,411406,1,1.01538,0.09863,0.55835,9.382,-19.412,0.87
2026-05-23 15:39:20.406,1434299862,411406,2,1.19189,0.41553,0.4707,17.42,-48.908,11.015
2026-05-23 15:39:21.606,1434301062,411606,1,0.91772,0.13916,0.16064,0.718,-38.847,7.023
2026-05-23 15:39:21.606,1434301062,411606,2,0.99512,0.29907,0.42578,-13.611,-14.947,6.977
2026-05-23 15:39:21.806,1434301262,411806,1,1.02319,0.11011,0.29004,-10.084,14.374,0.351
2026-05-23 15:39:21.806,1434301262,411806,2,0.97217,0.20557,0.36304,-5.008,40.313,18.092
2026-05-23 15:39:21.006,1434300462,412006,1,1.00024,0.08813,0.31396,0.206,-3.969,-1.519
2026-05-23 15:39:21.006,1434300462,412006,2,1.04688,0.14038,0.46191,0.031,-38.489,-5.489
2026-05-23 15:39:21.206,1434300662,412206,1,0.85986,0.11279,0.3269,-0.779,9.237,-5.687
2026-05-23 15:39:21.206,1434300662,412206,2,0.91724,0.21484,0.40698,-6.786,18.611,1.893
2026-05-23 15:39:21.406,1434300862,412406,1,0.87012,0.15479,0.44189,-10.015,2.565,-1.969
2026-05-23 15:39:21.406,1434300862,412406,2,0.94116,0.18481,0.46606,-4.557,-4.985,3.771
2026-05-23 15:39:22.606,1434302062,412606,1,0.90649,0.12671,0.38501,-0.588,-0.511,3.695
2026-05-23 15:39:22.606,1434302062,412606,2,0.95825,0.20728,0.43115,8.26,-8.985,0.458
2026-05-23 15:39:22.806,1434302262,412806,1,0.92456,0.1272,0.35571,2.061,-1.084,-3.45
2026-05-23 15:39:22.806,1434302262,412806,2,0.95728,0.20776,0.43213,-2.053,-2.695,2.481
2026-05-23 15:39:22.006,1434301462,413006,1,0.89014,0.15503,0.34375,-1.595,-0.061,1.901
2026-05-23 15:39:22.006,1434301462,413006,2,0.97412,0.21533,0.42358,7.412,2.603,-1.328
2026-05-23 15:39:22.206,1434301662,413206,1,0.90674,0.11768,0.38525,-1.061,0.84,2.786
2026-05-23 15:39:22.206,1434301662,413206,2,0.94849,0.22656,0.42822,3.053,0.412,2.328
2026-05-23 15:39:22.406,1434301862,413406,1,0.92896,0.12769,0.33374,4.153,-6.847,0.061
2026-05-23 15:39:22.406,1434301862,413406,2,0.9436,0.24072,0.42065,5.366,-6.107,1.053
2026-05-23 15:39:23.606,1434303062,413606,1,0.94385,0.18481,0.30713,-31.641,-9.122,2.405
2026-05-23 15:39:23.606,1434303062,413606,2,0.92407,0.18945,0.38452,-22.328,5.588,4.244
2026-05-23 15:39:23.806,1434303262,413806,1,0.93896,0.10547,0.2771,14.061,3.679,-8.794
2026-05-23 15:39:23.806,1434303262,413806,2,0.91895,0.18506,0.40967,5.756,-0.565,-0.275
2026-05-23 15:39:23.006,1434302462,414006,1,0.96582,0.17212,0.34351,7.0,5.885,6.397
2026-05-23 15:39:23.006,1434302462,414006,2,0.92041,0.27344,0.46826,15.893,-2.718,7.061
2026-05-23 15:39:23.206,1434302662,414206,1,0.90552,0.10327,0.3772,-23.824,3.237,-3.191
2026-05-23 15:39:23.206,1434302662,414206,2,0.94287,0.22998,0.47729,-14.748,-4.969,5.672
2026-05-23 15:39:23.406,1434302862,414406,1,0.90918,0.08911,0.36353,-8.954,2.16,-7.489
2026-05-23 15:39:23.406,1434302862,414406,2,0.9729,0.14966,0.45996,-12.962,6.55,0.313
2026-05-23 15:39:24.606,1434304062,414606,1,0.93896,0.15283,0.36938,4.237,1.649,4.328
2026-05-23 15:39:24.606,1434304062,414606,2,0.95898,0.20703,0.4353,-1.153,3.099,-1.298
2026-05-23 15:39:24.806,1434304262,414806,1,0.9375,0.09497,0.32617,1.229,-3.237,0.611
2026-05-23 15:39:24.806,1434304262,414806,2,0.95557,0.2124,0.44727,6.595,-0.656,3.855
2026-05-23 15:39:24.006,1434303462,415006,1,0.90088,0.09155,0.35376,-10.092,1.748,-2.191
2026-05-23 15:39:24.006,1434303462,415006,2,0.9502,0.18359,0.43896,-2.496,-3.916,5.672
2026-05-23 15:39:24.206,1434303662,415206,1,0.92261,0.06299,0.32275,-5.55,-5.466,3.824
2026-05-23 15:39:24.206,1434303662,415206,2,0.96045,0.15967,0.45947,-8.053,5.427,-2.313
2026-05-23 15:39:24.406,1434303862,415406,1,0.93555,0.1001,0.3396,0.122,3.656,0.092
2026-05-23 15:39:24.406,1434303862,415406,2,0.9292,0.19458,0.45557,-6.511,0.557,2.832
2026-05-23 15:39:25.606,1434305062,415606,1,0.94727,0.09619,0.36426,-4.962,-2.901,-3.84
2026-05-23 15:39:25.606,1434305062,415606,2,0.98096,0.17529,0.43921,0.603,-8.885,-1.16
2026-05-23 15:39:25.806,1434305262,415806,1,0.91211,0.06934,0.33521,2.153,4.092,2.687
2026-05-23 15:39:25.806,1434305262,415806,2,0.9458,0.19897,0.4646,2.725,6.122,-0.008
2026-05-23 15:39:25.006,1434304462,416006,1,0.92505,0.11914,0.35986,-5.931,2.359,-6.305
2026-05-23 15:39:25.006,1434304462,416006,2,0.95874,0.16699,0.4458,-3.122,-4.962,2.061
2026-05-23 15:39:25.206,1434304662,416206,1,0.90308,0.09204,0.35498,-0.618,-3.641,2.924
2026-05-23 15:39:25.206,1434304662,416206,2,0.96069,0.1897,0.43359,-6.672,0.359,-3.435
2026-05-23 15:39:25.406,1434304862,416406,1,0.89795,0.11865,0.34985,0.435,-0.74,-5.092
2026-05-23 15:39:25.406,1434304862,416406,2,0.94019,0.20776,0.41553,-8.069,-2.214,2.977
2026-05-23 15:39:26.606,1434306062,416606,1,0.9458,0.12524,0.31714,0.832,-2.511,2.519
2026-05-23 15:39:26.606,1434306062,416606,2,0.95288,0.18481,0.38965,6.595,3.435,-4.176
2026-05-23 15:39:26.806,1434306262,416806,1,0.95288,0.14063,0.32788,3.718,-2.763,3.115
2026-05-23 15:39:26.806,1434306262,416806,2,0.93604,0.23682,0.39429,5.038,0.84,0.336
2026-05-23 15:39:26.006,1434305462,417006,1,0.92358,0.11182,0.35059,-3.458,0.275,-6.237
2026-05-23 15:39:26.006,1434305462,417006,2,0.96729,0.20459,0.41528,1.038,-12.687,4.855
2026-05-23 15:39:26.206,1434305662,417206,1,0.93872,0.14355,0.29932,-1.122,0.321,1.298
2026-05-23 15:39:26.206,1434305662,417206,2,0.96484,0.19116,0.38623,2.885,0.374,-1.183
2026-05-23 15:39:26.406,1434305862,417406,1,0.91309,0.16626,0.3042,4.031,3.947,1.313
2026-05-23 15:39:26.406,1434305862,417406,2,0.94214,0.20361,0.40186,0.305,-3.305,6.504
2026-05-23 15:39:27.637,1434307093,417637,1,0.9375,0.1084,0.33496,-4.298,-1.023,-0.527
2026-05-23 15:39:27.637,1434307093,417637,2,0.97607,0.20581,0.38428,0.939,6.092,3.55
2026-05-23 15:39:27.837,1434307293,417837,1,0.93042,0.09473,0.3252,2.26,-2.527,5.008
2026-05-23 15:39:27.837,1434307293,417837,2,0.97437,0.21948,0.41309,8.267,3.069,-2.595
2026-05-23 15:39:27.037,1434306493,418037,1,0.90356,0.12085,0.33569,-5.221,0.076,-0.214
2026-05-23 15:39:27.037,1434306493,418037,2,0.96997,0.21265,0.36499,-3.87,2.45,6.244
2026-05-23 15:39:27.237,1434306693,418237,1,0.91357,0.10352,0.27417,6.0,-1.176,3.832
2026-05-23 15:39:27.237,1434306693,418237,2,0.97559,0.19751,0.38062,0.084,-0.046,-2.435
2026-05-23 15:39:27.437,1434306893,418437,1,0.95264,0.11646,0.32104,-2.634,-4.656,0.58
2026-05-23 15:39:27.437,1434306893,418437,2,0.95361,0.21924,0.37866,-1.817,3.802,-2.595
2026-05-23 15:39:28.637,1434308093,418637,1,0.93774,0.12598,0.34668,-1.092,-2.0,-3.504
2026-05-23 15:39:28.637,1434308093,418637,2,0.95605,0.229,0.39282,2.939,-12.45,1.412
2026-05-23 15:39:28.837,1434308293,418837,1,0.92993,0.12817,0.30664,-3.29,2.183,1.099
2026-05-23 15:39:28.837,1434308293,418837,2,0.95166,0.23413,0.38794,3.565,1.588,4.061
2026-05-23 15:39:28.037,1434307493,419037,1,0.92236,0.14185,0.33423,-0.115,6.611,0.458
2026-05-23 15:39:28.037,1434307493,419037,2,0.95142,0.21753,0.41089,-5.267,2.0,-0.038
2026-05-23 15:39:28.237,1434307693,419237,1,0.91748,0.12036,0.34546,-1.794,-2.42,-1.176
2026-05-23 15:39:28.237,1434307693,419237,2,0.9397,0.20996,0.42017,-2.748,1.328,-0.947
2026-05-23 15:39:31.108,1434310564,422108,1,1.03442,0.16968,0.09106,-11.817,-3.87,2.748
2026-05-23 15:39:31.108,1434310564,422108,2,0.90259,0.25562,0.46118,-8.076,-7.13,-1.931
2026-05-23 15:39:31.308,1434310764,422308,1,1.03906,0.13062,0.10156,-9.466,0.328,3.198
2026-05-23 15:39:31.308,1434310764,422308,2,0.92188,0.23657,0.42065,-2.664,-1.015,2.099
2026-05-23 15:39:31.508,1434310964,422508,1,1.00952,0.1355,0.11792,-0.405,2.229,-2.0
2026-05-23 15:39:31.508,1434310964,422508,2,0.93579,0.25171,0.41455,-2.885,4.198,1.298
2026-05-23 15:39:32.708,1434312164,422708,1,1.01294,0.13135,0.14282,2.221,3.74,0.771
2026-05-23 15:39:32.708,1434312164,422708,2,0.92285,0.26685,0.4292,2.763,6.42,2.489
2026-05-23 15:39:32.908,1434312364,422908,1,1.0105,0.14282,0.13281,2.145,0.74,4.031
2026-05-23 15:39:32.908,1434312364,422908,2,0.93823,0.2478,0.4314,4.221,1.435,4.954
2026-05-23 15:39:32.108,1434311564,423108,1,1.02173,0.12573,0.12817,0.435,-1.191,2.405
2026-05-23 15:39:32.108,1434311564,423108,2,0.94507,0.24609,0.42407,2.191,0.908,3.122
2026-05-23 15:39:32.308,1434311764,423308,1,1.01978,0.12036,0.12549,1.565,2.901,-1.099
2026-05-23 15:39:32.308,1434311764,423308,2,0.94189,0.24194,0.43359,2.061,2.962,1.237
2026-05-23 15:39:32.508,1434311964,423508,1,1.01074,0.1377,0.11914,-1.382,1.649,0.374
2026-05-23 15:39:32.508,1434311964,423508,2,0.94482,0.24976,0.43506,-2.336,2.695,1.038
2026-05-23 15:39:33.708,1434313164,423708,1,1.00781,0.12524,0.14258,-4.061,2.069,0.573
2026-05-23 15:39:33.708,1434313164,423708,2,0.94971,0.23804,0.4314,-0.718,-0.885,1.176
2026-05-23 15:39:33.908,1434313364,423908,1,1.02881,0.12061,0.14136,-1.603,3.962,2.145
2026-05-23 15:39:33.908,1434313364,423908,2,0.94873,0.24121,0.4353,1.763,6.206,3.191
2026-05-23 15:39:33.108,1434312564,424108,1,1.00122,0.12256,0.16699,-0.527,0.328,3.321
2026-05-23 15:39:33.108,1434312564,424108,2,0.94214,0.24634,0.43457,3.229,4.153,3.305
2026-05-23 15:39:33.308,1434312764,424308,1,1.01782,0.13477,0.1582,-1.947,-1.885,0.611
2026-05-23 15:39:33.308,1434312764,424308,2,0.94604,0.24243,0.43823,-0.824,2.107,4.298
2026-05-23 15:39:33.508,1434312964,424508,1,1.03735,0.09839,0.14893,-2.321,0.893,0.733
2026-05-23 15:39:33.508,1434312964,424508,2,0.94946,0.23218,0.41772,-2.351,0.366,2.344
2026-05-23 15:39:34.708,1434314164,424708,1,1.01709,0.12573,0.14575,-4.893,-1.244,-1.008
2026-05-23 15:39:34.708,1434314164,424708,2,0.94507,0.23169,0.41431,-2.382,1.504,3.0
2026-05-23 15:39:34.908,1434314364,424908,1,1.01611,0.10229,0.15161,-2.74,-1.122,-1.282
2026-05-23 15:39:34.908,1434314364,424908,2,0.948,0.22949,0.42407,-1.863,-1.366,0.45
2026-05-23 15:39:34.108,1434313564,425108,1,1.0293,0.10229,0.14307,-2.412,-2.664,-3.061
2026-05-23 15:39:34.108,1434313564,425108,2,0.95117,0.21753,0.41895,-4.214,-6.176,-0.229
2026-05-23 15:39:34.308,1434313764,425308,1,1.04126,0.1394,0.11694,0.374,-5.573,9.573
2026-05-23 15:39:34.308,1434313764,425308,2,0.95776,0.21777,0.41992,3.55,-6.137,-1.84
2026-05-23 15:39:34.508,1434313964,425508,1,1.02905,0.11035,0.10962,-1.458,-3.435,5.115
2026-05-23 15:39:34.508,1434313964,425508,2,0.94458,0.22803,0.3833,1.855,-17.992,5.084
2026-05-23 15:39:35.708,1434315164,425708,1,1.01245,0.07983,0.07056,-9.366,-3.748,0.809
2026-05-23 15:39:35.708,1434315164,425708,2,0.94482,0.22217,0.396,-5.359,-4.962,0.16
2026-05-23 15:39:35.908,1434315364,425908,1,1.0459,0.08057,0.08057,3.496,9.191,-3.557
2026-05-23 15:39:35.908,1434315364,425908,2,0.95313,0.21753,0.38574,0.176,-2.573,1.031
2026-05-23 15:39:35.108,1434314564,426108,1,1.03564,0.08887,0.10303,-4.84,0.809,-2.519
2026-05-23 15:39:35.108,1434314564,426108,2,0.94702,0.20654,0.38159,-1.763,-0.237,2.718
2026-05-23 15:39:35.308,1434314764,426308,1,1.03296,0.104,0.10718,-4.206,-0.947,-1.794
2026-05-23 15:39:35.308,1434314764,426308,2,0.96094,0.21191,0.37769,-3.908,-0.115,0.313
2026-05-23 15:39:35.508,1434314964,426508,1,1.03516,0.09668,0.09985,-4.992,-0.756,-1.916
2026-05-23 15:39:35.508,1434314964,426508,2,0.93994,0.21265,0.37158,-3.092,1.802,1.298
2026-05-23 15:39:36.708,1434316164,426708,1,1.03198,0.1062,0.10327,-1.527,-1.046,0.183
2026-05-23 15:39:36.708,1434316164,426708,2,0.94702,0.2041,0.37476,-0.71,0.84,1.962
2026-05-23 15:39:36.908,1434316364,426908,1,1.0293,0.0979,0.10522,-2.733,-4.382,0.924
2026-05-23 15:39:36.908,1434316364,426908,2,0.96143,0.20923,0.38232,-1.046,1.076,1.13
2026-05-23 15:39:36.144,1434315600,427144,1,1.03589,0.09546,0.09668,-0.649,1.733,0.237
2026-05-23 15:39:36.144,1434315600,427144,2,0.95752,0.21362,0.37207,0.893,0.763,1.611
2026-05-23 15:39:36.344,1434315800,427344,1,1.04346,0.10034,0.09155,-1.679,-1.145,-0.107
2026-05-23 15:39:36.344,1434315800,427344,2,0.95215,0.21191,0.37524,-3.603,1.748,2.008
2026-05-23 15:39:36.544,1434316000,427544,1,1.03174,0.08911,0.10083,-2.351,1.42,-0.969
2026-05-23 15:39:36.544,1434316000,427544,2,0.9563,0.20264,0.37744,-1.206,1.061,0.725
2026-05-23 15:39:37.744,1434317200,427744,1,1.03271,0.09814,0.09473,-2.038,-0.962,0.229
2026-05-23 15:39:37.744,1434317200,427744,2,0.95386,0.20703,0.38257,-0.237,2.687,2.084
2026-05-23 15:39:37.944,1434317400,427944,1,1.03442,0.09302,0.09912,-1.733,2.55,-0.176
2026-05-23 15:39:37.944,1434317400,427944,2,0.9541,0.2085,0.38574,-1.458,1.588,1.099
2026-05-23 15:39:37.144,1434316600,428144,1,1.04443,0.11353,0.10327,-0.412,3.031,-0.374
2026-05-23 15:39:37.144,1434316600,428144,2,0.95435,0.21191,0.39331,-1.756,2.153,1.344
2026-05-23 15:39:37.344,1434316800,428344,1,1.02563,0.10474,0.09497,-1.344,0.229,-1.29
2026-05-23 15:39:37.344,1434316800,428344,2,0.95093,0.2019,0.40039,-2.053,1.275,1.969
2026-05-23 15:39:37.544,1434317000,428544,1,0.96533,0.11108,0.10132,-2.573,-2.237,-0.008
2026-05-23 15:39:37.544,1434317000,428544,2,0.96655,0.20117,0.41602,2.908,2.893,1.206
2026-05-23 15:39:38.744,1434318200,428744,1,1.02246,0.1001,0.11084,-3.336,4.939,-1.733
2026-05-23 15:39:38.744,1434318200,428744,2,0.94531,0.2146,0.42065,-0.702,1.893,2.832
2026-05-23 15:39:38.946,1434318402,428946,1,1.04004,0.11499,0.11255,2.573,-0.122,0.573
2026-05-23 15:39:38.946,1434318402,428946,2,0.9541,0.17017,0.3938,7.313,0.092,5.069
2026-05-23 15:39:38.146,1434317602,429146,1,1.02686,0.10571,0.09155,4.992,-0.092,4.557
2026-05-23 15:39:38.146,1434317602,429146,2,0.96118,0.18896,0.37939,-4.588,-6.397,1.115
2026-05-23 15:39:38.346,1434317802,429346,1,1.07983,0.11108,0.09448,-4.947,-5.244,-2.634
2026-05-23 15:39:38.346,1434317802,429346,2,0.94946,0.17261,0.36963,-3.534,-0.061,2.786
2026-05-23 15:39:38.546,1434318002,429546,1,1.03882,0.10352,0.09082,-5.397,1.847,-5.824
2026-05-23 15:39:38.546,1434318002,429546,2,0.9646,0.17529,0.34009,-6.351,-1.779,-0.702
2026-05-23 15:39:39.746,1434319202,429746,1,1.03613,0.13354,0.08765,0.115,-0.359,-1.939
2026-05-23 15:39:39.746,1434319202,429746,2,0.9563,0.18555,0.34595,-2.046,-0.382,-1.313
2026-05-23 15:39:39.946,1434319402,429946,1,1.03589,0.14746,0.08643,-5.908,-0.481,-1.061
2026-05-23 15:39:39.946,1434319402,429946,2,0.95605,0.20044,0.34937,-1.443,0.542,1.42
2026-05-23 15:39:39.146,1434318602,430146,1,1.07739,0.14673,0.0813,1.366,8.969,-0.573
2026-05-23 15:39:39.146,1434318602,430146,2,0.97339,0.18335,0.40454,11.809,0.962,8.115
2026-05-23 15:39:39.346,1434318802,430346,1,0.66138,0.1001,-0.01099,9.947,65.137,1.725
2026-05-23 15:39:39.346,1434318802,430346,2,0.44775,0.09082,0.54785,-16.435,62.664,-14.672
2026-05-23 15:39:39.546,1434319002,430546,1,0.84888,0.11572,0.53491,-4.221,-13.649,15.481
2026-05-23 15:39:39.546,1434319002,430546,2,1.09473,0.34717,0.60767,22.771,-24.504,1.015
2026-05-23 15:39:40.746,1434320202,430746,1,1.17627,0.10864,0.40039,4.389,1.076,4.595
2026-05-23 15:39:40.746,1434320202,430746,2,1.08716,0.271,0.53442,54.351,5.382,29.573
2026-05-23 15:39:40.946,1434320402,430946,1,0.95483,0.13086,0.31494,-7.214,-0.466,-5.725
2026-05-23 15:39:40.946,1434320402,430946,2,0.99316,0.26489,0.3645,5.351,-16.145,15.786
2026-05-23 15:39:40.146,1434319602,431146,1,1.03296,0.09521,0.21948,-4.969,4.221,-1.611
2026-05-23 15:39:40.146,1434319602,431146,2,0.99414,0.177,0.31274,-4.992,-18.771,7.427
2026-05-23 15:39:40.346,1434319802,431346,1,1.01782,0.13574,0.20215,12.0,-4.794,4.031
2026-05-23 15:39:40.346,1434319802,431346,2,0.95874,0.24365,0.3335,8.252,13.565,-2.191
2026-05-23 15:39:40.546,1434320002,431546,1,0.97168,0.15942,0.27637,-8.466,-2.137,-2.046
2026-05-23 15:39:40.546,1434320002,431546,2,0.93408,0.22974,0.39673,5.557,21.13,7.817
2026-05-23 15:39:41.746,1434321202,431746,1,0.93896,0.12451,0.34131,2.0,14.275,0.366
2026-05-23 15:39:41.746,1434321202,431746,2,0.96582,0.20093,0.43604,10.42,14.664,5.45
2026-05-23 15:39:41.946,1434321402,431946,1,0.91699,0.12964,0.36377,-1.779,2.366,1.153
2026-05-23 15:39:41.946,1434321402,431946,2,0.95386,0.22119,0.43994,-0.733,-5.855,1.527
2026-05-23 15:39:41.146,1434320602,432146,1,0.92358,0.11572,0.32202,-0.29,8.321,-3.176
2026-05-23 15:39:41.146,1434320602,432146,2,0.95898,0.1936,0.43994,-3.74,6.092,-0.756
2026-05-23 15:39:41.346,1434320802,432346,1,0.8894,0.14673,0.37036,0.557,-6.099,-1.137
2026-05-23 15:39:41.346,1434320802,432346,2,0.9563,0.20557,0.46509,0.786,-15.466,-0.214
2026-05-23 15:39:41.546,1434321002,432546,1,0.89233,0.14648,0.36621,-2.389,1.458,-3.389
2026-05-23 15:39:41.546,1434321002,432546,2,0.96362,0.24219,0.47192,-0.076,4.71,1.328
2026-05-23 15:39:44.390,1434323846,435390,1,0.95386,0.15942,0.30811,-4.794,3.084,-6.824
2026-05-23 15:39:44.390,1434323846,435390,2,0.96094,0.2063,0.41968,-1.863,2.603,3.611
2026-05-23 15:39:44.590,1434324046,435590,1,0.93433,0.15186,0.33472,-0.763,1.55,-2.901
2026-05-23 15:39:44.590,1434324046,435590,2,0.93335,0.18286,0.44263,21.443,14.489,7.908
2026-05-23 15:39:45.790,1434325246,435790,1,0.92212,0.17725,0.32886,4.267,2.58,3.092
2026-05-23 15:39:45.790,1434325246,435790,2,0.9751,0.20459,0.39746,-1.718,7.55,0.618
2026-05-23 15:39:45.990,1434325446,435990,1,0.94067,0.16675,0.31763,5.55,3.328,-0.374
2026-05-23 15:39:45.990,1434325446,435990,2,0.95874,0.20313,0.44336,0.244,6.588,-0.275
2026-05-23 15:39:45.190,1434324646,436190,1,0.89893,0.19531,0.35107,-1.664,3.908,-6.511
2026-05-23 15:39:45.190,1434324646,436190,2,0.94043,0.17798,0.42676,-3.565,4.557,2.229
2026-05-23 15:39:45.390,1434324846,436390,1,0.92578,0.18799,0.34204,-0.344,3.229,3.473
2026-05-23 15:39:45.390,1434324846,436390,2,0.9502,0.22754,0.47021,-2.046,1.924,1.962
2026-05-23 15:39:48.471,1434327927,439471,1,0.90479,0.14624,0.36621,-3.298,1.687,0.679
2026-05-23 15:39:48.471,1434327927,439471,2,0.94556,0.23877,0.46851,-0.725,1.031,1.313
2026-05-23 15:39:49.671,1434329127,439671,1,0.9126,0.14307,0.36206,-1.061,0.87,-0.374
2026-05-23 15:39:49.671,1434329127,439671,2,0.94873,0.2334,0.46143,-0.42,0.13,2.237
2026-05-23 15:39:49.871,1434329327,439871,1,0.90063,0.14575,0.36841,-2.763,0.908,0.824
2026-05-23 15:39:49.871,1434329327,439871,2,0.94946,0.22729,0.47534,-0.702,1.13,1.618
2026-05-23 15:39:49.071,1434328527,440071,1,0.90771,0.1333,0.37012,-2.305,-0.16,-0.351
2026-05-23 15:39:49.071,1434328527,440071,2,0.9502,0.23145,0.4624,-1.634,0.916,1.069
2026-05-23 15:39:49.271,1434328727,440271,1,0.90845,0.13843,0.36841,-2.008,0.504,-0.328
2026-05-23 15:39:49.271,1434328727,440271,2,0.94946,0.22534,0.46216,-0.565,1.794,1.313
2026-05-23 15:39:49.471,1434328927,440471,1,0.91064,0.13379,0.37085,-1.924,0.557,-0.267
2026-05-23 15:39:49.471,1434328927,440471,2,0.94873,0.22754,0.46899,-1.031,1.466,1.183
2026-05-23 15:39:50.671,1434330127,440671,1,0.93384,0.14502,0.39038,-1.595,0.87,-0.427
2026-05-23 15:39:50.671,1434330127,440671,2,0.96753,0.27393,0.37109,-0.107,11.023,3.42
2026-05-23 15:39:50.871,1434330327,440871,1,1.03442,0.1521,0.28271,-27.45,-28.656,-4.74
2026-05-23 15:39:50.871,1434330327,440871,2,1.00684,0.20947,0.40845,-25.908,-3.008,-4.893
2026-05-23 15:39:50.071,1434329527,441071,1,1.09595,0.073,0.26953,-8.053,-70.183,3.168
2026-05-23 15:39:50.071,1434329527,441071,2,1.2688,0.16406,0.61646,1.763,-27.672,8.672
2026-05-23 15:39:50.271,1434329727,441271,1,0.9126,0.00684,0.15039,19.206,4.489,12.603
2026-05-23 15:39:50.271,1434329727,441271,2,0.66748,0.20166,0.49951,17.198,-19.221,8.168
2026-05-23 15:39:50.471,1434329927,441471,1,0.81836,0.14722,0.15625,2.252,-0.771,-8.916
2026-05-23 15:39:50.471,1434329927,441471,2,0.89917,0.25854,0.39746,-6.466,-10.725,2.794
2026-05-23 15:39:51.671,1434331127,441671,1,1.07007,0.12695,0.07349,-16.695,10.031,-5.939
2026-05-23 15:39:51.671,1434331127,441671,2,0.92334,0.19238,0.375,-11.641,0.649,10.71
2026-05-23 15:39:51.871,1434331327,441871,1,1.01392,0.12354,0.12842,-4.74,-7.473,4.557
2026-05-23 15:39:51.871,1434331327,441871,2,1.22778,0.34473,0.5083,-187.672,193.427,-121.107
2026-05-23 15:39:51.071,1434330527,442071,1,1.06152,0.04565,0.06812,10.542,-3.962,-1.321
2026-05-23 15:39:51.071,1434330527,442071,2,0.92676,0.25537,0.34644,17.527,5.496,1.351
2026-05-23 15:39:51.271,1434330727,442271,1,1.05322,0.10449,0.08203,6.328,-5.962,1.954
2026-05-23 15:39:51.271,1434330727,442271,2,0.88281,0.20166,0.39868,-7.855,2.641,-13.053
2026-05-23 15:39:51.471,1434330927,442471,1,1.0188,0.15283,0.07666,-12.939,0.008,2.466
2026-05-23 15:39:51.471,1434330927,442471,2,0.93823,0.25903,0.33838,-5.84,-1.908,5.344
2026-05-23 15:39:52.671,1434332127,442671,1,1.03564,0.11279,0.08374,-9.405,-1.053,-0.176
2026-05-23 15:39:52.671,1434332127,442671,2,0.93237,0.229,0.33374,-4.221,0.229,1.496
2026-05-23 15:39:52.871,1434332327,442871,1,1.04028,0.1189,0.08569,-2.328,1.641,-1.107
2026-05-23 15:39:52.871,1434332327,442871,2,0.94214,0.24121,0.34009,-0.26,1.336,1.725
2026-05-23 15:39:52.071,1434331527,443071,1,1.02808,0.13794,0.09912,-2.603,1.504,-1.214
2026-05-23 15:39:52.071,1434331527,443071,2,0.94434,0.25732,0.34155,-0.809,-0.008,2.145
2026-05-23 15:39:52.271,1434331727,443271,1,1.0249,0.14429,0.10425,-5.16,0.832,-0.198
2026-05-23 15:39:52.271,1434331727,443271,2,0.94141,0.25171,0.33447,-3.389,1.198,3.336
2026-05-23 15:39:52.471,1434331927,443471,1,1.03027,0.14063,0.10352,-0.992,0.275,0.229
2026-05-23 15:39:52.471,1434331927,443471,2,0.94141,0.23682,0.33203,-0.71,-0.534,0.176
2026-05-23 15:39:53.671,1434333127,443671,1,1.02246,0.14185,0.10498,0.115,-2.298,1.771
2026-05-23 15:39:53.671,1434333127,443671,2,0.93433,0.25171,0.33325,-0.29,1.099,0.55
2026-05-23 15:39:53.871,1434333327,443871,1,1.04102,0.13574,0.09399,-0.275,-0.389,-1.885
2026-05-23 15:39:53.871,1434333327,443871,2,0.9397,0.25903,0.34692,-0.099,-1.351,0.489
2026-05-23 15:39:53.071,1434332527,444071,1,1.0271,0.13403,0.09229,-0.237,1.26,0.695
2026-05-23 15:39:53.071,1434332527,444071,2,0.9353,0.25708,0.34058,-2.962,2.55,0.885
2026-05-23 15:39:53.271,1434332727,444271,1,0.97949,0.13843,0.09424,-0.481,-5.71,1.229
2026-05-23 15:39:53.271,1434332727,444271,2,0.94727,0.2644,0.34521,0.061,0.58,-1.489
2026-05-23 15:39:53.471,1434332927,444471,1,1.03491,0.13013,0.06934,5.214,2.183,1.779
2026-05-23 15:39:53.471,1434332927,444471,2,0.94067,0.271,0.33325,-0.916,0.023,1.244
2026-05-23 15:39:54.671,1434334127,444671,1,1.04541,0.13867,0.08008,-1.313,1.084,-2.053
2026-05-23 15:39:54.671,1434334127,444671,2,0.93799,0.25684,0.33447,-2.122,0.366,2.901
2026-05-23 15:39:54.871,1434334327,444871,1,1.03052,0.125,0.08618,0.718,1.832,-1.458
2026-05-23 15:39:54.871,1434334327,444871,2,0.94604,0.26099,0.33301,0.405,1.527,2.267
2026-05-23 15:39:54.071,1434333527,445071,1,1.04053,0.13501,0.07861,1.565,-0.16,-0.405
2026-05-23 15:39:54.071,1434333527,445071,2,0.93945,0.25708,0.32666,-0.771,0.817,0.534
2026-05-23 15:39:54.271,1434333727,445271,1,1.02881,0.1416,0.08398,-2.305,-0.076,-0.244
2026-05-23 15:39:54.271,1434333727,445271,2,0.93726,0.26392,0.34204,-2.588,0.641,0.885
2026-05-23 15:39:54.471,1434333927,445471,1,1.02563,0.1394,0.08057,-2.359,0.122,-0.29
2026-05-23 15:39:54.471,1434333927,445471,2,0.93774,0.271,0.33374,-2.74,0.328,1.863
2026-05-23 15:39:55.671,1434335127,445671,1,1.02856,0.12964,0.073,-2.115,0.13,0.527
2026-05-23 15:39:55.671,1434335127,445671,2,0.93774,0.26807,0.33423,-1.412,0.237,0.031
2026-05-23 15:39:55.871,1434335327,445871,1,1.03882,0.13696,0.06982,-1.702,-0.786,-0.527
2026-05-23 15:39:55.871,1434335327,445871,2,0.94141,0.26636,0.33691,-0.16,0.229,2.176
2026-05-23 15:39:55.071,1434334527,446071,1,1.03418,0.13818,0.07495,-2.878,-0.023,0.053
2026-05-23 15:39:55.071,1434334527,446071,2,0.93506,0.27246,0.32324,-0.573,0.183,1.267
2026-05-23 15:39:55.271,1434334727,446271,1,1.03296,0.13184,0.06299,-4.008,-0.229,-0.443
2026-05-23 15:39:55.271,1434334727,446271,2,0.93896,0.26611,0.32935,-1.649,0.733,1.817
2026-05-23 15:39:55.471,1434334927,446471,1,1.03906,0.11377,0.07739,-0.321,1.763,0.992
2026-05-23 15:39:55.471,1434334927,446471,2,0.93018,0.25513,0.32129,1.985,5.061,0.901
2026-05-23 15:39:56.671,1434336127,446671,1,1.03369,0.14966,0.06519,2.26,-1.725,1.321
2026-05-23 15:39:56.671,1434336127,446671,2,0.94238,0.27563,0.31323,-0.137,0.779,1.603
2026-05-23 15:39:56.871,1434336327,446871,1,1.03931,0.13184,0.073,-14.672,0.573,-3.244
2026-05-23 15:39:56.871,1434336327,446871,2,0.94653,0.26074,0.33008,-10.695,0.527,4.466
2026-05-23 15:39:56.071,1434335527,447071,1,1.04443,0.10742,0.07471,-8.641,0.267,-1.458
2026-05-23 15:39:56.071,1434335527,447071,2,0.93848,0.24854,0.33301,-4.641,2.397,3.153
2026-05-23 15:39:56.271,1434335727,447271,1,1.03101,0.11475,0.08618,-3.496,-0.603,-0.588
2026-05-23 15:39:56.271,1434335727,447271,2,0.94727,0.24585,0.35254,-1.473,0.481,1.511
2026-05-23 15:39:56.471,1434335927,447471,1,1.03735,0.11963,0.08813,-3.26,-1.145,-0.679
2026-05-23 15:39:56.471,1434335927,447471,2,0.94434,0.24658,0.33472,-0.664,0.649,0.908
2026-05-23 15:39:57.671,1434337127,447671,1,1.04272,0.1377,0.07202,1.206,-1.496,1.969
2026-05-23 15:39:57.671,1434337127,447671,2,0.94019,0.25781,0.34204,3.649,0.626,-0.672
2026-05-23 15:39:57.871,1434337327,447871,1,1.03003,0.11279,0.09741,3.015,4.107,3.733
2026-05-23 15:39:57.871,1434337327,447871,2,0.9397,0.26782,0.32813,1.763,2.756,0.824
2026-05-23 15:39:57.071,1434336527,448071,1,1.03003,0.10254,0.10645,2.466,2.435,2.168
2026-05-23 15:39:57.071,1434336527,448071,2,0.94043,0.26416,0.33936,3.863,2.87,-1.389
2026-05-23 15:39:57.271,1434336727,448271,1,1.02563,0.12695,0.09619,2.595,-1.954,-1.511
2026-05-23 15:39:57.271,1434336727,448271,2,0.93506,0.27075,0.32666,-2.817,-2.198,-0.198
2026-05-23 15:39:57.471,1434336927,448471,1,1.03955,0.13281,0.07959,-8.809,-2.359,-3.557
2026-05-23 15:39:57.471,1434336927,448471,2,0.92676,0.26343,0.33423,-7.702,-2.038,2.985
2026-05-23 15:39:58.671,1434338127,448671,1,1.02734,0.10767,0.07861,-7.885,-1.183,-3.115
2026-05-23 15:39:58.671,1434338127,448671,2,0.93628,0.25415,0.33447,1.298,1.13,-0.771
2026-05-23 15:39:58.871,1434338327,448871,1,1.0061,0.16748,0.06885,-5.969,-1.519,0.466
2026-05-23 15:39:58.871,1434338327,448871,2,0.93384,0.26465,0.33057,-1.183,1.924,1.099
2026-05-23 15:39:58.071,1434337527,449071,1,1.03613,0.14136,0.09521,-6.496,4.893,-3.626
2026-05-23 15:39:58.071,1434337527,449071,2,0.94238,0.27368,0.32446,-4.015,-1.344,2.305
2026-05-23 15:39:58.271,1434337727,449271,1,1.0105,0.14355,0.11572,-9.824,6.221,-7.092
2026-05-23 15:39:58.271,1434337727,449271,2,0.92188,0.2356,0.33081,-4.71,4.885,5.031
2026-05-23 15:39:58.471,1434337927,449471,1,1.03662,0.17334,0.11328,-7.336,3.779,-2.198
2026-05-23 15:39:58.471,1434337927,449471,2,0.97925,0.24512,0.3562,-4.427,9.779,5.382
2026-05-23 15:39:59.671,1434339127,449671,1,0.77417,0.14966,0.17456,-7.809,30.794,14.29
2026-05-23 15:39:59.671,1434339127,449671,2,0.98291,0.14209,0.49023,22.687,25.641,5.885
2026-05-23 15:39:59.882,1434339338,449882,1,1.05835,0.15112,0.34326,22.305,22.13,11.092
2026-05-23 15:39:59.882,1434339338,449882,2,0.97314,0.23682,0.61182,-6.885,13.962,3.191
2026-05-23 15:39:59.082,1434338538,450082,1,1.17163,0.17529,0.38062,12.87,2.275,3.229
2026-05-23 15:39:59.082,1434338538,450082,2,1.05811,0.26904,0.32275,71.191,30.137,18.336
2026-05-23 15:39:59.282,1434338738,450282,1,0.98999,0.11157,0.20654,-4.985,1.519,3.008
2026-05-23 15:39:59.282,1434338738,450282,2,0.99731,0.20508,0.3999,5.458,34.366,5.58
2026-05-23 15:39:59.482,1434338938,450482,1,1.02271,0.11035,0.24316,-4.084,-1.145,3.595
2026-05-23 15:39:59.482,1434338938,450482,2,0.9458,0.19751,0.2793,1.344,3.031,2.504
2026-05-23 15:40:00.682,1434340138,450682,1,1.02905,0.06006,0.2168,-1.603,-16.756,-3.359
2026-05-23 15:40:00.682,1434340138,450682,2,0.98682,0.21729,0.33105,-6.748,-12.275,-8.748
2026-05-23 15:40:00.882,1434340338,450882,1,0.93921,0.08911,0.28809,-4.359,12.893,1.618
2026-05-23 15:40:00.882,1434340338,450882,2,0.97119,0.19873,0.44189,-2.565,46.405,-0.733
2026-05-23 15:40:00.082,1434339538,451082,1,0.95117,0.10522,0.29639,-1.542,1.756,-2.908
2026-05-23 15:40:00.082,1434339538,451082,2,0.948,0.20728,0.40796,-1.969,0.725,1.321
2026-05-23 15:40:00.282,1434339738,451282,1,0.95044,0.12036,0.30786,-3.466,3.695,-0.466
2026-05-23 15:40:00.282,1434339738,451282,2,0.95117,0.22314,0.38501,-1.313,4.305,3.565
2026-05-23 15:40:00.482,1434339938,451482,1,0.94092,0.12378,0.30054,0.87,3.748,1.908
2026-05-23 15:40:00.482,1434339938,451482,2,0.96265,0.20654,0.4248,3.153,5.489,3.031
2026-05-23 15:40:01.682,1434341138,451682,1,0.94507,0.11035,0.30444,-1.069,2.023,-0.939
2026-05-23 15:40:01.682,1434341138,451682,2,0.95996,0.20215,0.40308,-3.45,0.496,1.611
2026-05-23 15:40:01.882,1434341338,451882,1,0.94238,0.1272,0.29224,2.954,6.282,-0.779
2026-05-23 15:40:01.882,1434341338,451882,2,0.95288,0.2085,0.43066,1.252,6.237,3.344
2026-05-23 15:40:01.082,1434340538,452082,1,0.93628,0.12988,0.32593,1.969,5.214,-0.466
2026-05-23 15:40:01.082,1434340538,452082,2,0.9668,0.19775,0.43506,-1.13,0.382,0.695
2026-05-23 15:40:01.282,1434340738,452282,1,0.91553,0.12842,0.35742,-3.725,2.878,2.496
2026-05-23 15:40:01.282,1434340738,452282,2,0.94922,0.20068,0.45313,-2.786,2.542,3.962
2026-05-23 15:40:01.482,1434340938,452482,1,0.90967,0.12744,0.36572,-1.969,2.107,0.122
2026-05-23 15:40:01.482,1434340938,452482,2,0.95361,0.17969,0.43921,-0.42,-1.969,1.771
2026-05-23 15:40:02.682,1434342138,452682,1,0.91187,0.12256,0.35986,-2.763,0.557,0.26
2026-05-23 15:40:02.682,1434342138,452682,2,0.95996,0.19604,0.43164,-3.252,-1.901,1.962
2026-05-23 15:40:02.882,1434342338,452882,1,0.90796,0.11206,0.35669,-4.779,2.069,-1.038
2026-05-23 15:40:02.882,1434342338,452882,2,0.95508,0.18384,0.42993,-3.824,0.366,1.58
2026-05-23 15:40:02.082,1434341538,453082,1,0.90698,0.12769,0.37524,-3.176,-1.733,1.0
2026-05-23 15:40:02.082,1434341538,453082,2,0.95605,0.18359,0.43555,-0.244,-2.153,1.046
2026-05-23 15:40:02.282,1434341738,453282,1,0.91626,0.11597,0.34082,-3.885,-2.061,-0.153
2026-05-23 15:40:02.282,1434341738,453282,2,0.95117,0.19019,0.44678,-1.328,0.267,0.26
2026-05-23 15:40:02.482,1434341938,453482,1,0.93604,0.09912,0.37817,-7.634,2.962,-5.366
2026-05-23 15:40:02.482,1434341938,453482,2,0.95728,0.17773,0.44165,6.748,5.87,1.206
2026-05-23 15:40:03.682,1434343138,453682,1,0.91284,0.10278,0.36719,-1.153,1.466,2.527
2026-05-23 15:40:03.682,1434343138,453682,2,0.95801,0.2041,0.44165,0.595,7.42,-0.115
2026-05-23 15:40:03.882,1434343338,453882,1,0.91113,0.10425,0.38135,-5.718,-0.443,-3.985
2026-05-23 15:40:03.882,1434343338,453882,2,0.95557,0.1936,0.46021,-7.29,-5.55,2.16
2026-05-23 15:40:03.082,1434342538,454082,1,0.91626,0.14111,0.37036,1.176,1.71,3.809
2026-05-23 15:40:03.082,1434342538,454082,2,0.96753,0.19629,0.44263,3.977,1.481,4.176
2026-05-23 15:40:03.282,1434342738,454282,1,0.88501,0.11768,0.36401,12.344,7.382,-5.557
2026-05-23 15:40:03.282,1434342738,454282,2,0.97144,0.18018,0.44751,-1.435,7.588,-1.405
2026-05-23 15:40:03.482,1434342938,454482,1,0.87109,0.11084,0.40552,-3.672,3.489,-1.847
2026-05-23 15:40:03.482,1434342938,454482,2,0.93677,0.16553,0.48706,-6.618,0.382,-2.351
2026-05-23 15:40:04.682,1434344138,454682,1,0.87329,0.13989,0.4209,-4.687,-2.061,1.244
2026-05-23 15:40:04.682,1434344138,454682,2,0.94897,0.19263,0.47266,-0.786,-2.221,-1.115
2026-05-23 15:40:04.882,1434344338,454882,1,0.87939,0.14453,0.41821,-0.763,-2.725,0.382
2026-05-23 15:40:04.882,1434344338,454882,2,0.9436,0.18604,0.45117,-0.916,-7.26,0.221
2026-05-23 15:40:04.082,1434343538,455082,1,0.89722,0.12891,0.38208,-4.496,1.847,1.832
2026-05-23 15:40:04.082,1434343538,455082,2,0.95923,0.198,0.43555,-3.298,1.603,1.237
2026-05-23 15:40:04.282,1434343738,455282,1,0.88013,0.13672,0.42163,2.824,0.824,-1.603
2026-05-23 15:40:04.282,1434343738,455282,2,0.94922,0.19214,0.45801,0.481,-1.695,-0.878
2026-05-23 15:40:04.482,1434343938,455482,1,0.88428,0.14185,0.40649,-0.435,-0.382,1.527
2026-05-23 15:40:04.482,1434343938,455482,2,0.94995,0.21973,0.45874,0.794,0.42,-0.534
2026-05-23 15:40:05.682,1434345138,455682,1,0.87329,0.14624,0.42505,-5.336,-1.0,-2.672
2026-05-23 15:40:05.682,1434345138,455682,2,0.96045,0.21045,0.4353,-2.466,-1.282,2.321
2026-05-23 15:40:05.882,1434345338,455882,1,0.90845,0.13428,0.37305,-6.641,5.832,-0.328
2026-05-23 15:40:05.882,1434345338,455882,2,0.94727,0.19409,0.42383,-1.099,6.252,-0.397
2026-05-23 15:40:05.082,1434344538,456082,1,0.87549,0.1355,0.36963,-3.863,-10.0,0.023
2026-05-23 15:40:05.082,1434344538,456082,2,0.95264,0.21753,0.45825,-1.031,-5.0,2.42
2026-05-23 15:40:05.282,1434344738,456282,1,0.85938,0.13452,0.42554,0.023,-1.053,2.634
2026-05-23 15:40:05.282,1434344738,456282,2,0.94556,0.24194,0.44385,8.023,-1.221,2.351
2026-05-23 15:40:05.482,1434344938,456482,1,0.89014,0.13086,0.41797,-4.748,0.718,0.099
2026-05-23 15:40:05.482,1434344938,456482,2,0.9646,0.20581,0.42676,0.878,3.954,0.26
2026-05-23 15:40:06.682,1434346138,456682,1,0.88477,0.12646,0.37231,-4.603,-3.664,2.588
2026-05-23 15:40:06.682,1434346138,456682,2,0.94849,0.21509,0.45654,-7.733,2.084,-1.069
2026-05-23 15:40:06.882,1434346338,456882,1,0.90552,0.06567,0.40332,-8.901,-3.702,0.947
2026-05-23 15:40:06.882,1434346338,456882,2,0.95654,0.22583,0.41846,1.534,1.061,3.305
2026-05-23 15:40:06.082,1434345538,457082,1,0.95313,0.07886,0.34106,-1.611,7.74,-1.809
2026-05-23 15:40:06.082,1434345538,457082,2,0.9541,0.22876,0.42773,-8.382,2.977,0.198
2026-05-23 15:40:06.282,1434345738,457282,1,0.89087,0.07642,0.36572,2.962,-1.779,-0.038
2026-05-23 15:40:06.282,1434345738,457282,2,0.95361,0.22363,0.46631,-9.763,3.626,0.405
2026-05-23 15:40:06.500,1434345956,457500,1,0.91748,0.06934,0.42163,-4.802,0.397,-1.74
2026-05-23 15:40:06.500,1434345956,457500,2,0.96191,0.21021,0.42798,14.084,-4.0,4.427
2026-05-23 15:40:07.700,1434347156,457700,1,0.93726,0.07178,0.35474,-1.229,8.779,-5.794
2026-05-23 15:40:07.700,1434347156,457700,2,0.96484,0.20801,0.45093,-6.916,8.092,1.244
2026-05-23 15:40:07.900,1434347356,457900,1,0.89404,0.10791,0.39087,1.84,-0.878,0.122
2026-05-23 15:40:07.900,1434347356,457900,2,0.95459,0.24268,0.47778,13.626,-4.511,3.985
2026-05-23 15:40:07.100,1434346556,458100,1,0.90137,0.08521,0.39307,-2.893,-5.74,-1.756
2026-05-23 15:40:07.100,1434346556,458100,2,0.94312,0.19092,0.45898,12.855,-0.931,7.069
2026-05-23 15:40:07.300,1434346756,458300,1,0.87476,0.14966,0.36084,-17.809,1.443,-11.427
2026-05-23 15:40:07.300,1434346756,458300,2,0.97949,0.15356,0.43408,-30.466,-5.336,-3.656
2026-05-23 15:40:07.500,1434346956,458500,1,0.90845,0.06812,0.35278,1.214,-5.763,0.435
2026-05-23 15:40:07.500,1434346956,458500,2,0.96216,0.22754,0.42212,12.985,-3.893,-2.244
2026-05-23 15:40:08.700,1434348156,458700,1,0.91187,0.11792,0.32056,2.427,1.466,-1.519
2026-05-23 15:40:08.700,1434348156,458700,2,0.95996,0.21948,0.40186,6.069,-10.153,3.046
2026-05-23 15:40:08.900,1434348356,458900,1,0.98364,0.14551,0.25024,-4.206,-1.13,2.084
2026-05-23 15:40:08.900,1434348356,458900,2,0.95093,0.24121,0.39844,0.977,14.786,4.405
2026-05-23 15:40:08.100,1434347556,459100,1,0.90771,0.13403,0.36694,0.412,-4.229,2.481
2026-05-23 15:40:08.100,1434347556,459100,2,0.9375,0.23608,0.42944,22.939,2.924,6.344
2026-05-23 15:40:08.300,1434347756,459300,1,0.98389,0.10645,0.2666,6.74,10.137,2.649
2026-05-23 15:40:08.300,1434347756,459300,2,0.94092,0.24927,0.41089,0.55,0.046,3.176
2026-05-23 15:40:08.500,1434347956,459500,1,0.96875,0.15234,0.27515,-11.13,-6.557,-8.893
2026-05-23 15:40:08.500,1434347956,459500,2,0.94507,0.24048,0.34766,-9.336,-2.267,21.382
2026-05-23 15:40:09.700,1434349156,459700,1,0.94995,0.13306,0.28271,5.832,-1.344,12.565
2026-05-23 15:40:09.700,1434349156,459700,2,0.97412,0.13721,0.375,25.794,-5.954,2.74
2026-05-23 15:40:09.900,1434349356,459900,1,0.94897,0.10229,0.29883,2.771,4.107,7.87
2026-05-23 15:40:09.900,1434349356,459900,2,0.95801,0.14795,0.36865,-8.359,12.924,0.641
2026-05-23 15:40:09.100,1434348556,460100,1,0.98096,0.05029,0.29004,-5.26,-4.641,2.641
2026-05-23 15:40:09.100,1434348556,460100,2,0.94897,0.15161,0.37549,-7.336,-1.71,-12.13
2026-05-23 15:40:09.300,1434348756,460300,1,0.94263,0.11157,0.28979,-1.099,1.023,3.87
2026-05-23 15:40:09.300,1434348756,460300,2,0.95288,0.23315,0.38452,-11.931,2.237,-0.374
2026-05-23 15:40:09.500,1434348956,460500,1,0.95898,0.10352,0.28003,-5.809,10.618,-3.542
2026-05-23 15:40:09.500,1434348956,460500,2,0.95068,0.22388,0.42871,1.527,-4.542,2.008
2026-05-23 15:40:10.700,1434350156,460700,1,0.96167,0.11426,0.2937,1.542,-2.275,1.191
2026-05-23 15:40:10.700,1434350156,460700,2,0.93677,0.20752,0.39771,7.534,3.832,5.13
2026-05-23 15:40:10.900,1434350356,460900,1,0.94214,0.11304,0.3042,-2.282,1.221,-0.931
2026-05-23 15:40:10.900,1434350356,460900,2,0.94873,0.21899,0.40796,1.16,14.115,1.435
2026-05-23 15:40:10.100,1434349556,461100,1,0.93921,0.10059,0.29395,-2.771,5.84,-3.763
2026-05-23 15:40:10.100,1434349556,461100,2,0.94702,0.23755,0.39478,3.588,1.885,3.321
2026-05-23 15:40:10.319,1434349775,461318,1,0.96509,0.09546,0.31421,-6.847,-7.412,-3.824
2026-05-23 15:40:10.319,1434349775,461318,2,0.94165,0.20044,0.43066,-7.603,-8.351,-1.802
2026-05-23 15:40:10.518,1434349974,461518,1,0.94653,0.1106,0.3125,3.015,11.198,1.115
2026-05-23 15:40:10.518,1434349974,461518,2,0.98291,0.19946,0.3313,1.863,-0.191,-0.099
2026-05-23 15:40:11.718,1434351174,461718,1,1.00122,0.08276,0.27173,5.863,6.519,-3.145
2026-05-23 15:40:11.718,1434351174,461718,2,1.01709,0.20825,0.36523,-3.115,25.779,-5.557
2026-05-23 15:40:11.918,1434351374,461918,1,1.09497,0.16626,0.34717,-4.023,-17.573,3.435
2026-05-23 15:40:11.918,1434351374,461918,2,1.19263,0.31421,0.52759,-4.626,-22.916,-4.847
2026-05-23 15:40:11.118,1434350574,462118,1,1.01611,0.11011,0.35547,3.687,-11.725,2.092
2026-05-23 15:40:11.118,1434350574,462118,2,0.99414,0.34082,0.6333,-7.672,-4.45,0.809
2026-05-23 15:40:11.318,1434350774,462318,1,0.75635,0.07129,0.14185,-4.779,-5.954,-3.176
2026-05-23 15:40:11.318,1434350774,462318,2,0.63452,0.18872,0.5354,-38.046,-29.779,-7.687
2026-05-23 15:40:11.518,1434350974,462518,1,0.95728,0.1438,0.07153,-9.443,-15.16,-5.977
2026-05-23 15:40:11.518,1434350974,462518,2,1.00391,0.15967,0.41064,9.221,-2.649,17.71
2026-05-23 15:40:12.718,1434352174,462718,1,1.03027,0.11304,0.14087,6.168,-10.267,5.954
2026-05-23 15:40:12.718,1434352174,462718,2,0.92139,0.21631,0.34546,14.664,-33.176,-21.824
2026-05-23 15:40:12.918,1434352374,462918,1,1.02246,0.13135,0.12842,-5.985,2.305,1.221
2026-05-23 15:40:12.918,1434352374,462918,2,0.93237,0.28125,0.47119,-3.084,5.847,2.076
2026-05-23 15:40:12.118,1434351574,463118,1,1.00952,0.10303,0.15112,-0.198,1.458,-0.481
2026-05-23 15:40:12.118,1434351574,463118,2,0.91895,0.29102,0.45386,0.313,-0.794,2.519
2026-05-23 15:40:12.318,1434351774,463318,1,1.01367,0.14233,0.13062,-8.16,-1.74,-1.015
2026-05-23 15:40:12.318,1434351774,463318,2,0.91699,0.27222,0.42554,-6.069,-8.237,0.695
2026-05-23 15:40:12.518,1434351974,463518,1,1.05005,0.11621,0.11304,1.588,0.733,2.542
2026-05-23 15:40:12.518,1434351974,463518,2,0.92334,0.36597,0.42627,-54.489,10.023,-49.45
2026-05-23 15:40:13.718,1434353174,463718,1,1.01929,0.1062,0.12964,-2.595,1.0,-1.885
2026-05-23 15:40:13.718,1434353174,463718,2,0.93286,0.26758,0.38672,2.511,3.626,8.519
2026-05-23 15:40:13.918,1434353374,463918,1,1.02612,0.09595,0.11011,4.924,-0.29,1.618
2026-05-23 15:40:13.918,1434353374,463918,2,0.93994,0.2937,0.39111,2.641,5.588,-2.145
2026-05-23 15:40:13.118,1434352574,464118,1,1.0498,0.11426,0.09009,-1.053,-5.588,-2.595
2026-05-23 15:40:13.118,1434352574,464118,2,0.89429,0.30151,0.4209,14.954,-3.87,7.405
2026-05-23 15:40:13.318,1434352774,464318,1,1.02197,0.13257,0.11523,-1.626,3.74,-5.809
2026-05-23 15:40:13.318,1434352774,464318,2,0.91089,0.24585,0.42407,4.794,-8.679,9.885
2026-05-23 15:40:13.518,1434352974,464518,1,1.03345,0.12109,0.11353,7.679,3.634,-4.595
2026-05-23 15:40:13.518,1434352974,464518,2,0.95068,0.27393,0.38184,1.573,3.565,-0.015
2026-05-23 15:40:14.718,1434354174,464718,1,1.03345,0.14014,0.12183,-9.718,-3.206,-2.344
2026-05-23 15:40:14.718,1434354174,464718,2,0.94019,0.27905,0.39722,-13.427,-2.076,-0.626
2026-05-23 15:40:14.918,1434354374,464918,1,1.00806,0.16602,0.10327,12.611,2.954,2.366
2026-05-23 15:40:14.918,1434354374,464918,2,0.92358,0.31006,0.39404,16.069,2.458,-0.817
2026-05-23 15:40:14.123,1434353579,465123,1,1.0271,0.15796,0.10303,7.786,1.779,-0.931
2026-05-23 15:40:14.123,1434353579,465123,2,0.92847,0.30737,0.39941,2.786,3.74,-0.962
2026-05-23 15:40:14.323,1434353779,465323,1,1.01196,0.19775,0.11011,-5.748,1.282,-6.458
2026-05-23 15:40:14.323,1434353779,465323,2,0.93213,0.30591,0.38086,-5.153,2.061,-1.13
2026-05-23 15:40:14.523,1434353979,465523,1,1.01123,0.19751,0.10522,-7.893,-2.42,-0.504
2026-05-23 15:40:14.523,1434353979,465523,2,0.92798,0.31128,0.40112,-1.756,-0.183,3.672
2026-05-23 15:40:15.723,1434355179,465723,1,1.01636,0.16699,0.09448,0.855,0.313,0.435
2026-05-23 15:40:15.723,1434355179,465723,2,0.93359,0.31836,0.40527,-0.122,0.137,3.687
2026-05-23 15:40:15.923,1434355379,465923,1,1.01929,0.17603,0.10254,-1.046,0.74,0.023
2026-05-23 15:40:15.923,1434355379,465923,2,0.94531,0.30762,0.36963,-2.221,0.565,0.374
2026-05-23 15:40:15.123,1434354579,466123,1,1.00928,0.17554,0.10278,-2.153,-3.214,1.237
2026-05-23 15:40:15.123,1434354579,466123,2,0.93164,0.30469,0.37793,2.107,0.794,3.519
2026-05-23 15:40:15.375,1434354831,466374,1,1.0332,0.17407,0.09155,-3.519,-0.466,0.046
2026-05-23 15:40:15.375,1434354831,466374,2,0.9375,0.2959,0.38574,-1.725,0.389,0.786
2026-05-23 15:40:15.574,1434355030,466574,1,1.01636,0.17432,0.10352,-0.237,0.939,-0.198
2026-05-23 15:40:15.574,1434355030,466574,2,0.9292,0.30273,0.38208,0.641,1.649,0.87
2026-05-23 15:40:16.774,1434356230,466774,1,1.01587,0.17017,0.10474,-0.527,-0.939,0.214
2026-05-23 15:40:16.774,1434356230,466774,2,0.92822,0.29492,0.39258,1.313,1.084,1.565
2026-05-23 15:40:16.983,1434356439,466983,1,1.0188,0.18506,0.10254,0.58,1.542,-0.748
