datetime,epoch_ms,ts_millis,mpu_id,ax,ay,az,gx,gy,gz
2026-05-22 18:11:46.571,1357046027,172571,1,0.83057,-0.33521,0.3999,-0.176,-0.191,0.534
2026-05-22 18:11:46.571,1357046027,172571,2,0.95264,-0.08618,0.2644,-1.382,1.0,1.374
2026-05-22 18:11:54.692,1357054148,180691,1,0.85474,-0.27222,0.41235,-1.504,0.679,-0.282
2026-05-22 18:11:54.692,1357054148,180691,2,0.9519,-0.08472,0.26489,-1.405,1.252,1.511
2026-05-22 18:11:54.891,1357054347,180891,1,0.85571,-0.28564,0.40186,-1.595,1.137,-0.351
2026-05-22 18:11:54.891,1357054347,180891,2,0.95435,-0.08472,0.27173,-1.244,0.786,1.099
2026-05-22 18:11:55.095,1357054551,181095,1,0.85254,-0.28027,0.4082,-1.695,0.176,-0.634
2026-05-22 18:11:55.095,1357054551,181095,2,0.96338,-0.0918,0.26978,-0.809,0.901,0.962
2026-05-22 18:11:55.295,1357054751,181295,1,0.85547,-0.271,0.4082,-1.832,0.206,-0.321
2026-05-22 18:11:55.295,1357054751,181295,2,0.94995,-0.08936,0.27246,-0.947,1.435,1.641
2026-05-22 18:11:55.495,1357054951,181495,1,0.85767,-0.27441,0.40674,-1.527,-0.092,0.244
2026-05-22 18:11:55.495,1357054951,181495,2,0.95215,-0.08447,0.27368,-0.756,1.664,1.076
2026-05-22 18:11:55.695,1357055151,181695,1,0.85522,-0.28467,0.40576,-1.473,0.328,-0.557
2026-05-22 18:11:55.695,1357055151,181695,2,0.95483,-0.09009,0.28198,-1.412,1.611,1.145
2026-05-22 18:11:55.895,1357055351,181895,1,0.85522,-0.27368,0.40186,-1.443,0.015,-0.031
2026-05-22 18:11:55.895,1357055351,181895,2,0.95435,-0.0874,0.28003,-1.084,0.947,1.275
2026-05-22 18:11:56.095,1357055551,182095,1,0.85596,-0.27539,0.40161,-1.664,0.802,0.221
2026-05-22 18:11:56.095,1357055551,182095,2,0.95313,-0.08887,0.27075,-1.13,0.458,1.489
2026-05-22 18:11:56.295,1357055751,182295,1,0.85449,-0.27759,0.4043,-1.504,0.099,-0.046
2026-05-22 18:11:56.295,1357055751,182295,2,0.95361,-0.08936,0.27515,-1.664,1.13,1.702
2026-05-22 18:11:56.495,1357055951,182495,1,0.84839,-0.27954,0.40381,-1.603,0.763,-0.015
2026-05-22 18:11:56.495,1357055951,182495,2,0.95264,-0.09229,0.271,-3.076,0.725,2.076
2026-05-22 18:11:56.695,1357056151,182695,1,0.84644,-0.28711,0.41162,0.267,-0.282,-1.802
2026-05-22 18:11:56.695,1357056151,182695,2,0.95825,-0.08667,0.27197,-3.214,0.229,0.878
2026-05-22 18:11:56.895,1357056351,182895,1,0.85449,-0.26416,0.40088,2.183,-2.832,-0.504
2026-05-22 18:11:56.895,1357056351,182895,2,0.96484,-0.07104,0.25977,1.832,-0.305,-0.664
2026-05-22 18:11:57.095,1357056551,183095,1,0.86206,-0.25513,0.40454,-2.58,1.443,-1.527
2026-05-22 18:11:57.095,1357056551,183095,2,0.95361,-0.07813,0.26514,-0.855,0.351,1.336
2026-05-22 18:11:57.465,1357056921,183465,1,0.85767,-0.26294,0.40674,-0.672,0.496,0.198
2026-05-22 18:11:57.465,1357056921,183465,2,0.95703,-0.07349,0.2666,1.511,1.351,-0.809
2026-05-22 18:11:57.665,1357057121,183665,1,0.85791,-0.25757,0.40137,-2.504,1.351,-1.664
2026-05-22 18:11:57.665,1357057121,183665,2,0.95068,-0.08203,0.25122,-0.855,2.008,1.252
2026-05-22 18:11:57.865,1357057321,183865,1,0.86523,-0.25391,0.3916,-1.649,0.076,0.183
2026-05-22 18:11:57.865,1357057321,183865,2,0.94287,-0.06836,0.26294,-0.382,2.244,1.427
2026-05-22 18:12:00.559,1357060015,186559,1,0.8479,-0.177,0.45264,-3.58,-0.176,-0.847
2026-05-22 18:12:00.559,1357060015,186559,2,0.96362,-0.03394,0.27515,-2.718,0.229,1.595
2026-05-22 18:12:00.759,1357060215,186759,1,0.84985,-0.17505,0.44946,-2.718,-0.473,-0.061
2026-05-22 18:12:00.759,1357060215,186759,2,0.95752,-0.03516,0.2832,1.298,1.122,0.573
2026-05-22 18:12:00.959,1357060415,186959,1,0.84302,-0.18579,0.44263,-2.702,0.244,-0.191
2026-05-22 18:12:00.959,1357060415,186959,2,0.9541,-0.02612,0.271,0.321,1.344,1.366
2026-05-22 18:12:01.159,1357060615,187159,1,0.84863,-0.1936,0.45898,-3.198,0.412,0.008
2026-05-22 18:12:01.159,1357060615,187159,2,0.95825,-0.03296,0.27441,-1.031,1.122,1.298
2026-05-22 18:12:01.359,1357060815,187359,1,0.84668,-0.18481,0.44873,-2.214,0.29,-0.069
2026-05-22 18:12:01.359,1357060815,187359,2,0.95508,-0.02808,0.27222,-1.008,0.824,1.092
2026-05-22 18:12:01.559,1357061015,187559,1,0.84937,-0.18628,0.45654,-1.901,1.092,0.534
2026-05-22 18:12:01.559,1357061015,187559,2,0.96387,-0.02856,0.27686,0.473,1.069,0.13
2026-05-22 18:12:01.759,1357061215,187759,1,0.84937,-0.19214,0.45288,-2.74,0.053,-0.183
2026-05-22 18:12:01.759,1357061215,187759,2,0.96484,-0.03809,0.28198,0.229,1.122,0.55
2026-05-22 18:12:01.959,1357061415,187959,1,0.84717,-0.18726,0.45313,-3.137,-0.542,-0.794
2026-05-22 18:12:01.959,1357061415,187959,2,0.9624,-0.04126,0.27832,-0.588,1.145,1.664
2026-05-22 18:12:02.593,1357062049,188593,1,0.8457,-0.19678,0.44922,-1.679,0.458,0.45
2026-05-22 18:12:02.593,1357062049,188593,2,0.95679,-0.03149,0.2749,-0.076,1.198,0.84
2026-05-22 18:12:02.892,1357062348,188892,1,0.84399,-0.19849,0.44434,-1.443,0.328,0.229
2026-05-22 18:12:02.892,1357062348,188892,2,0.96265,-0.04028,0.26953,-0.779,0.985,0.969
2026-05-22 18:12:03.092,1357062548,189092,1,0.84961,-0.18848,0.4353,-2.115,-0.206,0.328
2026-05-22 18:12:03.092,1357062548,189092,2,1.01196,-0.03003,0.25342,-5.489,2.229,1.336
2026-05-22 18:12:03.292,1357062748,189292,1,0.77295,-0.24072,0.39771,-1.298,-14.328,1.069
2026-05-22 18:12:03.292,1357062748,189292,2,0.97339,-0.05371,0.31226,-0.275,0.618,-2.061
2026-05-22 18:12:03.492,1357062948,189492,1,0.85376,-0.21094,0.41162,-3.481,4.824,-0.718
2026-05-22 18:12:03.492,1357062948,189492,2,0.95825,-0.02856,0.2478,-10.305,-2.809,5.115
2026-05-22 18:12:03.692,1357063148,189692,1,0.84082,-0.22485,0.40356,-4.26,-2.183,-0.878
2026-05-22 18:12:03.692,1357063148,189692,2,0.9585,-0.04688,0.25586,1.863,-0.725,-0.443
2026-05-22 18:12:03.892,1357063348,189892,1,0.85303,-0.20239,0.44751,3.42,2.42,1.305
2026-05-22 18:12:03.892,1357063348,189892,2,0.96802,-0.00464,0.24121,4.26,2.214,-1.252
2026-05-22 18:12:04.092,1357063548,190092,1,0.85205,-0.20703,0.44019,-1.053,1.634,-0.74
2026-05-22 18:12:04.092,1357063548,190092,2,0.96021,-0.04468,0.28442,5.855,1.908,-0.58
2026-05-22 18:12:04.292,1357063748,190292,1,0.85083,-0.20435,0.44336,1.229,1.542,1.779
2026-05-22 18:12:04.292,1357063748,190292,2,0.96313,-0.01514,0.27344,1.947,2.031,0.771
2026-05-22 18:12:04.492,1357063948,190492,1,0.84277,-0.21021,0.44214,-2.435,0.275,-0.672
2026-05-22 18:12:04.492,1357063948,190492,2,0.95996,-0.03687,0.28516,-3.603,1.901,2.221
2026-05-22 18:12:04.692,1357064148,190692,1,0.84131,-0.21167,0.44019,-0.794,-0.252,1.069
2026-05-22 18:12:04.692,1357064148,190692,2,0.96729,-0.0271,0.27515,1.298,1.58,1.153
2026-05-22 18:12:04.892,1357064348,190892,1,0.84277,-0.22534,0.43945,-2.962,2.298,0.42
2026-05-22 18:12:04.892,1357064348,190892,2,0.96191,-0.03711,0.26758,2.466,0.573,0.962
2026-05-22 18:12:05.092,1357064548,191092,1,0.85449,-0.21582,0.44409,0.015,2.634,0.855
2026-05-22 18:12:05.092,1357064548,191092,2,0.97046,-0.03809,0.29785,5.542,1.321,-0.626
2026-05-22 18:12:05.292,1357064748,191292,1,0.84351,-0.24268,0.42456,-9.244,-0.198,-2.603
2026-05-22 18:12:05.292,1357064748,191292,2,0.96387,-0.05127,0.26392,3.443,2.298,0.267
2026-05-22 18:12:05.492,1357064948,191492,1,0.84888,-0.21631,0.43896,-2.511,2.145,-0.031
2026-05-22 18:12:05.492,1357064948,191492,2,0.95581,-0.05298,0.27734,-4.359,0.084,3.687
2026-05-22 18:12:05.692,1357065148,191692,1,0.84692,-0.25073,0.44189,-4.389,-0.649,1.084
2026-05-22 18:12:05.692,1357065148,191692,2,0.95923,-0.0498,0.27588,5.542,1.496,-1.252
2026-05-22 18:12:05.892,1357065348,191892,1,0.85596,-0.23389,0.43018,-0.481,-0.832,-1.855
2026-05-22 18:12:05.892,1357065348,191892,2,0.94409,-0.05249,0.2793,-2.565,0.298,0.443
2026-05-22 18:12:06.092,1357065548,192092,1,0.84595,-0.22607,0.44067,2.023,-2.183,-0.779
2026-05-22 18:12:06.092,1357065548,192092,2,0.95703,-0.03931,0.28198,0.374,-2.26,-1.26
2026-05-22 18:12:06.292,1357065748,192292,1,0.84937,-0.21436,0.42261,-2.069,1.679,-0.84
2026-05-22 18:12:06.292,1357065748,192292,2,0.96777,-0.04175,0.25342,-1.115,2.74,1.122
2026-05-22 18:12:06.492,1357065948,192492,1,0.86963,-0.20044,0.41235,-1.649,1.954,0.26
2026-05-22 18:12:06.492,1357065948,192492,2,0.96338,-0.04932,0.26855,1.046,2.473,2.427
2026-05-22 18:12:06.692,1357066148,192692,1,0.8562,-0.22754,0.43408,-1.878,1.931,0.763
2026-05-22 18:12:06.692,1357066148,192692,2,0.96362,-0.0625,0.31836,-4.084,1.137,1.298
2026-05-22 18:12:06.915,1357066371,192914,1,0.84253,-0.21851,0.41016,-1.504,-0.992,-1.664
2026-05-22 18:12:06.915,1357066371,192914,2,0.96582,-0.05347,0.29321,2.084,1.893,-0.305
2026-05-22 18:12:07.163,1357066619,193163,1,0.82568,-0.21069,0.4436,3.206,6.031,1.634
2026-05-22 18:12:07.163,1357066619,193163,2,0.96655,-0.04956,0.2644,4.435,3.221,0.962
2026-05-22 18:12:07.567,1357067023,193567,1,0.85352,-0.23389,0.43848,-0.969,1.527,0.489
2026-05-22 18:12:07.567,1357067023,193567,2,0.95288,-0.03564,0.28516,-0.962,1.733,1.595
2026-05-22 18:12:07.767,1357067223,193767,1,0.82861,-0.22363,0.45605,4.595,7.061,-0.679
2026-05-22 18:12:07.767,1357067223,193767,2,0.96338,-0.05371,0.28784,-2.328,-1.725,-2.214
2026-05-22 18:12:07.967,1357067423,193967,1,0.82983,-0.19116,0.45752,2.664,0.366,-0.115
2026-05-22 18:12:07.967,1357067423,193967,2,0.95605,-0.02222,0.28052,-1.366,0.061,0.84
2026-05-22 18:12:08.167,1357067623,194167,1,0.8374,-0.20117,0.45728,-1.695,0.122,-0.389
2026-05-22 18:12:08.167,1357067623,194167,2,0.96436,-0.02905,0.2793,-0.504,1.573,0.931
2026-05-22 18:12:08.367,1357067823,194367,1,0.83911,-0.19727,0.45825,-1.977,1.107,0.763
2026-05-22 18:12:08.367,1357067823,194367,2,0.95166,-0.03394,0.29053,-1.573,1.634,1.763
2026-05-22 18:12:08.567,1357068023,194567,1,0.8335,-0.20605,0.46509,-2.031,0.435,0.145
2026-05-22 18:12:08.567,1357068023,194567,2,0.96143,-0.03833,0.28345,-1.267,0.527,1.206
2026-05-22 18:12:08.767,1357068223,194767,1,0.83398,-0.20093,0.45874,-2.053,0.557,-0.588
2026-05-22 18:12:08.767,1357068223,194767,2,0.96143,-0.03564,0.28613,-1.237,0.603,0.695
2026-05-22 18:12:08.967,1357068423,194967,1,0.83862,-0.19727,0.46655,-2.168,0.176,0.038
2026-05-22 18:12:08.967,1357068423,194967,2,0.96094,-0.03125,0.28247,-0.298,1.183,1.046
2026-05-22 18:12:09.167,1357068623,195167,1,0.83691,-0.20337,0.46216,-1.817,0.466,0.435
2026-05-22 18:12:09.167,1357068623,195167,2,0.96191,-0.03394,0.27808,-0.366,1.321,1.26
2026-05-22 18:12:09.367,1357068823,195367,1,0.82544,-0.20239,0.46021,-2.061,0.252,0.595
2026-05-22 18:12:09.367,1357068823,195367,2,0.9624,-0.03711,0.28198,-2.489,1.137,1.672
2026-05-22 18:12:09.567,1357069023,195567,1,0.84448,-0.20728,0.46509,1.267,-0.832,1.031
2026-05-22 18:12:09.567,1357069023,195567,2,0.9585,-0.02466,0.28101,1.344,0.466,-0.16
2026-05-22 18:12:09.767,1357069223,195767,1,0.82617,-0.2146,0.46753,-2.298,0.763,0.191
2026-05-22 18:12:09.767,1357069223,195767,2,0.97144,-0.02197,0.28052,-4.542,0.786,3.908
2026-05-22 18:12:09.967,1357069423,195967,1,0.83398,-0.20532,0.46021,-1.649,1.618,1.664
2026-05-22 18:12:09.967,1357069423,195967,2,0.95703,-0.03711,0.27612,0.328,1.893,1.45
2026-05-22 18:12:10.167,1357069623,196167,1,0.82397,-0.21631,0.46582,-1.29,0.695,1.107
2026-05-22 18:12:10.167,1357069623,196167,2,0.9585,-0.03271,0.29419,-2.908,1.26,1.863
2026-05-22 18:12:10.367,1357069823,196367,1,0.81494,-0.21606,0.46606,-1.0,0.916,-0.267
2026-05-22 18:12:10.367,1357069823,196367,2,0.96411,-0.03442,0.28467,0.328,1.099,0.939
2026-05-22 18:12:10.567,1357070023,196567,1,0.8208,-0.2063,0.45776,-1.26,-0.153,-0.107
2026-05-22 18:12:10.567,1357070023,196567,2,0.95557,-0.0354,0.2793,0.107,0.84,0.756
2026-05-22 18:12:10.767,1357070223,196767,1,0.81714,-0.20654,0.45972,-1.931,0.954,0.321
2026-05-22 18:12:10.767,1357070223,196767,2,0.95776,-0.03125,0.2876,-1.038,1.351,1.412
2026-05-22 18:12:10.967,1357070423,196967,1,0.8208,-0.20142,0.46973,-1.985,-0.107,-0.053
2026-05-22 18:12:10.967,1357070423,196967,2,0.95703,-0.03442,0.28711,-0.588,0.954,1.214
2026-05-22 18:12:11.167,1357070623,197167,1,0.82324,-0.21338,0.4646,-1.053,1.115,-1.29
2026-05-22 18:12:11.167,1357070623,197167,2,0.95679,-0.03223,0.28369,-3.008,0.74,1.221
2026-05-22 18:12:13.992,1357073448,199992,1,0.81836,-0.21704,0.4729,-1.519,2.183,1.275
2026-05-22 18:12:13.992,1357073448,199992,2,0.96191,-0.03833,0.29028,0.496,1.359,0.74
2026-05-22 18:12:14.192,1357073648,200192,1,0.81982,-0.2085,0.47998,-1.802,-0.13,-0.817
2026-05-22 18:12:14.192,1357073648,200192,2,0.95435,-0.03369,0.28857,-0.947,0.458,0.405
2026-05-22 18:12:14.392,1357073848,200392,1,0.82056,-0.1936,0.47827,-1.611,-0.13,-1.939
2026-05-22 18:12:14.392,1357073848,200392,2,0.95972,-0.03149,0.27466,-3.275,0.435,1.55
2026-05-22 18:12:14.592,1357074048,200592,1,0.82056,-0.19531,0.47632,-1.489,0.466,0.214
2026-05-22 18:12:14.592,1357074048,200592,2,0.96533,-0.02734,0.26782,0.771,0.687,0.748
2026-05-22 18:12:14.792,1357074248,200792,1,0.82568,-0.19849,0.46069,-2.725,0.779,1.0
2026-05-22 18:12:14.792,1357074248,200792,2,0.96191,-0.03052,0.28149,-1.489,1.702,2.832
2026-05-22 18:12:14.992,1357074448,200992,1,0.82056,-0.21338,0.47827,-0.191,0.275,-0.55
2026-05-22 18:12:14.992,1357074448,200992,2,0.96045,-0.0271,0.27661,-2.748,0.824,1.046
2026-05-22 18:12:15.232,1357074688,201232,1,0.82153,-0.19775,0.46875,-2.458,1.229,-1.275
2026-05-22 18:12:15.232,1357074688,201232,2,0.95801,-0.04126,0.28638,-0.847,1.252,0.672
2026-05-22 18:12:15.432,1357074888,201432,1,0.82813,-0.1875,0.47485,-2.084,0.534,-0.985
2026-05-22 18:12:15.432,1357074888,201432,2,0.96191,-0.02856,0.28784,-0.771,2.26,1.634
2026-05-22 18:12:15.632,1357075088,201632,1,0.81665,-0.20508,0.47485,-0.962,1.115,-0.481
2026-05-22 18:12:15.632,1357075088,201632,2,0.96191,-0.03003,0.28247,-0.519,1.26,0.893
2026-05-22 18:12:15.832,1357075288,201832,1,0.82422,-0.19263,0.47632,-2.695,0.557,-0.344
2026-05-22 18:12:15.832,1357075288,201832,2,0.95898,-0.02271,0.27588,1.191,1.031,0.099
2026-05-22 18:12:16.032,1357075488,202032,1,0.81982,-0.19189,0.47534,-2.183,-0.366,-0.244
2026-05-22 18:12:16.032,1357075488,202032,2,0.96045,-0.02759,0.28784,-2.366,1.267,2.473
2026-05-22 18:12:16.232,1357075688,202232,1,0.82251,-0.20898,0.48071,-1.695,-0.45,-0.519
2026-05-22 18:12:16.232,1357075688,202232,2,0.96436,-0.0271,0.27832,-2.328,1.13,1.962
2026-05-22 18:12:16.432,1357075888,202432,1,0.82202,-0.1936,0.47388,-1.397,0.092,0.748
2026-05-22 18:12:16.432,1357075888,202432,2,0.95776,-0.02075,0.28882,-0.26,1.328,1.58
2026-05-22 18:12:16.632,1357076088,202632,1,0.82251,-0.2063,0.47876,-2.641,0.473,0.611
2026-05-22 18:12:16.632,1357076088,202632,2,0.95874,-0.03662,0.28809,-1.656,1.557,1.595
2026-05-22 18:12:16.832,1357076288,202832,1,0.81812,-0.20215,0.47461,-2.481,-0.481,-1.412
2026-05-22 18:12:16.832,1357076288,202832,2,0.96484,-0.03979,0.28809,-4.176,0.58,1.557
2026-05-22 18:12:17.116,1357076572,203116,1,0.82202,-0.18701,0.48193,-2.176,0.275,0.092
2026-05-22 18:12:17.116,1357076572,203116,2,0.96216,-0.03052,0.27417,-6.16,1.427,3.008
2026-05-22 18:12:17.316,1357076772,203316,1,0.82471,-0.20776,0.48364,-3.359,-0.275,-0.786
2026-05-22 18:12:17.316,1357076772,203316,2,0.96216,-0.02905,0.28979,-3.817,0.885,2.061
2026-05-22 18:12:17.516,1357076972,203516,1,0.82715,-0.19849,0.48022,-0.527,0.122,0.664
2026-05-22 18:12:17.516,1357076972,203516,2,0.96216,-0.02905,0.27808,-1.412,0.832,1.191
2026-05-22 18:12:17.716,1357077172,203716,1,0.823,-0.19385,0.47046,-3.397,0.275,-0.588
2026-05-22 18:12:17.716,1357077172,203716,2,0.96265,-0.03955,0.27246,-2.71,1.542,1.916
2026-05-22 18:12:17.916,1357077372,203916,1,0.82251,-0.198,0.46777,-2.809,0.725,0.656
2026-05-22 18:12:17.916,1357077372,203916,2,0.95923,-0.03101,0.27295,-5.656,1.908,2.145
2026-05-22 18:12:18.116,1357077572,204116,1,0.81714,-0.20459,0.47778,-2.573,-0.107,-0.511
2026-05-22 18:12:18.116,1357077572,204116,2,0.96045,-0.03931,0.28369,-0.786,0.702,0.878
2026-05-22 18:12:18.316,1357077772,204316,1,0.81836,-0.19629,0.47046,-2.634,0.305,-0.443
2026-05-22 18:12:18.316,1357077772,204316,2,0.96045,-0.03198,0.28198,-0.405,0.817,0.87
2026-05-22 18:12:18.516,1357077972,204516,1,0.82104,-0.19678,0.47437,-1.626,0.344,0.542
2026-05-22 18:12:18.516,1357077972,204516,2,0.96191,-0.02563,0.27344,-1.084,1.649,1.702
2026-05-22 18:12:18.716,1357078172,204716,1,0.81372,-0.20874,0.47095,-2.305,0.214,-0.443
2026-05-22 18:12:18.716,1357078172,204716,2,0.95874,-0.03149,0.29004,-1.382,1.504,0.84
2026-05-22 18:12:18.916,1357078372,204916,1,0.80566,-0.21289,0.49097,-1.71,0.763,0.748
2026-05-22 18:12:18.916,1357078372,204916,2,0.96387,-0.02344,0.27905,5.397,1.466,-0.595
2026-05-22 18:12:19.116,1357078572,205116,1,0.81787,-0.20264,0.48047,-2.237,-0.092,-0.031
2026-05-22 18:12:19.116,1357078572,205116,2,0.96094,-0.03979,0.28857,1.458,1.374,0.779
2026-05-22 18:12:19.316,1357078772,205316,1,0.82397,-0.19629,0.46997,-2.191,-0.145,-0.427
2026-05-22 18:12:19.316,1357078772,205316,2,0.96021,-0.03491,0.28809,-0.55,0.969,0.901
2026-05-22 18:12:19.516,1357078972,205516,1,0.82251,-0.18677,0.47485,-0.359,0.267,0.237
2026-05-22 18:12:19.516,1357078972,205516,2,0.96094,-0.02466,0.27759,-5.779,0.718,3.359
2026-05-22 18:12:19.716,1357079172,205716,1,0.81787,-0.20898,0.47485,-1.679,0.168,0.473
2026-05-22 18:12:19.716,1357079172,205716,2,0.9624,-0.02954,0.27661,-4.618,0.931,2.084
2026-05-22 18:12:19.916,1357079372,205916,1,0.81714,-0.1958,0.4751,-2.038,0.229,-0.13
2026-05-22 18:12:19.916,1357079372,205916,2,0.9624,-0.02856,0.27246,-2.038,0.687,1.542
2026-05-22 18:12:20.116,1357079572,206116,1,0.81812,-0.20459,0.47363,-1.939,0.794,-0.443
2026-05-22 18:12:20.116,1357079572,206116,2,0.95361,-0.03149,0.2832,0.023,1.061,0.573
2026-05-22 18:12:20.316,1357079772,206316,1,0.81738,-0.19653,0.48291,-1.74,0.786,-0.458
2026-05-22 18:12:20.316,1357079772,206316,2,0.96704,-0.02759,0.27881,-0.466,0.924,1.336
2026-05-22 18:12:20.516,1357079972,206516,1,0.81641,-0.2002,0.48511,-1.702,0.481,0.061
2026-05-22 18:12:20.516,1357079972,206516,2,0.96313,-0.03394,0.27856,-0.779,0.763,1.092
2026-05-22 18:12:20.716,1357080172,206716,1,0.81812,-0.19336,0.48462,-2.26,0.153,-0.153
2026-05-22 18:12:20.716,1357080172,206716,2,0.88477,-0.02319,0.73438,28.427,48.74,-4.573
2026-05-22 18:12:23.340,1357082796,209340,1,0.44092,-0.31787,0.71997,50.412,12.802,22.664
2026-05-22 18:12:23.340,1357082796,209340,2,0.83081,0.02954,0.84546,10.794,48.947,-0.168
2026-05-22 18:12:23.540,1357082996,209540,1,0.39502,-0.1582,0.82764,0.496,19.756,0.824
2026-05-22 18:12:23.540,1357082996,209540,2,0.81665,-0.05933,0.88086,-11.649,1.008,10.122
2026-05-22 18:12:23.740,1357083196,209740,1,0.45679,-0.2395,0.74292,-4.038,-0.099,2.107
2026-05-22 18:12:23.740,1357083196,209740,2,0.83325,-0.10034,0.86328,7.13,-13.183,9.496
2026-05-22 18:12:23.940,1357083396,209940,1,0.49731,-0.31445,0.71045,-14.557,-5.542,-4.107
2026-05-22 18:12:23.940,1357083396,209940,2,0.90161,-0.15063,0.75854,-5.275,-16.183,4.954
2026-05-22 18:12:24.140,1357083596,210140,1,0.48779,-0.30493,0.71338,-16.656,0.321,-7.443
2026-05-22 18:12:24.140,1357083596,210140,2,0.90747,-0.16724,0.71997,-7.885,-20.115,1.405
2026-05-22 18:12:24.340,1357083796,210340,1,0.53174,-0.29565,0.67554,-9.901,-13.069,-16.008
2026-05-22 18:12:24.340,1357083796,210340,2,0.93213,-0.13745,0.62964,-6.74,-25.076,-5.191
2026-05-22 18:12:24.540,1357083996,210540,1,0.59668,-0.29248,0.62671,-15.382,-14.473,-18.031
2026-05-22 18:12:24.540,1357083996,210540,2,0.96655,-0.14038,0.47583,-23.115,-19.481,-0.298
2026-05-22 18:12:24.740,1357084196,210740,1,0.66919,-0.29468,0.57544,-15.16,-11.534,-20.893
2026-05-22 18:12:24.740,1357084196,210740,2,0.96191,-0.13281,0.42285,-22.718,-18.221,-0.55
2026-05-22 18:12:24.940,1357084396,210940,1,0.73267,-0.27905,0.54175,-5.366,-5.107,-13.702
2026-05-22 18:12:24.940,1357084396,210940,2,0.97949,-0.12939,0.38501,-6.008,-9.725,-3.397
2026-05-22 18:12:25.140,1357084596,211140,1,0.72437,-0.26416,0.54639,,-0.115,-7.771
2026-05-22 18:12:25.140,1357084596,211140,2,0.96313,-0.12109,0.3728,-2.87,-2.771,-0.611
2026-05-22 18:12:25.340,1357084796,211340,1,0.73828,-0.21851,0.53564,3.0,-1.924,-1.779
2026-05-22 18:12:25.340,1357084796,211340,2,0.97046,-0.10522,0.34375,-1.679,-0.366,2.122
2026-05-22 18:12:25.540,1357084996,211540,1,0.73291,-0.25073,0.55151,-10.481,0.595,-2.366
2026-05-22 18:12:25.540,1357084996,211540,2,0.96191,-0.11572,0.35059,-9.42,-0.641,6.664
2026-05-22 18:12:25.740,1357085196,211740,1,0.73706,-0.25684,0.5459,0.076,0.107,-0.55
2026-05-22 18:12:25.740,1357085196,211740,2,0.9541,-0.12305,0.34009,0.473,-0.168,0.649
2026-05-22 18:12:25.940,1357085396,211940,1,0.74341,-0.24487,0.54419,-1.947,-0.534,0.931
2026-05-22 18:12:25.940,1357085396,211940,2,0.96216,-0.11987,0.3501,-1.305,0.473,1.748
2026-05-22 18:12:26.140,1357085596,212140,1,0.73853,-0.25366,0.54688,-2.389,0.45,0.099
2026-05-22 18:12:26.140,1357085596,212140,2,0.96094,-0.12305,0.34863,-1.733,1.122,2.107
2026-05-22 18:12:26.340,1357085796,212340,1,0.73682,-0.25928,0.53882,-1.969,0.779,0.305
2026-05-22 18:12:26.340,1357085796,212340,2,0.96533,-0.12695,0.34058,-1.099,1.366,1.519
2026-05-22 18:12:29.435,1357088891,215435,1,0.71973,-0.28589,0.54053,-5.916,1.214,-4.107
2026-05-22 18:12:29.435,1357088891,215435,2,0.96167,-0.14014,0.36768,-12.634,1.282,4.359
2026-05-22 18:12:29.635,1357089091,215635,1,0.7312,-0.26587,0.55469,3.061,1.664,-0.298
2026-05-22 18:12:29.635,1357089091,215635,2,0.95508,-0.11035,0.35693,2.313,1.458,-2.519
2026-05-22 18:12:29.835,1357089291,215835,1,0.7312,-0.2771,0.53979,-4.718,1.008,-2.405
2026-05-22 18:12:29.835,1357089291,215835,2,0.95288,-0.13208,0.36377,-2.656,1.458,2.878
2026-05-22 18:12:30.035,1357089491,216035,1,0.73047,-0.29272,0.57056,-6.924,3.481,-0.053
2026-05-22 18:12:30.035,1357089491,216035,2,0.96069,-0.1897,0.38574,-3.802,-3.267,-5.13
2026-05-22 18:12:30.235,1357089691,216235,1,0.73779,-0.24878,0.54004,-3.718,-1.427,-3.588
2026-05-22 18:12:30.235,1357089691,216235,2,0.96558,-0.14185,0.35693,-6.359,-0.725,4.511
2026-05-22 18:12:30.435,1357089891,216435,1,0.75317,-0.2832,0.5271,-11.786,-0.977,2.191
2026-05-22 18:12:30.435,1357089891,216435,2,0.95752,-0.15015,0.33887,-2.985,1.061,0.275
2026-05-22 18:12:30.635,1357090091,216635,1,0.73755,-0.29932,0.53711,3.595,-1.672,0.405
2026-05-22 18:12:30.635,1357090091,216635,2,0.92603,-0.09473,0.34204,-10.55,-1.718,2.137
2026-05-22 18:12:30.835,1357090291,216835,1,0.73584,-0.27148,0.54004,-3.061,0.122,-3.229
2026-05-22 18:12:30.835,1357090291,216835,2,0.95728,-0.12524,0.34375,-8.87,-0.74,3.618
2026-05-22 18:12:31.035,1357090491,217035,1,0.74512,-0.24365,0.48706,-6.863,-0.122,-0.466
2026-05-22 18:12:31.035,1357090491,217035,2,0.96606,-0.11353,0.30225,-7.84,-1.351,4.427
2026-05-22 18:12:31.235,1357090691,217235,1,0.72241,-0.28442,0.53174,5.687,0.519,-0.626
2026-05-22 18:12:31.235,1357090691,217235,2,0.96338,-0.09253,0.34106,1.656,0.321,-1.282
2026-05-22 18:12:31.435,1357090891,217435,1,0.73608,-0.25439,0.53125,-3.107,1.214,-2.573
2026-05-22 18:12:31.435,1357090891,217435,2,0.92456,-0.09155,0.34497,-1.481,0.275,0.878
2026-05-22 18:12:31.635,1357091091,217635,1,0.74268,-0.30542,0.53784,1.176,0.588,-0.664
2026-05-22 18:12:31.635,1357091091,217635,2,0.95288,-0.09375,0.35083,12.069,1.656,-5.985
2026-05-22 18:12:31.835,1357091291,217835,1,0.73779,-0.27881,0.53467,-3.977,-1.351,-3.282
2026-05-22 18:12:31.835,1357091291,217835,2,0.95435,-0.11548,0.35229,-0.13,1.382,-0.298
2026-05-22 18:12:32.035,1357091491,218035,1,0.75244,-0.35449,0.55957,-4.763,-1.45,1.267
2026-05-22 18:12:32.035,1357091491,218035,2,0.93604,-0.15137,0.35718,-4.481,2.359,0.015
2026-05-22 18:12:32.280,1357091736,218280,1,0.74219,-0.27319,0.52979,-4.122,-2.863,-3.328
2026-05-22 18:12:32.280,1357091736,218280,2,0.95801,-0.10669,0.35791,1.702,2.397,1.924
2026-05-22 18:12:32.597,1357092053,218597,1,0.74463,-0.27563,0.51709,4.588,-2.359,-0.947
2026-05-22 18:12:32.597,1357092053,218597,2,0.95728,-0.08887,0.35156,1.786,2.664,0.542
2026-05-22 18:12:32.797,1357092253,218797,1,0.73511,-0.26538,0.52661,-4.282,2.076,-2.382
2026-05-22 18:12:32.797,1357092253,218797,2,0.96094,-0.12061,0.32886,2.802,3.817,-0.412
2026-05-22 18:12:32.997,1357092453,218997,1,0.74609,-0.31738,0.5625,-0.389,-0.969,-0.748
2026-05-22 18:12:32.997,1357092453,218997,2,0.95825,-0.10669,0.36157,-2.748,-1.45,-3.504
2026-05-22 18:12:33.197,1357092653,219197,1,0.73486,-0.25,0.52515,2.817,-4.321,-10.87
2026-05-22 18:12:33.197,1357092653,219197,2,0.94849,-0.11108,0.32886,-7.847,-1.908,0.015
2026-05-22 18:12:33.397,1357092853,219397,1,0.74927,-0.21338,0.5603,-8.824,2.115,-11.809
2026-05-22 18:12:33.397,1357092853,219397,2,0.96094,-0.09473,0.32935,-23.649,-2.702,4.931
2026-05-22 18:12:33.597,1357093053,219597,1,0.78369,-0.16846,0.52637,12.229,-15.015,-15.519
2026-05-22 18:12:33.597,1357093053,219597,2,0.96924,-0.05737,0.29663,-5.42,-5.634,-8.008
2026-05-22 18:12:33.797,1357093253,219797,1,0.82764,-0.05225,0.48389,-0.924,-6.718,-12.221
2026-05-22 18:12:33.797,1357093253,219797,2,0.97607,-0.02856,0.2666,-7.053,-2.687,-1.13
2026-05-22 18:12:33.997,1357093453,219997,1,0.83105,-0.05396,0.4751,-3.191,-1.328,-7.992
2026-05-22 18:12:33.997,1357093453,219997,2,0.95801,-0.00977,0.31396,1.107,1.855,-9.145
2026-05-22 18:12:34.281,1357093737,220281,1,0.83472,-0.02124,0.46606,18.107,3.282,-5.954
2026-05-22 18:12:34.281,1357093737,220281,2,0.96631,0.04785,0.31055,15.725,6.542,-16.16
2026-05-22 18:12:34.481,1357093937,220481,1,0.81055,0.04443,0.50513,0.939,2.252,-6.695
2026-05-22 18:12:34.481,1357093937,220481,2,0.96436,0.05835,0.31006,-5.511,0.618,
2026-05-22 18:12:34.681,1357094137,220681,1,0.8125,0.0293,0.51758,-3.183,-1.992,-4.115
2026-05-22 18:12:34.681,1357094137,220681,2,0.96729,0.04639,0.29761,-3.191,-3.412,0.084
2026-05-22 18:12:34.881,1357094337,220881,1,0.81128,0.06323,0.47241,3.687,-3.687,-3.832
2026-05-22 18:12:34.881,1357094337,220881,2,0.96826,0.07715,0.26367,-1.71,-6.176,4.649
2026-05-22 18:12:35.081,1357094537,221081,1,0.8418,0.06958,0.47388,-1.878,-8.359,-0.855
2026-05-22 18:12:35.081,1357094537,221081,2,0.94653,0.06885,0.24097,-0.092,-9.519,3.496
2026-05-22 18:12:35.281,1357094737,221281,1,0.88086,0.08716,0.41455,-10.107,-2.176,-0.344
2026-05-22 18:12:35.281,1357094737,221281,2,0.9624,0.0752,0.19434,2.038,1.305,13.176
2026-05-22 18:12:35.481,1357094937,221481,1,0.8418,0.00537,0.48145,-18.115,-0.115,-5.74
2026-05-22 18:12:35.481,1357094937,221481,2,0.94019,-0.02563,0.20898,-0.695,-0.71,2.733
2026-05-22 18:12:35.681,1357095137,221681,1,0.84106,0.06079,0.45386,-4.473,2.802,-4.053
2026-05-22 18:12:35.681,1357095137,221681,2,0.95313,0.04565,0.21338,-7.817,1.542,2.908
2026-05-22 18:12:35.881,1357095337,221881,1,0.85376,0.04858,0.45898,3.603,7.229,-2.351
2026-05-22 18:12:35.881,1357095337,221881,2,0.95337,0.02319,0.25586,0.603,7.16,-2.634
2026-05-22 18:12:36.120,1357095576,222120,1,0.82153,0.0647,0.48926,-3.374,7.542,-4.313
2026-05-22 18:12:36.120,1357095576,222120,2,0.95313,0.06348,0.2561,0.183,5.748,-2.328
2026-05-22 18:12:36.320,1357095776,222320,1,0.79712,0.05981,0.52832,10.679,-0.137,-6.214
2026-05-22 18:12:36.320,1357095776,222320,2,0.94531,0.07788,0.27588,9.359,-4.168,-10.939
2026-05-22 18:12:36.520,1357095976,222520,1,0.79297,0.12622,0.49731,-2.458,-2.038,-5.206
2026-05-22 18:12:36.520,1357095976,222520,2,0.95386,0.07227,0.24072,-6.153,-4.153,0.321
2026-05-22 18:12:36.720,1357096176,222720,1,0.84082,0.13037,0.44727,27.008,2.664,-3.267
2026-05-22 18:12:36.720,1357096176,222720,2,0.92725,0.09937,0.19019,3.084,-8.046,-5.763
2026-05-22 18:12:36.920,1357096376,222920,1,0.84888,0.20728,0.4187,-6.45,-11.435,-8.954
2026-05-22 18:12:36.920,1357096376,222920,2,0.95874,0.10181,0.17993,-12.122,-4.511,0.977
2026-05-22 18:12:37.120,1357096576,223120,1,0.83325,0.26172,0.40332,2.443,-8.069,-1.382
2026-05-22 18:12:37.120,1357096576,223120,2,0.9248,0.15625,0.15088,1.084,-5.107,-0.099
2026-05-22 18:12:37.320,1357096776,223320,1,0.8728,0.25415,0.36426,-19.481,-9.771,-1.344
2026-05-22 18:12:37.320,1357096776,223320,2,0.92017,0.09399,0.14746,-25.618,-0.687,15.542
2026-05-22 18:12:37.520,1357096976,223520,1,0.8938,0.22119,0.3689,-6.145,-5.695,6.466
2026-05-22 18:12:37.520,1357096976,223520,2,0.91895,0.09863,0.12061,-9.557,-0.229,4.618
2026-05-22 18:12:37.720,1357097176,223720,1,0.87183,0.21289,0.37329,-4.412,-0.099,8.16
2026-05-22 18:12:37.720,1357097176,223720,2,0.93359,0.10596,0.13281,-4.023,0.42,4.298
2026-05-22 18:12:37.933,1357097389,223933,1,0.89063,0.23096,0.30933,-1.305,-10.641,7.504
2026-05-22 18:12:37.933,1357097389,223933,2,0.87891,0.07715,0.17651,9.847,8.397,-4.115
2026-05-22 18:12:38.133,1357097589,224133,1,0.87793,0.14917,0.37793,-2.321,0.122,5.771
2026-05-22 18:12:38.133,1357097589,224133,2,0.92139,0.08887,0.11694,3.069,-1.618,3.771
2026-05-22 18:12:38.333,1357097789,224333,1,0.91895,0.13965,0.35132,-1.878,0.634,0.916
2026-05-22 18:12:38.333,1357097789,224333,2,0.91992,0.04712,0.10889,6.847,6.107,-1.214
2026-05-22 18:12:38.533,1357097989,224533,1,0.93433,0.15967,0.35474,-9.595,1.527,6.13
2026-05-22 18:12:38.533,1357097989,224533,2,0.92407,0.08008,0.13892,-0.366,9.435,5.588
2026-05-22 18:12:38.733,1357098189,224733,1,0.90308,0.08032,0.39087,-10.511,5.412,-3.16
2026-05-22 18:12:38.733,1357098189,224733,2,0.93311,0.02368,0.20264,0.992,10.603,0.076
2026-05-22 18:12:38.972,1357098428,224972,1,0.86108,0.09546,0.44653,-2.702,5.099,5.092
2026-05-22 18:12:38.972,1357098428,224972,2,0.9436,0.04761,0.23291,-9.053,5.878,3.412
2026-05-22 18:12:39.172,1357098628,225172,1,0.86084,0.08765,0.44995,-2.656,3.618,-2.672
2026-05-22 18:12:39.172,1357098628,225172,2,0.95264,0.04541,0.22559,-4.023,5.519,0.328
2026-05-22 18:12:39.372,1357098828,225372,1,0.85205,0.11426,0.45264,-0.687,3.069,-1.397
2026-05-22 18:12:39.372,1357098828,225372,2,0.95435,0.06763,0.23291,-0.588,3.137,-0.13
2026-05-22 18:12:39.572,1357099028,225572,1,0.84888,0.04834,0.47412,-9.977,-0.634,-3.748
2026-05-22 18:12:39.572,1357099028,225572,2,0.94238,0.0354,0.24561,-7.969,0.802,-0.496
2026-05-22 18:12:39.772,1357099228,225772,1,0.84692,0.10059,0.46558,-0.16,-1.137,-3.496
2026-05-22 18:12:39.772,1357099228,225772,2,0.95459,0.09399,0.24243,7.557,-0.244,-2.328
2026-05-22 18:12:39.972,1357099428,225972,1,0.84546,0.14893,0.45557,-6.26,1.557,-4.763
2026-05-22 18:12:39.972,1357099428,225972,2,0.96338,0.07129,0.2229,-16.137,0.954,12.038
2026-05-22 18:12:40.172,1357099628,226172,1,0.86499,0.08325,0.43872,-13.916,-3.374,4.664
2026-05-22 18:12:40.172,1357099628,226172,2,0.95703,0.04492,0.22729,-1.695,4.412,1.672
2026-05-22 18:12:40.372,1357099828,226372,1,0.8457,0.09961,0.46191,0.328,0.817,-1.626
2026-05-22 18:12:40.372,1357099828,226372,2,0.94287,0.07153,0.2561,-3.351,2.374,2.748
2026-05-22 18:12:40.572,1357100028,226572,1,0.85254,0.07397,0.46655,-6.405,1.031,-0.901
2026-05-22 18:12:40.572,1357100028,226572,2,0.95508,0.03369,0.27222,0.198,2.29,1.137
2026-05-22 18:12:40.772,1357100228,226772,1,0.854,0.09326,0.46387,0.603,4.26,0.344
2026-05-22 18:12:40.772,1357100228,226772,2,0.95776,0.07568,0.26001,-5.008,2.145,-0.031
2026-05-22 18:12:40.972,1357100428,226972,1,0.84912,0.07056,0.46826,-4.351,2.0,-1.832
2026-05-22 18:12:40.972,1357100428,226972,2,0.94678,0.052,0.27246,-8.634,2.489,2.817
2026-05-22 18:12:41.172,1357100628,227172,1,0.83936,0.07642,0.4729,-1.237,1.969,1.183
2026-05-22 18:12:41.172,1357100628,227172,2,0.95752,0.08667,0.25977,-5.779,0.672,2.679
2026-05-22 18:12:41.372,1357100828,227372,1,0.83105,0.05249,0.48633,-2.206,0.412,0.374
2026-05-22 18:12:41.372,1357100828,227372,2,0.96045,0.0354,0.27344,-3.931,0.87,1.313
2026-05-22 18:12:41.572,1357101028,227572,1,0.83691,0.09424,0.479,-2.107,-0.336,0.023
2026-05-22 18:12:41.572,1357101028,227572,2,0.95728,0.0625,0.25293,-3.122,0.489,2.656
2026-05-22 18:12:41.772,1357101228,227772,1,0.84961,0.08496,0.47412,-6.443,0.87,-1.16
2026-05-22 18:12:41.772,1357101228,227772,2,0.95654,0.05127,0.26904,-6.374,1.366,5.275
2026-05-22 18:12:41.972,1357101428,227972,1,0.85254,0.10352,0.47607,-4.855,2.992,2.115
2026-05-22 18:12:41.972,1357101428,227972,2,0.96509,0.09131,0.25195,-3.237,2.817,4.176
2026-05-22 18:12:42.172,1357101628,228172,1,0.82422,0.09033,0.49023,-4.794,2.328,0.237
2026-05-22 18:12:42.172,1357101628,228172,2,0.95313,0.04639,0.28442,-8.069,4.481,6.588
2026-05-22 18:12:42.372,1357101828,228372,1,0.82227,0.0459,0.50952,-6.267,-2.168,7.153
2026-05-22 18:12:42.372,1357101828,228372,2,0.97314,0.08325,0.27246,-0.298,0.794,3.351
2026-05-22 18:12:42.572,1357102028,228572,1,0.85254,0.04321,0.45728,-4.389,-2.275,-0.191
2026-05-22 18:12:42.572,1357102028,228572,2,0.95947,0.07202,0.26904,1.229,-0.55,4.55
2026-05-22 18:12:42.772,1357102228,228772,1,0.85498,0.01294,0.46826,-2.855,-0.282,4.908
2026-05-22 18:12:42.772,1357102228,228772,2,0.96533,0.04321,0.26904,6.061,1.565,0.061
2026-05-22 18:12:42.972,1357102428,228972,1,0.83838,0.01099,0.47754,-1.389,-0.45,4.534
2026-05-22 18:12:42.972,1357102428,228972,2,0.96387,0.04297,0.2832,1.366,1.832,4.229
2026-05-22 18:12:43.172,1357102628,229172,1,0.84204,-0.0249,0.47192,-2.763,-1.664,1.046
2026-05-22 18:12:43.172,1357102628,229172,2,0.97217,0.0188,0.28687,0.863,1.137,3.588
2026-05-22 18:12:43.372,1357102828,229372,1,0.84888,-0.00879,0.47827,-0.038,0.214,-0.786
2026-05-22 18:12:43.372,1357102828,229372,2,0.95874,0.00049,0.28613,-2.565,0.718,1.924
2026-05-22 18:12:43.572,1357103028,229572,1,0.84375,0.00659,0.47534,5.13,-2.031,-0.504
2026-05-22 18:12:43.572,1357103028,229572,2,0.9624,0.02832,0.2688,-0.931,-1.595,0.366
2026-05-22 18:12:43.772,1357103228,229772,1,0.85742,0.01416,0.46606,-2.084,-0.794,-1.321
2026-05-22 18:12:43.772,1357103228,229772,2,0.96045,0.01709,0.27319,-2.298,-0.214,1.87
2026-05-22 18:12:43.972,1357103428,229972,1,0.86279,0.00317,0.46631,1.092,-1.588,0.122
2026-05-22 18:12:43.972,1357103428,229972,2,0.95557,0.02173,0.26343,0.504,-0.977,-0.664
2026-05-22 18:12:44.172,1357103628,230172,1,0.84839,0.00708,0.46289,5.427,0.473,-2.611
2026-05-22 18:12:44.172,1357103628,230172,2,0.9707,0.03394,0.26563,-2.687,-3.168,-3.137
2026-05-22 18:12:44.372,1357103828,230372,1,0.8623,0.08374,0.46289,19.885,8.977,-2.053
2026-05-22 18:12:44.372,1357103828,230372,2,0.95215,0.07788,0.25513,8.878,-4.344,-3.389
2026-05-22 18:12:44.572,1357104028,230572,1,0.76709,0.17603,0.43579,2.84,-0.504,14.656
2026-05-22 18:12:44.572,1357104028,230572,2,0.9834,0.09497,0.2229,11.351,-5.405,-1.275
2026-05-22 18:12:44.772,1357104228,230772,1,0.86011,0.08545,0.43335,-8.366,-1.412,6.87
2026-05-22 18:12:44.772,1357104228,230772,2,0.95923,0.04663,0.21729,-2.527,-0.221,7.443
2026-05-22 18:12:44.972,1357104428,230972,1,0.8689,0.04565,0.44312,-4.802,0.626,4.366
2026-05-22 18:12:44.972,1357104428,230972,2,0.94653,0.05127,0.20996,0.053,0.924,3.183
2026-05-22 18:12:45.172,1357104628,231172,1,0.86304,0.04004,0.43091,-3.527,0.794,-0.237
2026-05-22 18:12:45.172,1357104628,231172,2,0.95679,0.03711,0.22266,-0.832,1.16,1.26
2026-05-22 18:12:45.372,1357104828,231372,1,0.86621,0.05249,0.45044,-2.168,0.802,-1.176
2026-05-22 18:12:45.372,1357104828,231372,2,0.95483,0.0481,0.21167,-0.817,1.473,1.366
2026-05-22 18:12:48.159,1357107615,234159,1,0.8562,0.04102,0.45459,-1.74,-0.183,-2.267
2026-05-22 18:12:48.159,1357107615,234159,2,0.9458,0.01074,0.23047,-4.267,1.13,3.206
2026-05-22 18:12:48.359,1357107815,234359,1,0.89282,0.04077,0.43164,4.649,-21.305,4.679
2026-05-22 18:12:48.359,1357107815,234359,2,0.91992,0.01709,0.22949,-9.053,-7.779,-5.473
2026-05-22 18:12:48.559,1357108015,234559,1,0.91528,0.0564,0.34619,8.817,-14.099,3.26
2026-05-22 18:12:48.559,1357108015,234559,2,0.95215,0.06494,0.24609,-2.939,5.313,-2.137
2026-05-22 18:12:48.759,1357108215,234759,1,0.91309,0.052,0.37134,-4.611,4.29,-2.061
2026-05-22 18:12:48.759,1357108215,234759,2,0.94653,0.05688,0.20483,-1.023,2.298,-0.985
2026-05-22 18:12:48.959,1357108415,234959,1,0.92651,0.0603,0.3501,-1.214,-1.71,-0.389
2026-05-22 18:12:48.959,1357108415,234959,2,0.94531,0.05298,0.20386,-1.374,-0.71,0.893
2026-05-22 18:12:49.159,1357108615,235159,1,0.92578,0.06445,0.35962,-1.122,0.863,-1.718
2026-05-22 18:12:49.159,1357108615,235159,2,0.94873,0.05688,0.20508,-1.099,0.046,0.489
2026-05-22 18:12:51.670,1357111126,237670,1,0.89917,0.15845,0.36475,3.565,1.641,5.511
2026-05-22 18:12:51.670,1357111126,237670,2,0.94531,0.11719,0.18115,5.725,-0.069,-0.802
2026-05-22 18:12:51.870,1357111326,237870,1,0.93115,0.13574,0.34058,2.939,-4.168,4.496
2026-05-22 18:12:51.870,1357111326,237870,2,0.93066,0.11206,0.17358,1.374,-2.847,-1.725
2026-05-22 18:12:52.070,1357111526,238070,1,0.93311,0.12964,0.31152,5.168,-5.092,2.733
2026-05-22 18:12:52.070,1357111526,238070,2,0.9209,0.14819,0.15869,11.481,-4.29,-8.916
2026-05-22 18:12:52.270,1357111726,238270,1,0.94385,0.13257,0.3042,-2.771,-6.42,-2.901
2026-05-22 18:12:52.270,1357111726,238270,2,0.93042,0.13818,0.1272,0.16,-4.603,-1.611
2026-05-22 18:12:52.470,1357111926,238470,1,0.96777,0.12549,0.28418,4.687,-9.71,-9.458
2026-05-22 18:12:52.470,1357111926,238470,2,0.88916,0.12793,0.13501,1.008,-1.695,-11.183
2026-05-22 18:12:52.670,1357112126,238670,1,0.94922,0.16479,0.28345,3.336,-2.435,8.672
2026-05-22 18:12:52.670,1357112126,238670,2,0.89014,0.18481,0.07471,24.305,-5.962,-12.153
2026-05-22 18:12:52.870,1357112326,238870,1,0.90234,0.19507,0.24683,4.084,-8.397,6.046
2026-05-22 18:12:52.870,1357112326,238870,2,0.86768,0.20459,0.05103,2.969,-14.015,-0.115
2026-05-22 18:12:53.070,1357112526,239070,1,0.98413,0.14673,0.19409,-15.473,-7.359,9.962
2026-05-22 18:12:53.070,1357112526,239070,2,0.86816,0.12573,-0.01147,-5.756,-5.359,14.496
2026-05-22 18:12:53.270,1357112726,239270,1,0.98926,0.05713,0.21436,-7.412,-3.71,7.679
2026-05-22 18:12:53.270,1357112726,239270,2,0.86377,0.09033,-0.00366,0.443,-7.87,8.771
2026-05-22 18:12:53.470,1357112926,239470,1,1.01758,0.07886,0.18164,11.519,-1.802,2.962
2026-05-22 18:12:53.470,1357112926,239470,2,0.85205,0.0979,-0.04907,6.969,-0.191,-0.389
2026-05-22 18:12:53.670,1357113126,239670,1,1.01123,0.11743,0.19482,5.626,-2.145,-6.26
2026-05-22 18:12:53.670,1357113126,239670,2,0.86475,0.08618,-0.03979,-1.809,0.275,1.023
2026-05-22 18:12:53.870,1357113326,239870,1,1.00708,0.13135,0.15527,0.183,-2.496,-2.031
2026-05-22 18:12:53.870,1357113326,239870,2,0.85376,0.10132,-0.04932,-1.71,-0.832,1.305
2026-05-22 18:12:54.070,1357113526,240070,1,1.00635,0.12866,0.15942,-2.817,-3.565,-2.328
2026-05-22 18:12:54.070,1357113526,240070,2,0.84717,0.104,-0.04517,-1.573,0.84,2.466
2026-05-22 18:12:54.270,1357113726,240270,1,1.01538,0.12866,0.15039,-5.16,-0.489,1.977
2026-05-22 18:12:54.270,1357113726,240270,2,0.85864,0.09033,-0.05371,0.969,1.664,1.481
2026-05-22 18:12:54.470,1357113926,240470,1,1.00757,0.13135,0.14673,,-0.344,-0.389
2026-05-22 18:12:54.470,1357113926,240470,2,0.84863,0.08472,-0.04565,-1.359,-1.122,1.595
2026-05-22 18:12:54.670,1357114126,240670,1,1.00854,0.12939,0.1521,0.542,-0.389,-1.71
2026-05-22 18:12:54.670,1357114126,240670,2,0.8501,0.09839,-0.04907,,0.718,2.649
2026-05-22 18:12:54.870,1357114326,240870,1,1.01294,0.14771,0.14282,-6.672,-2.832,-6.977
2026-05-22T18:12:57.076465,,,,,,,,,
2026-05-22 18:12:54.870,1357114326,240870,2,0.85791,0.07935,-0.06348,-11.824,-0.076,11.328
2026-05-22 18:12:57.871,1357117327,243871,1,0.93066,0.15503,0.31274,1.565,-0.634,0.519
2026-05-22 18:12:57.871,1357117327,243871,2,0.90649,0.14478,0.09033,1.878,-0.412,0.504
2026-05-22 18:12:58.071,1357117527,244071,1,0.93311,0.1543,0.32056,-2.695,-1.229,0.008
2026-05-22 18:12:58.071,1357117527,244071,2,0.89868,0.14722,0.0791,-0.366,-0.008,1.58
2026-05-22 18:12:58.271,1357117727,244271,1,0.93921,0.14844,0.30322,-2.588,-0.817,-1.107
2026-05-22 18:12:58.271,1357117727,244271,2,0.90308,0.13379,0.06689,1.779,0.924,-0.214
2026-05-22 18:12:58.471,1357117927,244471,1,0.93677,0.16284,0.30859,-3.74,-0.519,
2026-05-22 18:12:58.471,1357117927,244471,2,0.9104,0.14209,0.06006,-1.84,0.71,3.458
2026-05-22 18:12:58.671,1357118127,244671,1,0.9397,0.1499,0.3064,-1.702,0.16,0.542
2026-05-22 18:12:58.671,1357118127,244671,2,0.89746,0.13916,0.07739,-6.084,0.382,2.275
2026-05-22 18:12:58.963,1357118419,244963,1,0.94019,0.16919,0.29248,-3.527,-3.405,-3.519
2026-05-22 18:12:58.963,1357118419,244963,2,0.90479,0.12964,0.08472,-5.198,-1.74,2.718
2026-05-22 18:12:59.163,1357118619,245163,1,0.93701,0.16992,0.28149,-1.328,-0.962,-1.603
2026-05-22 18:12:59.163,1357118619,245163,2,0.89355,0.14966,0.052,2.481,-1.687,-2.962
2026-05-22 18:12:59.363,1357118819,245363,1,0.94775,0.20117,0.29272,2.176,-1.679,-2.893
2026-05-22 18:12:59.363,1357118819,245363,2,0.8916,0.15674,0.05664,1.137,-1.626,-2.664
2026-05-22 18:12:59.563,1357119019,245563,1,0.94336,0.19214,0.2832,-2.634,-0.817,-0.191
2026-05-22 18:12:59.563,1357119019,245563,2,0.8855,0.16895,0.0481,1.122,-1.58,1.504
2026-05-22 18:12:59.763,1357119219,245763,1,0.94897,0.19043,0.2644,-1.443,-4.206,-0.435
2026-05-22 18:12:59.763,1357119219,245763,2,0.8833,0.15991,0.04297,-0.977,0.489,2.267
2026-05-22 18:12:59.963,1357119419,245963,1,0.95386,0.18701,0.27222,-3.977,0.557,1.282
2026-05-22 18:12:59.963,1357119419,245963,2,0.88403,0.14966,0.04126,-0.588,1.053,1.847
2026-05-22 18:13:00.163,1357119619,246163,1,0.94897,0.19019,0.27173,-0.374,0.359,0.267
2026-05-22 18:13:00.163,1357119619,246163,2,0.88672,0.14893,0.02612,-1.183,0.237,0.504
2026-05-22 18:13:00.363,1357119819,246363,1,0.94556,0.19556,0.28345,2.641,-0.382,0.618
2026-05-22 18:13:00.363,1357119819,246363,2,0.87793,0.16211,0.0332,3.916,0.573,-2.076
2026-05-22 18:13:00.563,1357120019,246563,1,0.95898,0.20093,0.2688,-0.931,-1.229,0.229
2026-05-22 18:13:00.563,1357120019,246563,2,0.87842,0.17188,0.01587,1.153,0.656,2.183
2026-05-22 18:13:00.803,1357120259,246803,1,0.94531,0.21045,0.27026,0.168,0.87,-0.42
2026-05-22 18:13:00.803,1357120259,246803,2,0.88086,0.15479,0.04712,0.397,2.626,1.298
2026-05-22 18:13:00.003,1357119459,247003,1,0.95874,0.18579,0.27295,19.504,2.496,4.672
2026-05-22 18:13:00.003,1357119459,247003,2,0.89722,0.15137,0.02173,17.359,5.412,-17.855
2026-05-22 18:13:01.203,1357120659,247203,1,0.93408,0.23267,0.26831,14.977,-1.58,6.496
2026-05-22 18:13:01.203,1357120659,247203,2,0.89209,0.20581,0.01782,-18.168,-6.702,-5.496
2026-05-22 18:13:01.403,1357120859,247403,1,0.95605,0.22314,0.22119,4.565,-3.42,0.221
2026-05-22 18:13:01.403,1357120859,247403,2,0.86157,0.19214,0.01099,-3.992,-3.595,1.099
2026-05-22 18:13:01.603,1357121059,247603,1,0.9646,0.24854,0.20142,-0.298,-7.847,0.947
2026-05-22 18:13:01.603,1357121059,247603,2,0.83936,0.20117,-0.02051,1.542,-8.42,3.496
2026-05-22 18:13:01.803,1357121259,247803,1,0.97437,0.21924,0.16846,-2.13,-7.313,-0.229
2026-05-22 18:13:01.803,1357121259,247803,2,0.84546,0.18115,-0.03101,-0.656,-2.466,4.649
2026-05-22 18:13:01.003,1357120459,248003,1,0.99194,0.24585,0.14551,0.198,-1.13,-2.573
2026-05-22 18:13:01.003,1357120459,248003,2,0.85498,0.18555,-0.06641,-5.42,-2.802,4.565
2026-05-22 18:13:02.203,1357121659,248203,1,0.99878,0.23291,0.14697,-7.107,-4.824,-2.954
2026-05-22 18:13:02.203,1357121659,248203,2,0.83594,0.14624,-0.06079,-9.931,-1.939,6.305
2026-05-22 18:13:02.403,1357121859,248403,1,0.99756,0.22559,0.1355,-6.366,-2.458,-0.443
2026-05-22 18:13:02.403,1357121859,248403,2,0.83838,0.16455,-0.06934,-3.603,1.397,2.595
2026-05-22 18:13:02.603,1357122059,248603,1,0.99438,0.23608,0.13818,-1.58,2.137,0.664
2026-05-22 18:13:02.603,1357122059,248603,2,0.8252,0.18579,-0.07349,-1.672,2.458,3.756
2026-05-22 18:13:02.803,1357122259,248803,1,0.99463,0.33374,0.13037,-37.992,-21.718,5.542
2026-05-22 18:13:02.803,1357122259,248803,2,0.80737,0.19019,-0.09766,-30.0,-5.046,45.412
2026-05-22 18:13:02.003,1357121459,249003,1,1.05493,0.11279,0.07642,-68.985,-13.611,-9.046
2026-05-22 18:13:02.003,1357121459,249003,2,0.78735,0.06787,-0.06616,-62.458,22.687,35.649
2026-05-22 18:13:03.203,1357122659,249203,1,1.13843,0.04126,0.07324,-2.206,4.038,-19.748
2026-05-22 18:13:03.203,1357122659,249203,2,0.84814,-0.01465,-0.01587,16.824,1.221,-11.618
2026-05-22 18:13:03.403,1357122859,249403,1,1.03979,0.20801,0.08911,17.641,2.817,6.794
2026-05-22 18:13:03.403,1357122859,249403,2,0.85962,0.09741,-0.03491,16.84,0.672,-7.931
2026-05-22 18:13:03.603,1357123059,249603,1,1.02026,0.15796,0.08496,-13.634,7.275,1.29
2026-05-22 18:13:03.603,1357123059,249603,2,0.87402,0.07715,-0.04956,-1.053,0.298,2.565
2026-05-22 18:13:03.803,1357123259,249803,1,1.00439,0.16553,0.09351,-11.191,1.557,-7.008
2026-05-22 18:13:03.803,1357123259,249803,2,0.83862,0.06421,-0.07764,-11.542,-0.718,6.664
2026-05-22 18:13:03.003,1357122459,250003,1,1.01465,0.19092,0.09473,-2.687,0.511,-0.786
2026-05-22 18:13:03.003,1357122459,250003,2,0.85791,0.07324,-0.05859,-6.931,4.733,4.405
2026-05-22 18:13:04.203,1357123659,250203,1,1.02295,0.19116,0.1001,-2.672,7.237,-0.244
2026-05-22 18:13:04.203,1357123659,250203,2,0.85815,0.08398,-0.04541,1.122,8.573,0.565
2026-05-22 18:13:04.403,1357123859,250403,1,1.00513,0.17456,0.14478,-3.779,10.076,0.115
2026-05-22 18:13:04.403,1357123859,250403,2,0.95581,0.05615,0.24512,-1.542,-1.634,3.252
2026-05-22 18:13:07.165,1357126621,253165,1,0.93408,0.10547,0.33008,-1.496,-1.267,0.214
2026-05-22 18:13:07.165,1357126621,253165,2,0.95068,0.06006,0.25122,0.183,-1.069,0.313
2026-05-22 18:13:07.365,1357126821,253365,1,0.94092,0.11548,0.32153,-0.687,2.359,-0.336
2026-05-22 18:13:07.365,1357126821,253365,2,0.95215,0.05713,0.23535,-0.588,0.435,0.679
2026-05-22 18:13:07.565,1357127021,253565,1,0.94067,0.11694,0.3291,-0.321,3.115,-1.977
2026-05-22 18:13:07.565,1357127021,253565,2,0.95996,0.06299,0.23901,-2.496,1.176,0.145
2026-05-22 18:13:07.765,1357127221,253765,1,0.9248,0.13477,0.33789,-2.122,2.29,-0.595
2026-05-22 18:13:07.765,1357127221,253765,2,0.95483,0.06494,0.24634,-0.656,1.328,1.366
2026-05-22 18:13:07.965,1357127421,253965,1,0.9165,0.11621,0.33984,-2.55,2.611,1.382
2026-05-22 18:13:07.965,1357127421,253965,2,0.97046,0.07397,0.26904,-2.176,2.733,-0.634
2026-05-22 18:13:08.165,1357127621,254165,1,0.90576,0.13989,0.36475,2.359,6.13,-3.58
2026-05-22 18:13:08.165,1357127621,254165,2,0.95459,0.06128,0.22656,-3.557,-1.794,2.382
2026-05-22 18:13:11.173,1357130629,257173,1,0.87964,0.15137,0.39478,-1.099,0.939,0.473
2026-05-22 18:13:11.173,1357130629,257173,2,0.96045,0.07837,0.26831,-0.183,0.786,3.282
2026-05-22 18:13:11.373,1357130829,257373,1,0.88306,0.13623,0.39185,-0.672,0.618,1.489
2026-05-22 18:13:11.373,1357130829,257373,2,0.95679,0.06909,0.27344,0.443,0.962,0.847
2026-05-22 18:13:11.573,1357131029,257573,1,0.88916,0.1355,0.3833,-2.29,-0.71,0.374
2026-05-22 18:13:11.573,1357131029,257573,2,0.95947,0.06714,0.25732,-3.656,0.153,2.588
2026-05-22 18:13:11.773,1357131229,257773,1,0.89014,0.13647,0.38965,-1.321,0.015,-0.962
2026-05-22 18:13:11.773,1357131229,257773,2,0.95801,0.08057,0.26147,-1.916,0.893,-0.107
2026-05-22 18:13:11.973,1357131429,257973,1,0.8877,0.1355,0.39331,-2.832,0.687,-1.221
2026-05-22 18:13:11.973,1357131429,257973,2,0.95947,0.08057,0.26563,-2.901,1.427,0.71
2026-05-22 18:13:12.220,1357131676,258220,1,0.87402,0.15942,0.41553,-1.679,2.16,-1.588
2026-05-22 18:13:12.220,1357131676,258220,2,0.94995,0.08032,0.27173,-0.298,1.504,1.924
2026-05-22 18:13:12.420,1357131876,258420,1,0.88477,0.14258,0.39429,-0.809,-1.107,2.275
2026-05-22 18:13:12.420,1357131876,258420,2,0.95776,0.07959,0.26294,1.282,0.443,1.206
2026-05-22 18:13:12.620,1357132076,258620,1,0.88647,0.13452,0.40186,-1.885,0.221,0.641
2026-05-22 18:13:12.620,1357132076,258620,2,0.95923,0.07056,0.25488,-1.481,0.939,2.229
2026-05-22 18:13:12.820,1357132276,258820,1,0.88623,0.14111,0.39917,-0.733,1.511,0.611
2026-05-22 18:13:12.820,1357132276,258820,2,0.96045,0.08008,0.25757,-1.443,0.176,3.046
2026-05-22 18:13:12.020,1357131476,259020,1,0.87891,0.13208,0.40063,-6.725,1.221,0.29
2026-05-22 18:13:12.020,1357131476,259020,2,0.96216,0.04639,0.26245,-0.931,2.435,4.412
2026-05-22 18:13:13.220,1357132676,259220,1,0.88477,0.12476,0.40698,0.481,2.84,5.519
2026-05-22 18:13:13.220,1357132676,259220,2,0.94751,0.03296,0.26587,3.916,3.55,-2.183
2026-05-22 18:13:13.420,1357132876,259420,1,0.88525,0.10474,0.42163,3.557,-5.58,-3.084
2026-05-22 18:13:13.420,1357132876,259420,2,0.94678,0.10767,0.27783,0.076,-2.267,3.008
2026-05-22 18:13:13.620,1357133076,259620,1,0.86694,0.16138,0.3772,-14.87,1.916,-15.214
2026-05-22 18:13:13.620,1357133076,259620,2,0.96704,0.03955,0.26611,-27.832,-1.13,21.947
2026-05-22 18:13:13.820,1357133276,259820,1,0.84717,0.16602,0.40942,-10.916,2.359,13.908
2026-05-22 18:13:13.820,1357133276,259820,2,0.94702,-0.06787,0.25073,0.519,-1.366,15.305
2026-05-22 18:13:16.941,1357136397,262941,1,0.92603,-0.07031,0.35986,-0.649,-1.74,-1.626
2026-05-22 18:13:16.941,1357136397,262941,2,0.95142,0.00977,0.23047,-6.947,1.321,-7.939
2026-05-22 18:13:17.141,1357136597,263141,1,0.92041,0.00293,0.37695,0.344,9.031,-18.885
2026-05-22 18:13:17.141,1357136597,263141,2,0.94604,0.05298,0.19897,-2.832,4.061,-13.221
2026-05-22 18:13:17.341,1357136797,263341,1,0.89478,0.09253,0.38159,1.771,3.153,-18.87
2026-05-22 18:13:17.341,1357136797,263341,2,0.95605,0.09253,0.22363,-10.885,0.771,-2.527
2026-05-22 18:13:17.541,1357136997,263541,1,0.85522,0.18726,0.39185,7.832,3.328,-10.168
2026-05-22 18:13:17.541,1357136997,263541,2,0.92432,0.12793,0.21387,0.389,5.282,-1.015
2026-05-22 18:13:17.741,1357137197,263741,1,0.87817,0.19287,0.42651,2.634,9.809,-2.008
2026-05-22 18:13:17.741,1357137197,263741,2,0.93628,0.08374,0.2251,-10.053,1.344,12.137
2026-05-22 18:13:17.963,1357137419,263963,1,0.86255,0.14014,0.42676,2.924,4.427,2.305
2026-05-22 18:13:17.963,1357137419,263963,2,0.94238,0.09399,0.24878,4.74,2.939,0.71
2026-05-22 18:13:18.163,1357137619,264163,1,0.84521,0.14917,0.44971,-5.855,-1.237,1.321
2026-05-22 18:13:18.163,1357137619,264163,2,0.94995,0.07886,0.24414,-8.26,0.603,6.855
2026-05-22T18:13:19.520754,,,,,,,,,
2026-05-22 18:13:18.363,1357137819,264363,1,0.86475,0.14478,0.41699,-0.313,-0.084,2.534
2026-05-22 18:13:18.363,1357137819,264363,2,0.95947,0.08716,0.23584,-0.809,2.168,3.641
2026-05-22 18:13:18.563,1357138019,264563,1,0.87134,0.14648,0.42896,-2.412,2.183,0.458
2026-05-22 18:13:18.563,1357138019,264563,2,0.96558,0.08203,0.23462,0.84,3.542,1.542
2026-05-22 18:13:18.763,1357138219,264763,1,0.88623,0.16772,0.3811,-1.076,11.321,0.595
2026-05-22 18:13:18.763,1357138219,264763,2,0.95215,0.08765,0.23242,3.939,19.649,2.763
2026-05-22 18:13:18.963,1357138419,264963,1,0.81372,0.11597,0.48877,-10.023,19.038,2.053
2026-05-22 18:13:18.963,1357138419,264963,2,0.97021,0.0437,0.36353,5.298,24.695,0.252
2026-05-22 18:13:19.163,1357138619,265163,1,0.71826,0.09766,0.58179,-2.076,16.626,2.176
2026-05-22 18:13:19.163,1357138619,265163,2,0.95142,0.08862,0.44995,-1.641,15.107,-0.382
2026-05-22 18:13:19.363,1357138819,265363,1,0.71362,0.10718,0.61035,-3.947,7.679,-2.115
2026-05-22 18:13:19.363,1357138819,265363,2,0.95679,0.10132,0.4729,0.366,4.588,-1.458
2026-05-22 18:13:19.563,1357139019,265563,1,0.72241,0.12061,0.59839,-1.847,0.427,-0.55
2026-05-22 18:13:19.563,1357139019,265563,2,0.96289,0.10132,0.45093,-3.107,0.214,2.718
2026-05-22 18:13:22.601,1357142057,268601,1,0.70947,0.07886,0.60327,-3.321,0.481,0.641
2026-05-22 18:13:22.601,1357142057,268601,2,0.96924,0.07861,0.45825,0.603,1.076,0.817
2026-05-22 18:13:22.801,1357142257,268801,1,0.72632,0.09546,0.58789,-1.878,-0.374,-0.046
2026-05-22 18:13:22.801,1357142257,268801,2,0.9751,0.07275,0.46582,-1.008,0.725,2.038
2026-05-22 18:13:22.001,1357141457,269001,1,0.72095,0.10229,0.59082,-2.427,0.595,0.473
2026-05-22 18:13:22.001,1357141457,269001,2,0.95874,0.0918,0.43994,-7.947,1.206,1.977
2026-05-22 18:13:23.201,1357142657,269201,1,0.72461,0.09741,0.58374,-1.947,-1.328,-3.344
2026-05-22 18:13:23.201,1357142657,269201,2,0.96094,0.08936,0.47485,-7.977,1.84,0.176
2026-05-22 18:13:23.401,1357142857,269401,1,0.70972,0.10767,0.59448,-0.542,1.664,3.0
2026-05-22 18:13:23.401,1357142857,269401,2,0.91089,0.09961,0.22144,-22.031,-9.038,12.718
2026-05-22 18:13:26.662,1357146118,272662,1,0.92236,0.18774,0.34058,-11.481,-10.328,-5.405
2026-05-22 18:13:26.662,1357146118,272662,2,0.98438,0.01221,0.21606,-32.298,-9.901,25.74
2026-05-22 18:13:26.862,1357146318,272862,1,0.94116,0.0708,0.31616,7.71,-3.969,15.634
2026-05-22 18:13:26.862,1357146318,272862,2,0.96216,0.01807,0.2312,3.237,3.802,-0.42
2026-05-22 18:13:27.062,1357146518,273062,1,0.9458,0.07837,0.30298,22.855,0.74,12.626
2026-05-22 18:13:27.062,1357146518,273062,2,0.9646,0.08325,0.23486,19.962,4.855,-14.298
2026-05-22 18:13:27.262,1357146718,273262,1,0.948,0.11523,0.32349,19.015,9.069,12.885
2026-05-22 18:13:27.262,1357146718,273262,2,0.92383,0.13403,0.23877,11.275,6.557,-1.496
2026-05-22 18:13:27.462,1357146918,273462,1,0.95947,0.04321,0.34033,-8.328,2.45,3.206
2026-05-22 18:13:27.462,1357146918,273462,2,0.96167,0.07666,0.26563,-2.466,5.397,-2.221
2026-05-22 18:13:27.662,1357147118,273662,1,0.91528,0.06836,0.35742,-1.794,3.634,2.359
2026-05-22 18:13:27.662,1357147118,273662,2,0.95166,0.09595,0.27417,-9.565,0.221,6.099
2026-05-22 18:13:27.862,1357147318,273862,1,0.92285,0.03174,0.35913,-2.214,0.519,0.756
2026-05-22 18:13:27.862,1357147318,273862,2,0.96753,0.09155,0.29126,23.366,5.366,-5.771
2026-05-22 18:13:28.062,1357147518,274062,1,0.93359,0.05347,0.35376,1.061,1.206,0.885
2026-05-22 18:13:28.062,1357147518,274062,2,0.96289,0.10132,0.27612,12.687,2.237,-3.298
2026-05-22 18:13:28.262,1357147718,274262,1,0.93677,0.07153,0.33936,4.031,0.618,0.794
2026-05-22 18:13:28.262,1357147718,274262,2,0.96265,0.11304,0.28931,16.824,2.947,-4.557
2026-05-22 18:13:28.462,1357147918,274462,1,0.92261,0.0603,0.36011,2.397,0.137,0.565
2026-05-22 18:13:28.462,1357147918,274462,2,0.96191,0.12378,0.28833,2.191,1.87,-0.229
2026-05-22 18:13:28.662,1357148118,274662,1,0.92114,0.0647,0.3562,-2.641,0.359,-0.221
2026-05-22 18:13:28.662,1357148118,274662,2,0.95068,0.11523,0.29346,-1.748,1.206,1.664
2026-05-22 18:13:28.862,1357148318,274862,1,0.93335,0.06665,0.35205,-2.389,1.008,-0.038
2026-05-22 18:13:28.862,1357148318,274862,2,0.95923,0.10986,0.28784,-2.802,1.45,1.802
2026-05-22T18:13:30.313665,,,,,,,,,
2026-05-22 18:13:29.062,1357148518,275062,1,0.9314,0.06006,0.34399,-1.649,0.321,-0.435
2026-05-22 18:13:29.062,1357148518,275062,2,0.96143,0.10693,0.2998,-5.374,1.565,1.832
2026-05-22 18:13:29.298,1357148754,275298,1,0.92847,0.06567,0.35718,-2.29,0.947,-0.809
2026-05-22 18:13:29.298,1357148754,275298,2,0.95679,0.11157,0.28589,-3.244,1.344,1.435
2026-05-22 18:13:29.498,1357148954,275498,1,0.92822,0.06738,0.35181,-2.153,1.221,-0.061
2026-05-22 18:13:29.498,1357148954,275498,2,0.9585,0.11743,0.3064,-3.046,1.397,1.45
2026-05-22 18:13:29.698,1357149154,275698,1,0.92212,0.06714,0.35596,-2.015,-0.252,-1.13
2026-05-22 18:13:29.698,1357149154,275698,2,0.96973,0.11133,0.30469,-0.695,1.511,2.031
2026-05-22 18:13:29.898,1357149354,275898,1,0.92139,0.06934,0.36816,-0.878,0.573,0.359
2026-05-22 18:13:29.898,1357149354,275898,2,0.96021,0.11084,0.30859,-1.763,0.26,0.618
2026-05-22 18:13:30.098,1357149554,276098,1,0.92236,0.07007,0.36084,-4.573,1.489,-0.473
2026-05-22 18:13:30.098,1357149554,276098,2,0.9668,0.12012,0.32349,2.107,3.954,0.031
2026-05-22 18:13:30.298,1357149754,276298,1,0.91968,0.06787,0.36353,-1.802,1.145,0.947
2026-05-22 18:13:30.298,1357149754,276298,2,0.95044,0.1145,0.30151,-1.076,-1.748,2.13
2026-05-22 18:13:30.498,1357149954,276498,1,0.91992,0.0603,0.37109,-1.855,0.901,0.244
2026-05-22 18:13:30.498,1357149954,276498,2,0.94409,0.11182,0.29761,0.137,1.779,0.336
2026-05-22 18:13:30.698,1357150154,276698,1,0.91333,0.06128,0.37134,-1.893,0.573,-0.084
2026-05-22 18:13:30.698,1357150154,276698,2,0.95605,0.11157,0.30249,-0.618,1.061,0.771
2026-05-22 18:13:30.898,1357150354,276898,1,0.91943,0.06226,0.36865,-2.763,-0.038,-0.779
2026-05-22 18:13:30.898,1357150354,276898,2,0.96875,0.11621,0.3103,-0.817,1.542,0.618
2026-05-22 18:13:31.156,1357150612,277156,1,0.90942,0.07617,0.36328,-2.908,0.55,-1.313
2026-05-22 18:13:31.156,1357150612,277156,2,0.95581,0.10645,0.29858,0.282,2.351,2.595
2026-05-22 18:13:31.485,1357150941,277485,1,0.91016,0.06934,0.36914,-1.443,0.672,0.878
2026-05-22 18:13:31.485,1357150941,277485,2,0.96191,0.11255,0.32007,-2.366,1.168,2.992
2026-05-22 18:13:31.690,1357151146,277690,1,0.91602,0.08203,0.36475,-4.084,1.389,1.565
2026-05-22 18:13:31.690,1357151146,277690,2,0.95386,0.09253,0.31616,0.023,2.832,3.885
2026-05-22 18:13:31.890,1357151346,277890,1,0.90698,0.05713,0.38208,-0.901,2.336,3.664
2026-05-22 18:13:31.890,1357151346,277890,2,0.9668,0.07617,0.3291,-0.374,1.069,2.504
2026-05-22 18:13:32.090,1357151546,278090,1,0.90845,0.02808,0.38135,0.466,1.252,1.198
2026-05-22 18:13:32.090,1357151546,278090,2,0.96216,0.08545,0.31714,-5.718,-0.351,-1.244
2026-05-22T18:13:42.819273,,,,,,,,,
2026-05-22 18:13:41.317,1357160773,9317,1,0.89502,0.19238,0.23389,1.756,1.183,-5.069
2026-05-22 18:13:41.317,1357160773,9317,2,0.7605,0.22852,0.11475,23.275,3.382,-8.366
2026-05-22 18:13:42.517,1357161973,9517,1,1.05103,0.04907,0.24414,-33.397,-25.397,3.771
2026-05-22 18:13:42.517,1357161973,9517,2,1.1167,0.33521,0.25366,-36.137,-18.626,-9.336
2026-05-22 18:13:42.717,1357162173,9717,1,1.01318,-0.00488,0.23462,-61.244,13.771,-23.061
2026-05-22 18:13:42.717,1357162173,9717,2,0.91553,-0.04736,0.19897,18.687,25.198,17.977
2026-05-22 18:13:42.917,1357162373,9917,1,0.95703,-0.07129,0.2356,-41.244,-9.817,-6.908
2026-05-22 18:13:42.917,1357162373,9917,2,0.97729,0.24829,0.10449,-33.046,-20.328,-35.74
2026-05-22 18:13:45.049,1357164505,13049,1,0.99854,0.10181,0.11279,-67.351,-11.847,-37.282
2026-05-22 18:13:45.049,1357164505,13049,2,0.94409,-0.17334,0.29932,-168.618,6.221,25.855
2026-05-22 18:13:45.249,1357164705,13249,1,1.00415,-0.01855,0.15942,-62.649,-0.321,-18.695
2026-05-22 18:13:45.249,1357164705,13249,2,0.92773,-0.06445,0.2793,-81.267,20.45,27.847
2026-05-22 18:13:45.449,1357164905,13449,1,1.00073,-0.06812,0.1709,-41.809,-5.145,-15.74
2026-05-22 18:13:45.449,1357164905,13449,2,0.91089,-0.05493,0.24561,-16.985,7.191,3.84
2026-05-22 18:13:46.649,1357166105,13649,1,1.09131,0.09106,0.23047,-24.855,-8.878,-10.626
2026-05-22 18:13:46.649,1357166105,13649,2,0.97534,-0.15454,0.12891,-30.496,-6.359,17.229
2026-05-22 18:13:46.849,1357166305,13849,1,0.92603,0.05273,0.19873,4.244,-18.924,11.359
2026-05-22 18:13:46.849,1357166305,13849,2,1.03198,0.08691,0.1543,74.214,5.55,-25.252
2026-05-22 18:13:46.049,1357165505,14049,1,0.96167,0.06738,0.1958,-40.718,-0.924,-7.069
2026-05-22 18:13:46.049,1357165505,14049,2,0.88403,0.12964,0.13745,-51.229,2.908,-8.466
2026-05-22 18:13:46.249,1357165705,14249,1,0.98828,0.03687,0.13525,-45.649,-6.16,-28.847
2026-05-22 18:13:46.249,1357165705,14249,2,0.88135,0.04883,0.08984,-54.427,-23.053,8.046
2026-05-22 18:13:46.449,1357165905,14449,1,0.79663,0.12964,0.03979,-10.756,0.176,-12.626
2026-05-22 18:13:46.449,1357165905,14449,2,0.85059,0.14502,-0.02197,-28.466,-1.725,3.794
2026-05-22 18:13:47.649,1357167105,14649,1,0.98779,0.22363,0.01025,-14.389,5.092,0.786
2026-05-22 18:13:47.649,1357167105,14649,2,0.80859,0.18335,-0.04346,-34.153,-0.374,17.977
2026-05-22 18:13:47.849,1357167305,14849,1,0.98755,0.18579,0.00391,-37.313,-17.802,-17.405
2026-05-22 18:13:47.849,1357167305,14849,2,0.85498,0.2168,0.03271,-47.649,-18.557,15.405
2026-05-22 18:13:47.049,1357166505,15049,1,1.17749,0.11816,0.10889,-67.695,-18.023,-13.328
2026-05-22 18:13:47.049,1357166505,15049,2,0.92529,0.12256,-0.05005,-48.214,-4.214,13.496
2026-05-22 18:13:47.249,1357166705,15249,1,1.06128,0.06592,0.07739,-119.527,9.16,-16.588
2026-05-22 18:13:47.249,1357166705,15249,2,0.88306,-0.01904,0.10718,-46.634,16.366,75.267
2026-05-22 18:13:47.449,1357166905,15449,1,1.03784,-0.03271,0.11572,-53.695,-3.687,-8.321
2026-05-22 18:13:47.449,1357166905,15449,2,0.94824,-0.01465,0.11499,-44.733,7.405,28.206
2026-05-22 18:13:48.649,1357168105,15649,1,1.01221,0.04712,0.09863,-89.023,-7.74,-22.534
2026-05-22 18:13:48.649,1357168105,15649,2,0.93359,0.00635,0.08765,6.115,11.557,-9.45
2026-05-22 18:13:50.377,1357169833,18377,1,1.06934,0.00635,0.13281,8.893,17.427,-2.939
2026-05-22 18:13:50.377,1357169833,18377,2,0.94141,0.01147,0.13745,22.947,22.832,-16.099
2026-05-22 18:13:51.577,1357171033,18577,1,0.99341,-0.02026,0.20972,-3.885,10.214,9.45
2026-05-22 18:13:51.577,1357171033,18577,2,0.91235,-0.03467,0.21411,-19.656,8.214,21.366
2026-05-22 18:13:51.777,1357171233,18777,1,0.97021,-0.03955,0.20557,12.153,-0.962,22.198
2026-05-22 18:13:51.777,1357171233,18777,2,0.91357,-0.02124,0.23242,6.725,4.092,11.092
2026-05-22 18:13:51.977,1357171433,18977,1,0.99707,-0.09937,0.20386,3.435,-2.733,6.221
2026-05-22 18:13:51.977,1357171433,18977,2,0.88037,-0.04419,0.21143,12.473,-0.817,9.42
2026-05-22 18:13:51.177,1357170633,19177,1,1.04492,-0.16895,0.17554,0.191,-7.168,3.733
2026-05-22 18:13:51.177,1357170633,19177,2,0.96924,-0.09766,0.17041,-4.435,-3.664,-9.863
2026-05-22 18:13:51.377,1357170833,19377,1,1.00293,-0.08521,0.13989,14.939,-2.084,-8.061
2026-05-22 18:13:51.377,1357170833,19377,2,0.94385,-0.00854,0.10669,21.313,-7.153,-19.603
2026-05-22 18:13:52.581,1357172037,19581,1,1.02856,-0.0354,0.09766,17.969,-9.221,-14.214
2026-05-22 18:13:52.581,1357172037,19581,2,0.91968,-0.03979,0.0686,-8.061,-13.542,-7.969
2026-05-22 18:13:52.781,1357172237,19781,1,1.10449,0.06567,0.07715,-9.351,-0.763,-19.878
2026-05-22 18:13:52.781,1357172237,19781,2,0.94971,0.0022,0.17041,-35.275,4.748,10.794
2026-05-22 18:13:52.981,1357172437,19981,1,1.01636,0.04785,0.1311,-2.496,8.74,-7.435
2026-05-22 18:13:52.981,1357172437,19981,2,0.88403,0.00049,0.0896,-2.321,-3.107,-1.908
2026-05-22 18:13:52.181,1357171637,20181,1,1.03149,0.1084,0.12769,22.977,4.687,-0.313
2026-05-22 18:13:52.181,1357171637,20181,2,0.94946,0.00146,0.09692,21.763,3.924,-9.031
2026-05-22 18:13:52.381,1357171837,20381,1,1.00391,0.10864,0.17114,5.595,14.313,9.931
2026-05-22 18:13:52.381,1357171837,20381,2,0.96118,0.00562,0.20703,13.282,18.038,0.015
2026-05-22 18:13:53.581,1357173037,20581,1,1.00269,0.07007,0.21753,9.58,7.802,3.618
2026-05-22 18:13:53.581,1357173037,20581,2,0.9231,0.0603,0.17041,12.931,7.489,-16.244
2026-05-22 18:13:53.781,1357173237,20781,1,0.93848,0.14648,0.19971,2.405,2.321,-4.824
2026-05-22 18:13:53.781,1357173237,20781,2,0.95752,0.08081,0.2146,-14.237,2.901,5.824
2026-05-22 18:13:53.981,1357173437,20981,1,0.96729,0.09302,0.26074,-9.336,0.618,-0.611
2026-05-22 18:13:53.981,1357173437,20981,2,0.91895,0.06128,0.22461,-8.557,-0.069,4.137
2026-05-22 18:13:53.181,1357172637,21181,1,1.01563,0.07397,0.22998,0.115,-3.252,2.893
2026-05-22 18:13:53.181,1357172637,21181,2,0.99585,0.04883,0.22876,7.115,5.901,-1.603
2026-05-22 18:13:53.429,1357172885,21429,1,0.95947,0.08179,0.22437,10.817,18.153,3.931
2026-05-22 18:13:53.429,1357172885,21429,2,0.9707,0.11841,0.27759,19.733,28.351,-20.87
2026-05-22 18:13:54.629,1357174085,21629,1,0.90454,0.12183,0.27808,-11.321,20.87,-8.756
2026-05-22 18:13:54.629,1357174085,21629,2,1.07446,0.14673,0.3291,2.939,15.092,-7.084
2026-05-22 18:13:54.829,1357174285,21829,1,0.84766,0.11035,0.31982,-7.481,37.45,-19.221
2026-05-22 18:13:54.829,1357174285,21829,2,0.92749,0.15552,0.36792,43.74,29.695,-37.489
2026-05-22 18:13:54.029,1357173485,22029,1,0.72998,0.17822,0.44043,17.802,32.443,-31.908
2026-05-22 18:13:54.029,1357173485,22029,2,0.92969,0.27856,0.48853,65.725,39.565,-51.153
2026-05-22 18:13:54.229,1357173685,22229,1,0.73657,0.23364,0.51294,-25.779,62.641,-42.145
2026-05-22 18:13:54.229,1357173685,22229,2,0.90259,0.37134,0.61182,-66.328,18.962,-19.573
2026-05-22 18:13:54.429,1357173885,22429,1,0.56055,0.44214,0.52466,39.885,37.427,-30.626
2026-05-22 18:13:54.429,1357173885,22429,2,0.80151,0.49341,0.51538,29.855,12.038,-50.145
2026-05-22 18:13:55.629,1357175085,22629,1,0.39136,0.74731,0.66553,-12.13,24.595,-23.473
2026-05-22 18:13:55.629,1357175085,22629,2,0.75659,0.58765,0.69238,-29.229,10.366,9.985
2026-05-22 18:13:55.829,1357175285,22829,1,0.32813,0.45068,0.70679,-22.802,9.084,-3.504
2026-05-22 18:13:55.829,1357175285,22829,2,0.802,0.44897,0.80737,-39.824,8.885,20.092
2026-05-22 18:13:55.029,1357174485,23029,1,0.26392,0.45435,0.72217,14.595,18.786,7.916
2026-05-22 18:13:55.029,1357174485,23029,2,0.72241,0.45825,0.80493,-1.008,3.053,13.053
2026-05-22 18:13:55.229,1357174685,23229,1,0.25562,0.58521,0.66626,-8.099,-10.321,17.962
2026-05-22 18:13:55.229,1357174685,23229,2,0.78418,0.45044,0.69238,17.107,-2.275,35.237
2026-05-22 18:13:55.429,1357174885,23429,1,0.33228,0.47485,0.64648,-26.908,-25.901,40.038
2026-05-22 18:13:55.429,1357174885,23429,2,0.68311,0.32373,0.63965,-15.74,-18.534,61.214
2026-05-22 18:13:56.629,1357176085,23629,1,0.51001,0.198,0.62061,-14.924,-42.756,45.802
2026-05-22 18:13:56.629,1357176085,23629,2,0.79224,0.21851,0.50293,7.817,-33.771,23.588
2026-05-22 18:13:56.829,1357176285,23829,1,0.80322,0.20679,0.59595,11.053,-25.893,33.901
2026-05-22 18:13:56.829,1357176285,23829,2,1.02393,0.25684,0.51685,60.466,-18.969,11.634
2026-05-22 18:13:56.029,1357175485,24029,1,0.9043,0.27319,0.48706,7.137,-30.603,18.824
2026-05-22 18:13:56.029,1357175485,24029,2,0.94922,0.26318,0.24316,0.702,-40.527,19.649
2026-05-22 18:13:56.229,1357175685,24229,1,1.0647,0.16016,0.27295,-20.718,-37.779,7.412
2026-05-22 18:13:56.229,1357175685,24229,2,0.95068,-0.0127,0.15942,-51.42,-32.29,52.443
2026-05-22 18:13:56.429,1357175885,24429,1,1.08105,-0.01978,0.13306,32.427,-67.122,21.74
2026-05-22 18:13:56.429,1357175885,24429,2,0.97681,-0.03662,0.28198,-1.771,19.916,-6.947
2026-05-22 18:13:57.629,1357177085,24629,1,1.12134,0.04126,0.15552,22.053,-6.336,23.74
2026-05-22 18:13:57.629,1357177085,24629,2,0.97852,0.06885,0.28955,-6.489,30.13,-11.443
2026-05-22 18:13:57.829,1357177285,24829,1,1.00244,0.02734,0.09912,14.55,-10.656,6.786
2026-05-22 18:13:57.829,1357177285,24829,2,0.96289,0.12061,0.3877,-9.679,9.328,-6.656
2026-05-22 18:13:57.029,1357176485,25029,1,1.06128,0.03052,0.09717,2.985,-3.672,-3.099
2026-05-22 18:13:57.029,1357176485,25029,2,0.94238,0.12207,0.40381,5.687,-3.313,-0.45
2026-05-22 18:13:57.235,1357176691,25234,1,1.04321,0.07983,0.10107,-4.824,-0.046,3.893
2026-05-22 18:13:57.235,1357176691,25234,2,0.97827,0.16016,0.38989,6.664,-0.924,14.695
2026-05-22 18:13:57.434,1357176890,25434,1,1.05371,0.02222,0.13159,-34.267,7.168,-6.672
2026-05-22 18:13:57.434,1357176890,25434,2,0.92065,0.11304,0.37231,34.198,-6.519,24.16
2026-05-22 18:13:58.634,1357178090,25634,1,1.00439,-0.02197,0.14331,-24.023,5.802,-10.107
2026-05-22 18:13:58.634,1357178090,25634,2,0.96484,-0.03906,0.3562,21.504,4.489,12.802
2026-05-22 18:13:58.834,1357178290,25834,1,1.00928,0.01807,0.1875,-16.26,21.214,-11.069
2026-05-22 18:13:58.834,1357178290,25834,2,0.95264,-0.0481,0.3728,-5.748,9.908,0.069
2026-05-22 18:13:58.034,1357177490,26034,1,1.01831,0.0625,0.18701,12.588,-1.802,-0.725
2026-05-22 18:13:58.034,1357177490,26034,2,0.96777,-0.05835,0.37915,3.779,-1.405,3.145
2026-05-22 18:13:58.234,1357177690,26234,1,0.97974,-0.00244,0.19653,-16.229,5.351,-6.405
2026-05-22 18:13:58.234,1357177690,26234,2,0.95435,-0.08301,0.36816,-5.237,4.015,2.962
2026-05-22 18:13:58.512,1357177968,26512,1,0.98926,0.06812,0.24268,-5.237,16.603,-3.908
2026-05-22 18:13:58.512,1357177968,26512,2,0.96094,-0.10327,0.36694,-5.908,7.412,-4.595
2026-05-22 18:13:59.726,1357179182,26726,1,0.96558,0.05713,0.28784,2.443,-1.053,-4.061
2026-05-22 18:13:59.726,1357179182,26726,2,0.85645,-0.00244,0.2041,2.206,-1.679,5.931
2026-05-22 18:13:59.926,1357179382,26926,1,0.98999,0.08081,0.27637,-2.221,-8.939,-14.786
2026-05-22 18:13:59.926,1357179382,26926,2,1.00562,-0.12402,0.36694,28.634,-23.924,8.992
2026-05-22 18:13:59.126,1357178582,27126,1,0.97974,0.06567,0.11499,-23.443,-37.557,4.221
2026-05-22 18:13:59.126,1357178582,27126,2,0.99487,-0.10522,0.32666,-22.534,-8.145,8.183
2026-05-22 18:13:59.326,1357178782,27326,1,1.00366,0.11353,0.10132,1.992,-6.046,3.534
2026-05-22 18:13:59.326,1357178782,27326,2,0.97998,-0.05615,0.1731,-48.809,5.092,19.137
2026-05-22 18:14:00.526,1357179982,27526,1,1.02661,0.12695,0.1311,-7.489,2.557,2.069
2026-05-22 18:14:00.526,1357179982,27526,2,0.979,-0.1604,0.21021,-7.702,-0.794,8.389
2026-05-22 18:14:00.726,1357180182,27726,1,0.9917,0.02979,0.14893,-20.542,-7.084,-2.58
2026-05-22 18:14:00.726,1357180182,27726,2,1.05518,-0.23022,0.26611,-20.443,12.771,12.641
2026-05-22 18:14:00.926,1357180382,27926,1,0.9873,0.06812,0.15845,-15.107,3.985,4.649
2026-05-22 18:14:00.926,1357180382,27926,2,0.9353,-0.19214,0.19482,-8.435,-2.817,6.45
2026-05-22 18:14:00.126,1357179582,28126,1,1.43628,0.05713,0.20337,-26.389,15.748,10.679
2026-05-22 18:14:00.126,1357179582,28126,2,0.94092,-0.16382,0.18994,-4.611,-2.481,-3.412
2026-05-22 18:14:00.326,1357179782,28326,1,1.04053,0.09253,0.10034,10.878,-2.466,2.214
2026-05-22 18:14:00.326,1357179782,28326,2,0.94067,-0.15991,0.23047,-1.115,5.55,-2.878
2026-05-22 18:14:01.526,1357180982,28526,1,1.0166,0.09985,0.11987,-0.847,13.382,-2.275
2026-05-22 18:14:01.526,1357180982,28526,2,0.9126,-0.16089,0.17944,13.733,-6.718,4.679
2026-05-22 18:14:01.726,1357181182,28726,1,1.01831,0.04858,0.17017,-8.061,3.511,-3.786
2026-05-22 18:14:01.726,1357181182,28726,2,0.91504,-0.20703,0.18091,-3.893,2.122,3.947
2026-05-22 18:14:01.926,1357181382,28926,1,1.01538,0.0957,0.16675,1.374,1.573,-0.573
2026-05-22 18:14:01.926,1357181382,28926,2,0.91602,-0.18628,0.16504,-5.26,1.885,0.214
2026-05-22 18:14:01.126,1357180582,29126,1,0.99731,0.09106,0.19482,-1.122,3.008,-2.0
2026-05-22 18:14:01.126,1357180582,29126,2,0.92432,-0.16699,0.18213,-2.015,1.282,-0.305
2026-05-22 18:14:01.326,1357180782,29326,1,1.00415,0.09668,0.17969,-1.809,2.992,-0.504
2026-05-22 18:14:01.326,1357180782,29326,2,0.91138,-0.16479,0.17407,1.008,2.351,-1.359
2026-05-22 18:14:02.526,1357181982,29526,1,0.99854,0.10449,0.19165,-0.321,2.382,0.588
2026-05-22 18:14:02.526,1357181982,29526,2,0.93286,-0.15649,0.1709,-1.893,0.427,2.443
2026-05-22 18:14:02.726,1357182182,29726,1,1.00586,0.07324,0.18701,-5.863,5.252,0.863
2026-05-22 18:14:02.726,1357182182,29726,2,0.92383,-0.17261,0.17236,-2.718,2.229,1.603
2026-05-22 18:14:02.926,1357182382,29926,1,0.98926,0.07275,0.22388,-2.015,4.076,1.29
2026-05-22 18:14:02.926,1357182382,29926,2,0.91724,-0.16406,0.17261,-2.824,1.824,-0.695
2026-05-22 18:14:02.126,1357181582,30126,1,0.99536,0.0957,0.21533,2.206,-0.229,0.779
2026-05-22 18:14:02.126,1357181582,30126,2,0.9248,-0.14526,0.17773,-3.45,0.916,2.824
2026-05-22 18:14:02.326,1357181782,30326,1,0.9895,0.07251,0.2229,-6.916,0.748,0.779
2026-05-22 18:14:02.326,1357181782,30326,2,0.9165,-0.17163,0.1748,-6.298,0.511,5.573
2026-05-22 18:14:03.526,1357182982,30526,1,1.00269,0.05859,0.21875,1.168,0.107,0.244
2026-05-22 18:14:03.526,1357182982,30526,2,0.93115,-0.16577,0.17798,0.756,0.389,-0.756
2026-05-22 18:14:03.726,1357183182,30726,1,0.99438,0.09033,0.21289,12.992,6.29,1.527
2026-05-22 18:14:03.726,1357183182,30726,2,0.91406,-0.11963,0.17993,6.137,-2.649,-2.885
2026-05-22 18:14:03.935,1357183391,30935,1,0.98096,0.07056,0.22998,-2.733,0.45,0.947
2026-05-22 18:14:03.935,1357183391,30935,2,0.9187,-0.15161,0.16455,3.924,0.687,0.275
2026-05-22 18:14:03.135,1357182591,31135,1,0.98804,0.10132,0.22583,2.336,-0.084,2.084
2026-05-22 18:14:03.135,1357182591,31135,2,0.92041,-0.13208,0.1731,1.847,0.718,1.397
2026-05-22 18:14:03.335,1357182791,31335,1,0.98828,0.07007,0.22192,-1.847,-0.069,1.092
2026-05-22 18:14:03.335,1357182791,31335,2,0.92554,-0.14868,0.15576,0.321,0.115,3.389
2026-05-22 18:14:04.535,1357183991,31535,1,0.99072,0.08423,0.22095,-1.656,0.237,0.634
2026-05-22 18:14:04.535,1357183991,31535,2,0.91968,-0.16333,0.1543,-2.176,1.695,4.229
2026-05-22 18:14:04.735,1357184191,31735,1,0.99341,0.06641,0.2229,-1.931,0.237,0.786
2026-05-22 18:14:04.735,1357184191,31735,2,0.91772,-0.1748,0.17065,1.015,0.847,1.595
2026-05-22 18:14:04.935,1357184391,31935,1,0.98389,0.08594,0.21436,-8.908,-0.985,-4.076
2026-05-22 18:14:04.935,1357184391,31935,2,0.92041,-0.1582,0.15112,-6.221,-0.466,7.405
2026-05-22 18:14:04.135,1357183591,32135,1,0.98364,0.05664,0.22778,-5.939,-2.504,0.504
2026-05-22 18:14:04.135,1357183591,32135,2,0.90186,-0.19629,0.16748,0.939,-0.901,2.427
2026-05-22 18:14:04.335,1357183791,32335,1,0.99268,0.07397,0.21899,-2.435,-3.267,2.817
2026-05-22 18:14:04.335,1357183791,32335,2,0.91382,-0.19019,0.16553,-0.977,4.267,1.237
2026-05-22 18:14:05.535,1357184991,32535,1,1.00269,0.07056,0.1875,-2.252,-4.015,-0.168
2026-05-22 18:14:05.535,1357184991,32535,2,0.92065,-0.19604,0.18018,2.626,1.542,3.55
2026-05-22 18:14:05.735,1357185191,32735,1,1.01416,0.03687,0.17896,-4.504,-3.573,0.45
2026-05-22 18:14:05.735,1357185191,32735,2,0.92798,-0.12573,0.17969,-2.779,13.153,-25.366
2026-05-22 18:14:07.406,1357186862,35406,1,0.9917,0.07275,0.30347,-3.061,13.992,14.901
2026-05-22 18:14:07.406,1357186862,35406,2,0.97852,-0.07813,0.19214,5.519,24.527,-26.42
2026-05-22 18:14:08.606,1357188062,35606,1,1.07422,0.1084,0.19189,19.962,19.939,1.901
2026-05-22 18:14:08.606,1357188062,35606,2,0.9834,0.00244,0.21289,33.069,18.664,-35.733
2026-05-22 18:14:08.806,1357188262,35806,1,0.96729,0.1748,0.22632,8.779,1.748,-7.931
2026-05-22 18:14:08.806,1357188262,35806,2,0.97949,0.10107,0.31494,-13.282,10.366,1.42
2026-05-22 18:14:08.006,1357187462,36006,1,0.96313,0.13525,0.28418,-15.779,9.985,-1.557
2026-05-22 18:14:08.006,1357187462,36006,2,0.93237,0.08081,0.40991,-6.954,12.45,-1.115
2026-05-22 18:14:08.206,1357187662,36206,1,0.94116,0.11157,0.29883,-18.122,0.153,6.626
2026-05-22 18:14:08.206,1357187662,36206,2,0.94849,0.03955,0.49194,4.45,6.58,2.748
2026-05-22 18:14:08.406,1357187862,36406,1,1.00806,0.11548,0.31055,3.198,4.962,-4.061
2026-05-22 18:14:08.406,1357187862,36406,2,0.99487,0.09375,0.38477,-7.542,-5.344,-0.725
2026-05-22 18:14:09.606,1357189062,36606,1,0.98584,0.1123,0.25293,2.817,-1.458,0.176
2026-05-22 18:14:09.606,1357189062,36606,2,0.97412,0.06055,0.37915,-5.504,0.053,9.046
2026-05-22 18:14:09.806,1357189262,36806,1,0.98657,0.08472,0.25146,1.84,-1.656,0.702
2026-05-22 18:14:09.806,1357189262,36806,2,0.98291,0.08594,0.39429,5.618,3.313,-5.725
2026-05-22 18:14:09.006,1357188462,37006,1,0.96753,0.09814,0.26514,-2.481,1.679,-1.191
2026-05-22 18:14:09.006,1357188462,37006,2,0.96802,0.0874,0.40332,1.802,2.275,0.366
2026-05-22 18:14:09.206,1357188662,37206,1,0.97095,0.09668,0.26904,-1.168,1.756,-0.328
2026-05-22 18:14:09.206,1357188662,37206,2,0.96899,0.0896,0.39966,1.702,2.038,-0.977
2026-05-22 18:14:09.406,1357188862,37406,1,0.96997,0.10254,0.26807,-2.985,0.901,-0.855
2026-05-22 18:14:09.406,1357188862,37406,2,0.96509,0.08154,0.40039,-0.519,1.695,1.489
2026-05-22 18:14:10.606,1357190062,37606,1,0.96826,0.1001,0.26587,-1.427,-0.221,0.252
2026-05-22 18:14:10.606,1357190062,37606,2,0.96582,0.0957,0.40332,-1.214,1.282,1.168
2026-05-22 18:14:10.833,1357190289,37832,1,0.96948,0.09814,0.26636,-1.55,0.947,-0.046
2026-05-22 18:14:10.833,1357190289,37832,2,0.95923,0.08911,0.40698,0.305,1.237,1.115
2026-05-22 18:14:10.032,1357189488,38032,1,0.96948,0.09375,0.26245,-1.565,0.42,0.511
2026-05-22 18:14:10.032,1357189488,38032,2,0.96777,0.0813,0.40039,0.015,2.84,1.084
2026-05-22 18:14:10.232,1357189688,38232,1,0.96045,0.09839,0.26416,-4.122,0.405,0.099
2026-05-22 18:14:10.232,1357189688,38232,2,0.96216,0.08716,0.41333,-1.618,1.786,0.802
2026-05-22 18:14:10.432,1357189888,38432,1,0.96289,0.09131,0.27832,-1.748,0.824,-0.183
2026-05-22 18:14:10.432,1357189888,38432,2,0.97144,0.1001,0.41626,-1.931,0.672,1.481
2026-05-22 18:14:11.632,1357191088,38632,1,0.96533,0.09326,0.27417,-2.092,0.313,0.046
2026-05-22 18:14:11.632,1357191088,38632,2,0.96533,0.09033,0.41748,-0.756,1.168,0.763
2026-05-22 18:14:11.832,1357191288,38832,1,0.96655,0.10034,0.2749,-2.053,0.275,-0.344
2026-05-22 18:14:11.832,1357191288,38832,2,0.97266,0.09131,0.41113,0.489,0.794,1.229
2026-05-22 18:14:11.032,1357190488,39032,1,0.96826,0.10083,0.27563,-2.275,0.031,-0.206
2026-05-22 18:14:11.032,1357190488,39032,2,0.97192,0.09326,0.40771,-0.191,1.26,0.817
2026-05-22 18:14:11.232,1357190688,39232,1,0.9646,0.0979,0.28784,-2.069,0.634,-0.13
2026-05-22 18:14:11.232,1357190688,39232,2,0.96899,0.08813,0.41455,-0.893,1.092,1.42
2026-05-22 18:14:11.432,1357190888,39432,1,0.96899,0.10645,0.28198,-0.954,0.771,0.206
2026-05-22 18:14:11.432,1357190888,39432,2,0.96875,0.08838,0.40845,0.115,0.832,1.695
2026-05-22 18:14:12.632,1357192088,39632,1,0.96167,0.09937,0.27368,-1.924,0.336,-0.008
2026-05-22 18:14:12.632,1357192088,39632,2,0.97803,0.08838,0.40576,-0.634,1.374,1.107
2026-05-22 18:14:12.832,1357192288,39832,1,0.95728,0.10767,0.27686,-1.733,0.511,-0.176
2026-05-22 18:14:12.832,1357192288,39832,2,0.96851,0.08887,0.41699,-1.733,1.115,1.527
2026-05-22 18:14:12.032,1357191488,40032,1,0.96021,0.10156,0.27368,-1.725,0.832,-0.374
2026-05-22 18:14:12.032,1357191488,40032,2,0.98071,0.09229,0.41284,-0.58,2.061,0.977
2026-05-22 18:14:12.232,1357191688,40232,1,0.96118,0.09937,0.28149,-2.038,0.489,0.053
2026-05-22 18:14:12.232,1357191688,40232,2,0.9707,0.09082,0.4187,-1.328,1.015,1.389
2026-05-22 18:14:13.540,1357192996,40540,1,0.96533,0.09717,0.27441,-1.863,0.542,0.053
2026-05-22 18:14:13.540,1357192996,40540,2,0.9646,0.09204,0.40918,-0.985,1.328,1.008
2026-05-22 18:14:13.740,1357193196,40740,1,0.95654,0.09619,0.27344,-1.679,0.359,-0.038
2026-05-22 18:14:13.740,1357193196,40740,2,0.98315,0.07959,0.39746,-0.008,0.885,2.634
2026-05-22 18:14:13.940,1357193396,40940,1,0.96167,0.09326,0.27856,-1.733,0.618,-0.229
2026-05-22 18:14:13.940,1357193396,40940,2,0.97046,0.0918,0.42114,-0.74,1.534,1.115
2026-05-22 18:14:13.140,1357192596,41140,1,0.95361,0.1001,0.28345,-1.55,-0.191,-0.038
2026-05-22 18:14:13.140,1357192596,41140,2,0.96582,0.09155,0.41577,-1.542,1.366,1.336
2026-05-22 18:14:13.340,1357192796,41340,1,0.94995,0.09766,0.28418,-2.893,-0.573,-0.16
2026-05-22 18:14:13.340,1357192796,41340,2,0.96729,0.08398,0.41382,-3.038,0.718,1.397
2026-05-22 18:14:14.540,1357193996,41540,1,0.95752,0.10815,0.27686,-0.901,0.603,-0.076
2026-05-22 18:14:14.540,1357193996,41540,2,0.96411,0.09351,0.4082,0.267,0.489,0.626
2026-05-22 18:14:14.740,1357194196,41740,1,0.95947,0.09766,0.27197,-1.595,0.313,0.191
2026-05-22 18:14:14.740,1357194196,41740,2,0.9729,0.0874,0.41455,1.046,1.679,0.55
2026-05-22 18:14:14.940,1357194396,41940,1,0.96094,0.10254,0.28735,-1.786,0.481,-0.092
2026-05-22 18:14:14.940,1357194396,41940,2,0.97217,0.08984,0.42383,-0.244,1.298,1.198
2026-05-22 18:14:14.140,1357193596,42140,1,0.97046,0.10156,0.27881,-1.985,0.45,0.26
2026-05-22 18:14:14.140,1357193596,42140,2,0.94946,0.08936,0.41138,2.489,1.351,-0.26
2026-05-22 18:14:17.176,1357196632,45176,1,0.96167,0.09814,0.28003,-1.786,-0.137,0.13
2026-05-22 18:14:17.176,1357196632,45176,2,0.97021,0.08423,0.41406,-0.603,0.931,1.374
2026-05-22 18:14:17.376,1357196832,45376,1,0.95825,0.10767,0.28271,-3.863,-1.817,1.412
2026-05-22 18:14:17.376,1357196832,45376,2,0.96924,0.07959,0.40918,2.885,-0.313,3.824
2026-05-22 18:14:18.576,1357198032,45576,1,0.95972,0.10083,0.29297,-10.374,0.626,0.328
2026-05-22 18:14:18.576,1357198032,45576,2,0.98877,0.04321,0.40454,-12.908,-5.84,17.313
2026-05-22 18:14:18.776,1357198232,45776,1,0.96753,0.05371,0.29053,-3.573,-3.55,-1.458
2026-05-22 18:14:18.776,1357198232,45776,2,0.97559,0.00269,0.39087,-5.824,-2.382,3.481
2026-05-22 18:14:18.976,1357198432,45976,1,0.96802,0.09473,0.26172,1.71,-3.618,7.16
2026-05-22 18:14:18.976,1357198432,45976,2,0.97412,0.02832,0.37134,-10.298,-0.771,3.733
2026-05-22 18:14:18.230,1357197686,46229,1,1.02441,0.08984,0.23267,-4.916,-0.473,-7.824
2026-05-22 18:14:18.230,1357197686,46229,2,0.98706,-0.00366,0.3584,-0.725,-3.618,-5.603
2026-05-22 18:14:18.429,1357197885,46429,1,1.01953,0.05615,0.20459,-3.504,-3.069,1.893
2026-05-22 18:14:18.429,1357197885,46429,2,0.97388,0.03101,0.3772,-4.527,2.069,-1.802
2026-05-22 18:14:19.629,1357199085,46629,1,0.99487,0.09033,0.22925,9.275,7.176,4.695
2026-05-22 18:14:19.629,1357199085,46629,2,0.94702,0.1189,0.39331,14.817,9.756,-10.595
2026-05-22 18:14:19.829,1357199285,46829,1,0.9917,0.05762,0.22119,4.748,9.718,-6.939
2026-05-22 18:14:19.829,1357199285,46829,2,0.9873,0.06934,0.39063,18.328,11.244,-11.939
2026-05-22 18:14:19.029,1357198485,47029,1,0.97046,0.1123,0.30029,-3.023,5.557,-7.885
2026-05-22 18:14:19.029,1357198485,47029,2,0.96143,0.0708,0.43872,-20.641,0.214,5.023
2026-05-22 18:14:19.229,1357198685,47229,1,0.94043,0.12158,0.302,2.969,0.649,3.344
2026-05-22 18:14:19.229,1357198685,47229,2,0.96411,0.14526,0.43433,-6.183,1.466,4.42
2026-05-22 18:14:19.429,1357198885,47429,1,0.94043,0.10303,0.31006,4.29,0.328,0.214
2026-05-22 18:14:19.429,1357198885,47429,2,0.95752,0.12036,0.41602,6.16,2.87,-0.802
2026-05-22 18:14:20.629,1357200085,47629,1,0.94482,0.10327,0.29932,0.26,1.863,0.16
2026-05-22 18:14:20.629,1357200085,47629,2,0.96924,0.10889,0.41919,1.382,2.779,1.58
2026-05-22 18:14:20.829,1357200285,47829,1,0.9502,0.10303,0.30347,-1.145,0.557,1.069
2026-05-22 18:14:20.829,1357200285,47829,2,0.95752,0.12012,0.43359,1.664,2.267,0.489
2026-05-22 18:14:20.073,1357199529,48072,1,0.94458,0.09692,0.2998,-1.221,0.817,-0.13
2026-05-22 18:14:20.073,1357199529,48072,2,0.96265,0.11499,0.43628,-0.321,1.214,1.473
2026-05-22 18:14:20.272,1357199728,48272,1,0.94995,0.10498,0.30078,-1.687,0.931,-0.137
2026-05-22 18:14:20.272,1357199728,48272,2,0.96069,0.10596,0.43237,0.74,1.206,1.618
2026-05-22 18:14:20.472,1357199928,48472,1,0.94507,0.10889,0.30762,0.198,1.267,0.786
2026-05-22 18:14:20.472,1357199928,48472,2,0.97461,0.12573,0.43188,-0.176,2.015,0.168
2026-05-22 18:14:21.672,1357201128,48672,1,0.93481,0.11548,0.30713,-2.321,1.511,-0.603
2026-05-22 18:14:21.672,1357201128,48672,2,0.95532,0.11572,0.43335,0.176,1.45,1.183
2026-05-22 18:14:21.872,1357201328,48872,1,0.94775,0.1084,0.30933,-1.344,0.252,-0.023
2026-05-22 18:14:21.872,1357201328,48872,2,0.97363,0.1189,0.42871,-1.0,1.565,1.58
2026-05-22 18:14:21.072,1357200528,49072,1,0.94043,0.11084,0.31323,-2.122,1.244,0.649
2026-05-22 18:14:21.072,1357200528,49072,2,0.98145,0.10913,0.43506,-0.74,1.473,2.206
2026-05-22 18:14:21.300,1357200756,49300,1,0.94678,0.09937,0.32813,-1.634,0.641,0.305
2026-05-22 18:14:21.300,1357200756,49300,2,0.96338,0.11353,0.43726,-2.275,0.733,1.794
2026-05-22 18:14:21.500,1357200956,49500,1,0.94507,0.10034,0.31787,-1.649,0.26,0.214
2026-05-22 18:14:21.500,1357200956,49500,2,0.96826,0.11865,0.44067,-1.168,1.221,1.359
2026-05-22 18:14:22.700,1357202156,49700,1,0.94946,0.10278,0.31738,-2.038,0.794,-0.16
2026-05-22 18:14:22.700,1357202156,49700,2,0.9646,0.12646,0.43872,0.176,1.55,1.336
2026-05-22 18:14:22.900,1357202356,49900,1,0.94531,0.1062,0.32129,-0.916,0.397,-0.931
2026-05-22 18:14:22.900,1357202356,49900,2,0.96533,0.1062,0.43213,-0.664,1.145,0.809
2026-05-22 18:14:22.100,1357201556,50100,1,0.93799,0.11597,0.31982,-2.473,0.237,-0.183
2026-05-22 18:14:22.100,1357201556,50100,2,0.97192,0.11548,0.43286,-2.359,0.733,1.855
2026-05-22 18:14:22.300,1357201756,50300,1,0.94141,0.11255,0.31787,-1.351,0.305,0.061
2026-05-22 18:14:22.300,1357201756,50300,2,0.95215,0.10767,0.42749,0.656,1.779,1.183
2026-05-22 18:14:22.500,1357201956,50500,1,0.9519,0.11353,0.31494,-2.176,0.733,-0.519
2026-05-22 18:14:22.500,1357201956,50500,2,0.96582,0.10767,0.45142,-1.45,1.008,2.267
2026-05-22 18:14:23.700,1357203156,50700,1,0.93628,0.10669,0.32007,-1.473,0.069,0.298
2026-05-22 18:14:23.700,1357203156,50700,2,0.97021,0.11426,0.43311,-0.763,0.847,1.122
2026-05-22 18:14:23.900,1357203356,50900,1,0.93823,0.10669,0.3208,-1.511,0.26,-0.145
2026-05-22 18:14:23.900,1357203356,50900,2,0.96411,0.10791,0.43726,-1.542,1.076,1.458
2026-05-22 18:14:23.100,1357202556,51100,1,0.92725,0.10229,0.32642,-1.733,0.885,0.275
2026-05-22 18:14:23.100,1357202556,51100,2,0.94971,0.09497,0.43579,-1.313,-1.382,3.87
2026-05-22 18:14:23.300,1357202756,51300,1,0.95605,0.1084,0.30444,-1.847,1.137,-0.084
2026-05-22 18:14:23.300,1357202756,51300,2,0.96021,0.12573,0.41772,-0.924,3.374,2.74
2026-05-22 18:14:23.500,1357202956,51500,1,0.94409,0.09814,0.3208,-3.603,1.252,-1.237
2026-05-22 18:14:23.500,1357202956,51500,2,0.97388,0.09155,0.47144,1.412,4.756,-2.595
2026-05-22 18:14:24.700,1357204156,51700,1,0.91699,0.11255,0.33154,-0.954,0.809,-0.511
2026-05-22 18:14:24.700,1357204156,51700,2,0.97021,0.1084,0.43774,3.756,1.779,-1.817
2026-05-22 18:14:24.919,1357204375,51919,1,0.9375,0.11377,0.31689,-0.969,0.229,0.305
2026-05-22 18:14:24.919,1357204375,51919,2,0.96191,0.11499,0.43555,-5.496,0.267,1.405
2026-05-22 18:14:24.119,1357203575,52119,1,0.94702,0.09033,0.32056,-2.328,0.855,-0.115
2026-05-22 18:14:24.119,1357203575,52119,2,0.96387,0.11279,0.45288,-1.359,1.214,1.45
2026-05-22 18:14:24.319,1357203775,52319,1,0.927,0.11133,0.33496,-1.473,0.45,-0.206
2026-05-22 18:14:24.319,1357203775,52319,2,0.96851,0.10132,0.44141,-0.855,0.87,1.137
2026-05-22 18:14:25.519,1357204975,52519,1,0.94409,0.11353,0.31958,-2.183,0.84,-0.038
2026-05-22 18:14:25.519,1357204975,52519,2,0.94702,0.09863,0.43652,-0.534,2.099,0.901
2026-05-22 18:14:25.719,1357205175,52719,1,0.94092,0.09595,0.33325,-2.0,0.618,0.504
2026-05-22 18:14:25.719,1357205175,52719,2,0.96875,0.12183,0.45093,0.771,0.931,-0.664
2026-05-22 18:14:25.919,1357205375,52919,1,0.94312,0.10815,0.32349,-2.107,0.427,0.534
2026-05-22 18:14:25.919,1357205375,52919,2,0.97266,0.11646,0.43823,3.053,1.183,-0.229
2026-05-22 18:14:25.119,1357204575,53119,1,0.94019,0.10498,0.30859,-2.16,0.534,0.038
2026-05-22 18:14:25.119,1357204575,53119,2,0.96558,0.10913,0.44312,0.771,1.595,0.779
2026-05-22 18:14:25.319,1357204775,53319,1,0.9436,0.11035,0.32275,-1.939,0.58,-0.191
2026-05-22 18:14:25.319,1357204775,53319,2,0.96802,0.11108,0.44897,-1.076,1.023,1.267
2026-05-22 18:14:26.519,1357205975,53519,1,0.93994,0.11206,0.32373,-1.771,0.321,-0.038
2026-05-22 18:14:26.519,1357205975,53519,2,0.96387,0.11182,0.44702,-1.099,1.076,1.519
2026-05-22 18:14:26.724,1357206180,53724,1,0.9353,0.1084,0.32275,-1.397,1.282,-0.183
2026-05-22 18:14:26.724,1357206180,53724,2,0.9646,0.11328,0.44702,-0.878,0.74,1.565
2026-05-22 18:14:26.924,1357206380,53924,1,0.94043,0.11035,0.3269,-1.893,0.565,-0.038
2026-05-22 18:14:26.924,1357206380,53924,2,0.9624,0.10376,0.45825,-1.771,1.71,1.519
2026-05-22 18:14:26.124,1357205580,54124,1,0.93604,0.10352,0.32056,-2.649,-0.053,-0.214
2026-05-22 18:14:26.124,1357205580,54124,2,0.96484,0.10547,0.43896,-1.916,0.962,1.489
2026-05-22 18:14:26.324,1357205780,54324,1,0.9353,0.10571,0.31787,-1.718,0.672,-0.237
2026-05-22 18:14:26.324,1357205780,54324,2,0.95435,0.10278,0.44019,-2.618,0.947,2.321
2026-05-22 18:14:27.524,1357206980,54524,1,0.93555,0.10962,0.32031,-1.84,0.031,0.107
2026-05-22 18:14:27.524,1357206980,54524,2,0.96484,0.11108,0.4436,-1.878,1.427,0.649
2026-05-22 18:14:27.724,1357207180,54724,1,0.93628,0.1062,0.32349,-1.977,0.435,-0.435
2026-05-22 18:14:27.724,1357207180,54724,2,0.97559,0.10449,0.44678,-1.366,0.832,1.359
2026-05-22 18:14:27.924,1357207380,54924,1,0.93604,0.10669,0.32715,-1.382,0.847,0.275
2026-05-22 18:14:27.924,1357207380,54924,2,0.96851,0.10669,0.4375,-1.649,0.885,1.74
2026-05-22 18:14:27.124,1357206580,55124,1,0.9314,0.10229,0.32715,-1.908,0.214,0.099
2026-05-22 18:14:27.124,1357206580,55124,2,0.96631,0.10547,0.44678,-1.87,1.198,1.511
2026-05-22 18:14:27.324,1357206780,55324,1,0.94067,0.11426,0.32666,-1.962,0.42,-0.069
2026-05-22 18:14:27.324,1357206780,55324,2,0.97119,0.10742,0.44556,-2.168,1.053,1.42
2026-05-22 18:14:28.524,1357207980,55524,1,0.94019,0.11206,0.32715,-1.198,1.382,-0.107
2026-05-22 18:14:28.524,1357207980,55524,2,0.9624,0.11353,0.43726,-1.031,0.916,1.115
2026-05-22 18:14:28.737,1357208193,55736,1,0.93481,0.10986,0.32544,-1.977,0.443,0.214
2026-05-22 18:14:28.737,1357208193,55736,2,0.9707,0.1123,0.44458,-1.252,1.031,1.687
2026-05-22 18:14:28.936,1357208392,55936,1,0.93359,0.11206,0.32837,-1.214,0.397,-0.084
2026-05-22 18:14:28.936,1357208392,55936,2,0.97021,0.1123,0.44678,-0.969,0.855,1.473
2026-05-22 18:14:28.136,1357207592,56136,1,0.93677,0.10791,0.3208,-1.115,0.534,0.214
2026-05-22 18:14:28.136,1357207592,56136,2,0.95972,0.1106,0.44531,-0.55,1.198,1.237
2026-05-22 18:14:28.336,1357207792,56336,1,0.93872,0.11011,0.32568,-1.267,1.046,-0.046
2026-05-22 18:14:28.336,1357207792,56336,2,0.96362,0.11304,0.4458,0.038,0.885,1.076
2026-05-22 18:14:29.536,1357208992,56536,1,0.94043,0.10474,0.32227,-1.55,0.42,0.053
2026-05-22 18:14:29.536,1357208992,56536,2,0.96265,0.10767,0.44995,-1.122,1.206,1.412
2026-05-22 18:14:29.736,1357209192,56736,1,0.93335,0.10767,0.33105,-1.763,0.359,-0.313
2026-05-22 18:14:29.736,1357209192,56736,2,0.96875,0.11108,0.44849,-1.779,0.947,1.16
2026-05-22 18:14:29.936,1357209392,56936,1,0.93018,0.10889,0.33081,-2.313,0.099,0.061
2026-05-22 18:14:29.936,1357209392,56936,2,0.96338,0.10791,0.44287,-1.71,0.74,1.779
2026-05-22 18:14:29.136,1357208592,57136,1,0.93774,0.10034,0.32129,-1.305,0.573,0.107
2026-05-22 18:14:29.136,1357208592,57136,2,0.96704,0.11304,0.45923,-1.305,1.145,1.313
2026-05-22 18:14:29.336,1357208792,57336,1,0.93262,0.10352,0.33301,-2.099,0.504,0.229
2026-05-22 18:14:29.336,1357208792,57336,2,0.96362,0.11255,0.44775,-0.634,1.107,1.252
2026-05-22 18:14:30.536,1357209992,57536,1,0.9314,0.10303,0.33447,-1.153,0.298,0.321
2026-05-22 18:14:30.536,1357209992,57536,2,0.96973,0.10718,0.44946,-0.527,1.107,1.0
2026-05-22 18:14:30.736,1357210192,57736,1,0.93921,0.10596,0.31934,-1.634,0.313,-0.305
2026-05-22 18:14:30.736,1357210192,57736,2,0.96289,0.10815,0.4458,-1.191,1.397,1.122
2026-05-22 18:14:30.936,1357210392,57936,1,0.93408,0.10645,0.33081,-1.496,0.603,-0.198
2026-05-22 18:14:30.936,1357210392,57936,2,0.97241,0.10718,0.45093,-1.977,0.908,1.305
2026-05-22 18:14:30.136,1357209592,58136,1,0.92847,0.11108,0.33569,-1.733,0.053,0.481
2026-05-22 18:14:30.136,1357209592,58136,2,0.96704,0.10938,0.44458,-2.802,0.794,1.595
2026-05-22 18:14:30.336,1357209792,58336,1,0.93164,0.10278,0.3208,-1.511,-0.382,-0.321
2026-05-22 18:14:30.336,1357209792,58336,2,0.97144,0.10059,0.45142,-1.374,0.901,1.023
2026-05-22 18:14:31.536,1357210992,58536,1,0.9292,0.10303,0.33154,-2.13,0.099,-0.206
2026-05-22 18:14:31.536,1357210992,58536,2,0.96313,0.10815,0.44507,-0.84,1.26,1.076
2026-05-22 18:14:31.736,1357211192,58736,1,0.92749,0.10864,0.33203,-1.664,0.069,0.13
2026-05-22 18:14:31.736,1357211192,58736,2,0.97192,0.1084,0.44727,-0.252,1.168,1.176
2026-05-22 18:14:31.936,1357211392,58936,1,0.93799,0.10962,0.31909,-1.931,0.55,0.092
2026-05-22 18:14:31.936,1357211392,58936,2,0.96411,0.10718,0.44995,-0.405,1.16,0.985
2026-05-22 18:14:31.136,1357210592,59136,1,0.94141,0.10083,0.31689,-1.198,0.069,-0.397
2026-05-22 18:14:31.136,1357210592,59136,2,0.96802,0.11621,0.44434,-1.176,0.878,1.198
2026-05-22 18:14:31.336,1357210792,59336,1,0.93213,0.10645,0.32959,-2.183,-0.214,0.351
2026-05-22 18:14:31.336,1357210792,59336,2,0.96411,0.10791,0.43823,-0.931,0.809,1.183
2026-05-22 18:14:32.550,1357212006,59550,1,0.94141,0.11426,0.32764,-1.855,0.076,-0.466
2026-05-22 18:14:32.550,1357212006,59550,2,0.96021,0.09985,0.43726,-1.168,0.878,1.092
2026-05-22 18:14:32.750,1357212206,59750,1,0.93604,0.10083,0.33618,-1.817,0.58,-0.053
2026-05-22 18:14:32.750,1357212206,59750,2,0.96777,0.1145,0.44214,0.443,0.771,1.321
2026-05-22 18:14:32.950,1357212406,59950,1,0.94238,0.10913,0.33057,-1.435,-0.443,0.359
2026-05-22 18:14:32.950,1357212406,59950,2,0.96118,0.10938,0.44263,-1.084,1.29,1.527
2026-05-22 18:14:32.150,1357211606,60150,1,0.93774,0.10352,0.33301,-1.466,0.366,-0.176
2026-05-22 18:14:32.150,1357211606,60150,2,0.96265,0.1145,0.44214,-1.679,1.176,1.382
2026-05-22 18:14:32.350,1357211806,60350,1,0.93628,0.10645,0.32275,-1.71,0.779,-0.191
2026-05-22 18:14:32.350,1357211806,60350,2,0.97144,0.10986,0.43823,-2.176,1.198,1.557
2026-05-22 18:14:33.550,1357213006,60550,1,0.93555,0.11084,0.32764,-1.504,0.771,-0.443
2026-05-22 18:14:33.550,1357213006,60550,2,0.96338,0.11426,0.44995,-1.267,0.634,1.962
2026-05-22 18:14:33.750,1357213206,60750,1,0.93652,0.11475,0.32739,-1.458,0.84,0.069
2026-05-22 18:14:33.750,1357213206,60750,2,0.96582,0.11572,0.43579,0.58,0.687,-0.405
2026-05-22 18:14:33.950,1357213406,60950,1,0.94336,0.10498,0.33008,-2.939,-0.313,-0.29
2026-05-22 18:14:33.950,1357213406,60950,2,0.97241,0.09424,0.44385,-2.061,1.069,2.053
2026-05-22 18:14:33.150,1357212606,61150,1,0.93359,0.11108,0.33154,-2.0,0.443,0.214
2026-05-22 18:14:33.150,1357212606,61150,2,0.96948,0.10864,0.44116,-1.473,0.824,0.427
2026-05-22 18:14:33.363,1357212819,61363,1,0.93652,0.1084,0.33374,-1.649,-0.038,-0.137
2026-05-22 18:14:33.363,1357212819,61363,2,0.96631,0.12769,0.44043,2.481,0.74,-0.458
2026-05-22 18:14:34.563,1357214019,61563,1,0.94067,0.10425,0.31812,-1.267,0.725,-0.427
2026-05-22 18:14:34.563,1357214019,61563,2,0.96289,0.0979,0.4353,-0.992,0.962,2.817
2026-05-22 18:14:34.763,1357214219,61763,1,0.93359,0.11304,0.32056,-2.153,-0.519,0.687
2026-05-22 18:14:34.763,1357214219,61763,2,0.96362,0.11182,0.44409,-1.58,1.473,1.664
2026-05-22 18:14:34.963,1357214419,61963,1,0.92578,0.11157,0.3291,-1.366,0.725,-0.969
2026-05-22 18:14:34.963,1357214419,61963,2,0.96167,0.09912,0.43555,-3.763,0.611,3.847
2026-05-22 18:14:34.163,1357213619,62163,1,0.93823,0.09766,0.32788,-0.855,-0.076,1.511
2026-05-22 18:14:34.163,1357213619,62163,2,0.95898,0.12085,0.44263,-1.298,0.962,0.046
2026-05-22 18:14:34.363,1357213819,62363,1,0.93628,0.10889,0.31909,-2.061,0.176,-1.198
2026-05-22 18:14:34.363,1357213819,62363,2,0.9624,0.10913,0.43823,0.863,0.87,1.557
2026-05-22 18:14:35.563,1357215019,62563,1,0.93579,0.10474,0.32349,-2.046,0.084,0.534
2026-05-22 18:14:35.563,1357215019,62563,2,0.97681,0.10669,0.44727,0.069,1.573,0.809
2026-05-22 18:14:35.763,1357215219,62763,1,0.93799,0.11011,0.32471,-1.405,0.756,-0.092
2026-05-22 18:14:35.763,1357215219,62763,2,0.96558,0.11548,0.44507,-1.366,1.267,1.015
2026-05-22 18:14:35.963,1357215419,62963,1,0.93579,0.10571,0.31909,-1.489,0.954,-0.321
2026-05-22 18:14:35.963,1357215419,62963,2,0.96973,0.11255,0.44629,-0.893,1.176,0.992
2026-05-22 18:14:35.163,1357214619,63163,1,0.94116,0.09961,0.32471,-1.885,0.366,-0.412
2026-05-22 18:14:35.163,1357214619,63163,2,0.96362,0.11133,0.45044,-1.076,1.305,1.122
2026-05-22 18:14:35.363,1357214819,63363,1,0.93164,0.10083,0.33325,-2.473,0.099,-0.107
2026-05-22 18:14:35.363,1357214819,63363,2,0.96631,0.10571,0.44238,-2.076,0.954,1.435
2026-05-22 18:14:36.563,1357216019,63563,1,0.93604,0.0979,0.32837,-0.336,-0.023,-0.29
2026-05-22 18:14:36.563,1357216019,63563,2,0.96973,0.10962,0.44873,-0.366,0.573,0.649
2026-05-22 18:14:36.763,1357216219,63763,1,0.93213,0.11035,0.33081,-2.29,-0.008,-0.405
2026-05-22 18:14:36.763,1357216219,63763,2,0.96289,0.11133,0.43115,-0.206,0.931,1.214
2026-05-22 18:14:36.963,1357216419,63963,1,0.93848,0.104,0.32324,-1.298,0.405,0.153
2026-05-22 18:14:36.963,1357216419,63963,2,0.97729,0.10742,0.43848,-1.145,1.595,2.298
2026-05-22 18:14:36.163,1357215619,64163,1,0.92847,0.09888,0.3208,-1.695,0.29,-0.069
2026-05-22 18:14:36.163,1357215619,64163,2,0.96997,0.10132,0.4541,-0.267,1.298,1.832
2026-05-22 18:14:36.363,1357215819,64363,1,0.9353,0.09375,0.32422,-1.511,0.206,0.397
2026-05-22 18:14:36.363,1357215819,64363,2,0.96948,0.1001,0.44897,0.511,1.924,0.298
2026-05-22 18:14:37.563,1357217019,64563,1,0.93481,0.10278,0.33496,-1.603,-1.519,-1.267
2026-05-22 18:14:37.563,1357217019,64563,2,0.96313,0.10571,0.45459,-2.878,-0.008,1.427
2026-05-22 18:14:37.763,1357217219,64763,1,0.94019,0.11523,0.31592,-3.023,-0.405,-0.344
2026-05-22 18:14:37.763,1357217219,64763,2,0.96851,0.10718,0.44482,-1.351,0.687,0.87
2026-05-22 18:14:37.963,1357217419,64963,1,0.94287,0.10962,0.3208,-2.153,0.145,-0.183
2026-05-22 18:14:37.963,1357217419,64963,2,0.96973,0.10669,0.44897,-1.748,0.939,1.656
2026-05-22 18:14:40.062,1357219518,68062,1,0.92773,0.10474,0.33228,-1.252,0.092,0.16
2026-05-22 18:14:40.062,1357219518,68062,2,0.96802,0.1001,0.44678,-0.298,1.29,0.939
2026-05-22 18:14:40.262,1357219718,68262,1,0.93774,0.10791,0.32715,-1.656,0.71,-0.206
2026-05-22 18:14:40.262,1357219718,68262,2,0.97046,0.10571,0.44189,0.374,1.221,1.015
2026-05-22 18:14:40.462,1357219918,68462,1,0.9375,0.11646,0.31616,-1.26,0.74,-0.588
2026-05-22 18:14:40.462,1357219918,68462,2,0.96094,0.09937,0.45532,-0.725,0.519,0.931
2026-05-22 18:14:41.662,1357221118,68662,1,0.93335,0.11108,0.31689,-2.137,-0.099,0.137
2026-05-22 18:14:41.662,1357221118,68662,2,0.97046,0.10376,0.45337,-0.87,0.756,1.748
2026-05-22 18:14:41.862,1357221318,68862,1,0.94165,0.11328,0.32446,-1.198,0.603,0.817
2026-05-22 18:14:41.862,1357221318,68862,2,0.96973,0.10718,0.45166,-0.725,1.328,1.58
2026-05-22 18:14:41.062,1357220518,69062,1,0.93213,0.10889,0.3269,-1.397,0.511,-0.176
2026-05-22 18:14:41.062,1357220518,69062,2,0.96997,0.104,0.45068,-0.573,0.855,0.985
2026-05-22 18:14:41.262,1357220718,69262,1,0.93823,0.10205,0.32983,-2.107,0.565,-0.214
2026-05-22 18:14:41.262,1357220718,69262,2,0.96777,0.10498,0.44922,-0.298,0.878,0.855
2026-05-22 18:14:41.462,1357220918,69462,1,0.93628,0.11011,0.31616,-2.244,0.122,-0.176
2026-05-22 18:14:41.462,1357220918,69462,2,0.96265,0.10229,0.44702,-0.183,1.221,0.748
2026-05-22 18:14:42.662,1357222118,69662,1,0.94067,0.11768,0.31763,-2.771,0.168,0.466
2026-05-22 18:14:42.662,1357222118,69662,2,0.97095,0.10645,0.46289,-1.351,0.962,0.817
2026-05-22 18:14:42.862,1357222318,69862,1,0.94263,0.10132,0.32373,-2.244,0.847,-0.496
2026-05-22 18:14:42.862,1357222318,69862,2,0.96973,0.10059,0.4541,-0.893,2.695,0.427
2026-05-22 18:14:42.062,1357221518,70062,1,0.93433,0.1084,0.33423,-3.527,1.565,0.748
2026-05-22 18:14:42.062,1357221518,70062,2,0.96704,0.1123,0.44971,-1.374,1.954,1.481
2026-05-22 18:14:42.262,1357221718,70262,1,0.93042,0.10327,0.33154,-1.939,0.855,-0.244
2026-05-22 18:14:42.262,1357221718,70262,2,0.96753,0.10596,0.46216,-2.053,0.809,1.389
2026-05-22 18:14:42.462,1357221918,70462,1,0.93188,0.10059,0.32935,-1.832,-0.198,-0.046
2026-05-22 18:14:42.462,1357221918,70462,2,0.96899,0.10059,0.45923,-2.901,1.389,1.916
2026-05-22 18:14:43.662,1357223118,70662,1,0.92773,0.10449,0.33081,-0.679,0.176,-0.107
2026-05-22 18:14:43.662,1357223118,70662,2,0.9668,0.09888,0.45776,-1.107,0.328,0.908
2026-05-22 18:14:43.874,1357223330,70874,1,0.93164,0.10034,0.32471,-2.107,-0.267,-0.794
2026-05-22 18:14:43.874,1357223330,70874,2,0.97095,0.10449,0.45972,-1.466,0.336,1.374
2026-05-22 18:14:43.074,1357222530,71074,1,0.93018,0.10107,0.33228,-4.046,-0.695,-0.557
2026-05-22 18:14:43.074,1357222530,71074,2,0.9646,0.10596,0.45483,-0.802,0.565,1.664
2026-05-22 18:14:43.274,1357222730,71274,1,0.9397,0.11475,0.32935,-1.863,-0.473,-0.748
2026-05-22 18:14:43.274,1357222730,71274,2,0.96436,0.10376,0.45752,-2.397,0.168,2.267
2026-05-22 18:14:43.474,1357222930,71474,1,0.94604,0.11646,0.31104,-1.092,-0.26,0.084
2026-05-22 18:14:43.474,1357222930,71474,2,0.96875,0.10498,0.4436,-1.298,1.634,1.458
2026-05-22 18:14:44.674,1357224130,71674,1,0.92725,0.11426,0.32373,-1.664,1.023,0.176
2026-05-22 18:14:44.674,1357224130,71674,2,0.96704,0.10596,0.44629,-0.58,1.267,1.725
2026-05-22 18:14:44.977,1357224433,71977,1,0.93774,0.10059,0.33423,-0.908,0.275,0.351
2026-05-22 18:14:44.977,1357224433,71977,2,0.97095,0.09668,0.45581,-0.061,1.244,1.282
2026-05-22 18:14:44.177,1357223633,72177,1,0.93921,0.09521,0.32788,-0.824,1.504,-0.153
2026-05-22 18:14:44.177,1357223633,72177,2,0.96802,0.11011,0.46436,0.115,0.878,0.901
2026-05-22 18:14:44.377,1357223833,72377,1,0.92871,0.10645,0.32275,-1.687,0.26,-0.16
2026-05-22 18:14:44.377,1357223833,72377,2,0.96484,0.09985,0.45264,-2.481,1.023,2.015
2026-05-22 18:14:45.577,1357225033,72577,1,0.93408,0.10864,0.33252,-1.015,-0.008,0.298
2026-05-22 18:14:45.577,1357225033,72577,2,0.9624,0.09546,0.45386,-2.176,1.55,1.168
2026-05-22 18:14:45.777,1357225233,72777,1,0.93115,0.10156,0.33594,-0.458,0.809,0.466
2026-05-22 18:14:45.777,1357225233,72777,2,0.96899,0.10913,0.448,-2.084,0.718,1.733
2026-05-22 18:14:45.977,1357225433,72977,1,0.93506,0.0957,0.32788,-2.298,0.176,0.008
2026-05-22 18:14:45.977,1357225433,72977,2,0.96924,0.09863,0.4519,-2.45,0.473,1.519
2026-05-22 18:14:45.177,1357224633,73177,1,0.9292,0.10742,0.32666,-2.328,-0.397,-0.137
2026-05-22 18:14:45.177,1357224633,73177,2,0.96045,0.104,0.45654,-2.298,0.733,2.42
2026-05-22 18:14:45.377,1357224833,73377,1,0.93359,0.09863,0.32861,-1.473,-0.13,-0.092
2026-05-22 18:14:45.377,1357224833,73377,2,0.96509,0.104,0.45313,-1.412,0.855,1.863
2026-05-22 18:14:46.577,1357226033,73577,1,0.94116,0.10327,0.3252,-1.748,0.267,0.023
2026-05-22 18:14:46.577,1357226033,73577,2,0.97119,0.10034,0.45532,-0.573,1.076,1.237
2026-05-22 18:14:46.777,1357226233,73777,1,0.93335,0.09741,0.33105,-1.183,0.305,0.313
2026-05-22 18:14:46.777,1357226233,73777,2,0.9707,0.10938,0.4458,1.069,0.786,1.015
2026-05-22 18:14:46.977,1357226433,73977,1,0.93726,0.10132,0.33105,-1.542,0.244,-0.084
2026-05-22 18:14:46.977,1357226433,73977,2,0.96655,0.10474,0.45483,0.183,1.267,0.908
2026-05-22 18:14:46.177,1357225633,74177,1,0.93799,0.10522,0.32495,-2.038,0.252,0.008
2026-05-22 18:14:46.177,1357225633,74177,2,0.97144,0.10571,0.45703,-0.84,1.183,1.206
2026-05-22 18:14:46.377,1357225833,74377,1,0.93262,0.10522,0.33472,-1.198,0.084,0.359
2026-05-22 18:14:46.377,1357225833,74377,2,0.9646,0.09595,0.4502,-0.45,1.26,1.008
2026-05-22 18:14:47.577,1357227033,74577,1,0.93359,0.11548,0.32056,-3.763,-0.115,0.679
2026-05-22 18:14:47.577,1357227033,74577,2,0.96729,0.12061,0.44775,1.679,1.031,-0.779
2026-05-22 18:14:47.777,1357227233,74777,1,0.94238,0.10596,0.33081,-0.573,-0.542,0.099
2026-05-22 18:14:47.777,1357227233,74777,2,0.9668,0.11646,0.45142,-2.847,0.038,0.855
2026-05-22 18:14:47.977,1357227433,74977,1,0.94702,0.10425,0.31665,-4.13,-0.191,-0.618
2026-05-22 18:14:47.977,1357227433,74977,2,0.97607,0.10669,0.45288,-2.626,0.756,1.29
2026-05-22 18:14:47.177,1357226633,75177,1,0.94482,0.10449,0.31909,-3.252,0.763,-0.763
2026-05-22 18:14:47.177,1357226633,75177,2,0.96729,0.10791,0.45239,-1.763,1.527,0.977
2026-05-22 18:14:47.377,1357226833,75377,1,0.93408,0.10181,0.32178,-1.802,1.351,-0.26
2026-05-22 18:14:47.377,1357226833,75377,2,0.96021,0.0896,0.46143,-1.168,0.756,0.366
2026-05-22 18:14:48.577,1357228033,75577,1,0.93555,0.10303,0.31396,-1.74,0.176,-0.45
2026-05-22 18:14:48.577,1357228033,75577,2,0.96851,0.11304,0.44751,-2.176,0.809,1.336
2026-05-22 18:14:48.777,1357228233,75777,1,0.93164,0.10449,0.32129,-1.031,0.351,-0.191
2026-05-22 18:14:48.777,1357228233,75777,2,0.96362,0.10889,0.43994,-0.473,1.595,1.298
2026-05-22 18:14:48.977,1357228433,75977,1,0.94385,0.10278,0.32959,-2.344,0.26,-0.206
2026-05-22 18:14:48.977,1357228433,75977,2,0.96875,0.10596,0.44507,-0.305,1.939,1.015
2026-05-22 18:14:48.177,1357227633,76177,1,0.94043,0.1106,0.33521,-3.252,0.595,-0.221
2026-05-22 18:14:48.177,1357227633,76177,2,0.95776,0.09741,0.45898,-1.573,1.252,0.908
2026-05-22 18:14:48.377,1357227833,76377,1,0.93359,0.11572,0.33887,-1.618,-0.542,-1.458
2026-05-22 18:14:48.377,1357227833,76377,2,0.96143,0.11328,0.44702,5.107,1.298,-0.443
2026-05-22 18:14:49.789,1357229245,76789,1,0.93652,0.10303,0.32397,0.061,-0.771,0.489
2026-05-22 18:14:49.789,1357229245,76789,2,0.97144,0.10718,0.4458,-2.237,1.046,2.168
2026-05-22 18:14:49.109,1357228565,77109,1,0.93677,0.09961,0.32349,-0.221,0.137,-0.725
2026-05-22 18:14:49.109,1357228565,77109,2,0.96313,0.09985,0.45337,-3.588,0.618,1.763
2026-05-22 18:14:49.309,1357228765,77309,1,0.93701,0.10913,0.31836,-1.771,0.122,0.053
2026-05-22 18:14:49.309,1357228765,77309,2,0.9751,0.10938,0.44775,-3.504,0.191,1.779
2026-05-22 18:14:49.509,1357228965,77509,1,0.948,0.1123,0.30981,-1.924,-0.313,-0.656
2026-05-22 18:14:49.509,1357228965,77509,2,0.9729,0.1145,0.44238,-2.55,1.191,1.786
2026-05-22 18:14:50.709,1357230165,77709,1,0.93506,0.10938,0.32007,-1.443,0.802,0.153
2026-05-22 18:14:50.709,1357230165,77709,2,0.97241,0.11279,0.44043,-2.153,1.145,1.672
2026-05-22 18:14:50.909,1357230365,77909,1,0.93945,0.10303,0.32056,-0.931,0.534,0.053
2026-05-22 18:14:50.909,1357230365,77909,2,0.96729,0.11377,0.44531,-0.344,0.931,1.229
2026-05-22 18:14:50.109,1357229565,78109,1,0.94507,0.09497,0.32446,-0.092,0.687,-0.763
2026-05-22 18:14:50.109,1357229565,78109,2,0.96094,0.10693,0.43921,-1.092,1.382,1.427
2026-05-22 18:14:50.345,1357229801,78345,1,0.93921,0.11304,0.31812,-2.153,0.168,-0.198
2026-05-22 18:14:50.345,1357229801,78345,2,0.96802,0.10132,0.45313,-1.664,1.099,1.321
2026-05-22 18:14:51.545,1357231001,78545,1,0.93311,0.10547,0.32007,-2.893,-0.069,0.145
2026-05-22 18:14:51.545,1357231001,78545,2,0.96606,0.11279,0.45142,-1.153,1.336,1.496
2026-05-22 18:14:51.745,1357231201,78745,1,0.93457,0.10449,0.32227,-1.725,0.107,0.458
2026-05-22 18:14:51.745,1357231201,78745,2,0.96851,0.10156,0.43335,-1.107,1.168,1.198
2026-05-22 18:14:51.945,1357231401,78945,1,0.93774,0.11304,0.32495,-2.519,0.641,0.466
2026-05-22 18:14:51.945,1357231401,78945,2,0.96313,0.11353,0.44971,-0.718,1.344,1.443
2026-05-22 18:14:51.145,1357230601,79145,1,0.93237,0.10278,0.32715,-1.389,0.42,-0.321
2026-05-22 18:14:51.145,1357230601,79145,2,0.9668,0.11597,0.44263,0.038,1.382,0.733
2026-05-22 18:14:51.345,1357230801,79345,1,0.94019,0.09888,0.32178,-1.687,0.565,-0.321
2026-05-22 18:14:51.345,1357230801,79345,2,0.96948,0.11279,0.45337,-1.389,1.298,1.015
2026-05-22 18:14:52.545,1357232001,79545,1,0.94189,0.10474,0.3186,-1.328,0.588,0.107
2026-05-22 18:14:52.545,1357232001,79545,2,0.97046,0.10205,0.44604,-0.466,1.489,0.618
2026-05-22 18:14:52.745,1357232201,79745,1,0.93164,0.11255,0.323,-1.962,0.511,0.16
2026-05-22 18:14:52.745,1357232201,79745,2,0.97241,0.11108,0.44727,-0.282,1.389,0.977
2026-05-22 18:14:52.945,1357232401,79945,1,0.93433,0.10864,0.31885,-1.443,0.763,-0.107
2026-05-22 18:14:52.945,1357232401,79945,2,0.96777,0.10913,0.4375,-0.985,1.359,0.878
2026-05-22 18:14:52.145,1357231601,80145,1,0.93945,0.1106,0.32642,-2.435,0.26,0.405
2026-05-22 18:14:52.145,1357231601,80145,2,0.97729,0.11377,0.45605,-2.618,1.099,1.603
2026-05-22 18:14:52.345,1357231801,80345,1,0.93848,0.12134,0.31958,-2.221,-0.16,0.176
2026-05-22 18:14:52.345,1357231801,80345,2,0.96289,0.11304,0.4458,-2.046,0.885,1.679
2026-05-22 18:14:53.545,1357233001,80545,1,0.94287,0.11621,0.31641,-1.718,0.443,0.046
2026-05-22 18:14:53.545,1357233001,80545,2,0.97119,0.11304,0.44141,-0.275,1.046,1.389
2026-05-22 18:14:53.745,1357233201,80745,1,0.9397,0.10278,0.32642,-1.588,0.206,0.16
2026-05-22 18:14:53.745,1357233201,80745,2,0.96851,0.10864,0.45264,0.168,0.656,1.29
2026-05-22 18:14:53.945,1357233401,80945,1,0.93945,0.10645,0.3252,-1.969,0.328,0.282
2026-05-22 18:14:53.945,1357233401,80945,2,0.97266,0.11133,0.45361,-0.023,1.061,1.427
2026-05-22 18:14:53.145,1357232601,81145,1,0.93774,0.11279,0.32129,-1.527,0.573,0.244
2026-05-22 18:14:53.145,1357232601,81145,2,0.96533,0.10181,0.44067,-0.794,0.71,1.489
2026-05-22 18:14:53.345,1357232801,81345,1,0.93945,0.10693,0.31934,-2.183,0.336,-0.046
2026-05-22 18:14:53.345,1357232801,81345,2,0.97021,0.10645,0.44092,-1.344,1.092,1.008
2026-05-22 18:14:54.601,1357234057,81601,1,0.93848,0.1106,0.32397,-1.534,0.191,0.122
2026-05-22 18:14:54.601,1357234057,81601,2,0.96753,0.1084,0.44824,-0.74,0.985,1.214
2026-05-22 18:14:54.801,1357234257,81801,1,0.93701,0.11011,0.32202,-1.901,0.214,0.466
2026-05-22 18:14:54.801,1357234257,81801,2,0.96655,0.10303,0.44141,-1.466,1.603,1.374
2026-05-22 18:14:54.001,1357233457,82001,1,0.93677,0.11157,0.32153,-1.458,0.397,-0.382
2026-05-22 18:14:54.001,1357233457,82001,2,0.9668,0.10645,0.44727,-1.634,1.137,1.405
2026-05-22 18:14:54.201,1357233657,82201,1,0.93652,0.11206,0.31787,-1.672,0.374,-0.008
2026-05-22 18:14:54.201,1357233657,82201,2,0.96753,0.10693,0.43945,-1.809,1.427,1.153
2026-05-22 18:14:54.401,1357233857,82401,1,0.93921,0.11499,0.3313,-2.122,0.321,0.267
2026-05-22 18:14:54.401,1357233857,82401,2,0.96704,0.10645,0.44775,-1.992,1.29,1.634
2026-05-22 18:14:55.601,1357235057,82601,1,0.93701,0.11279,0.3186,-1.656,0.061,0.046
2026-05-22 18:14:55.601,1357235057,82601,2,0.96973,0.10718,0.44458,-1.71,1.26,1.504
2026-05-22 18:14:55.801,1357235257,82801,1,0.93384,0.10571,0.32886,-1.069,0.634,0.214
2026-05-22 18:14:55.801,1357235257,82801,2,0.96338,0.11108,0.44629,-0.053,1.137,1.229
2026-05-22 18:14:55.001,1357234457,83001,1,0.93872,0.10034,0.32837,-1.809,0.405,0.061
2026-05-22 18:14:55.001,1357234457,83001,2,0.96362,0.09741,0.43506,0.252,0.473,0.504
2026-05-22 18:14:55.201,1357234657,83201,1,0.93481,0.1167,0.33521,-2.344,-0.481,-0.359
2026-05-22 18:14:55.201,1357234657,83201,2,0.96851,0.10864,0.45117,-1.084,0.748,1.061
2026-05-22 18:14:55.401,1357234857,83401,1,0.93408,0.11328,0.32935,-1.802,0.298,0.069
2026-05-22 18:14:55.401,1357234857,83401,2,0.96899,0.10889,0.43774,-0.733,0.885,1.359
2026-05-22 18:14:56.601,1357236057,83601,1,0.93774,0.10669,0.31982,-1.29,0.931,-0.183
2026-05-22 18:14:56.601,1357236057,83601,2,0.97046,0.10962,0.4436,-1.748,0.908,1.87
2026-05-22 18:14:56.801,1357236257,83801,1,0.93945,0.11108,0.32617,-1.542,0.603,-0.023
2026-05-22 18:14:56.801,1357236257,83801,2,0.97021,0.10986,0.44141,-0.221,0.74,0.313
2026-05-22 18:14:56.001,1357235457,84001,1,0.93481,0.10962,0.32178,-2.626,-0.55,0.153
2026-05-22 18:14:56.001,1357235457,84001,2,0.96655,0.10791,0.44629,-0.847,1.168,1.13
2026-05-22 18:14:56.201,1357235657,84201,1,0.94019,0.10864,0.3269,-1.45,0.008,0.267
2026-05-22 18:14:56.201,1357235657,84201,2,0.96606,0.11694,0.43823,-0.748,1.198,1.443
2026-05-22 18:14:56.401,1357235857,84401,1,0.94043,0.10864,0.33081,-0.985,0.771,-0.107
2026-05-22 18:14:56.401,1357235857,84401,2,0.9646,0.11206,0.44287,-1.847,0.771,1.366
2026-05-22 18:14:57.601,1357237057,84601,1,0.93823,0.11011,0.32056,-1.595,-0.107,0.137
2026-05-22 18:14:57.601,1357237057,84601,2,0.96362,0.10815,0.44849,-2.359,1.16,1.603
2026-05-22 18:14:57.801,1357237257,84801,1,0.94214,0.10547,0.31641,-1.366,0.351,-0.183
2026-05-22 18:14:57.801,1357237257,84801,2,0.96289,0.11084,0.44824,-2.817,1.321,1.519
2026-05-22 18:14:57.001,1357236457,85001,1,0.93384,0.10742,0.3208,-0.992,0.42,-0.107
2026-05-22 18:14:57.001,1357236457,85001,2,0.96484,0.11328,0.44678,-2.229,1.595,1.412
2026-05-22 18:14:57.201,1357236657,85201,1,0.93579,0.10986,0.32593,-2.443,-0.038,0.29
2026-05-22 18:14:57.201,1357236657,85201,2,0.95874,0.12671,0.44531,-0.817,0.588,1.405
2026-05-22 18:14:57.401,1357236857,85401,1,0.93555,0.11304,0.31567,-1.687,0.092,-0.122
2026-05-22 18:14:57.401,1357236857,85401,2,0.96606,0.11133,0.4458,-1.115,1.13,1.13
2026-05-22 18:14:58.601,1357238057,85601,1,0.92944,0.11987,0.31958,-2.282,-0.015,0.16
2026-05-22 18:14:58.601,1357238057,85601,2,0.9707,0.1106,0.4502,-1.336,0.847,2.061
2026-05-22 18:14:58.801,1357238257,85801,1,0.93457,0.10669,0.32153,-1.198,0.397,0.099
2026-05-22 18:14:58.801,1357238257,85801,2,0.97241,0.11304,0.44751,-0.374,1.069,1.176
2026-05-22 18:14:58.001,1357237457,86001,1,0.93506,0.10107,0.32861,-1.878,0.008,0.107
2026-05-22 18:14:58.001,1357237457,86001,2,0.96191,0.12158,0.43628,0.87,1.115,1.519
2026-05-22 18:14:58.201,1357237657,86201,1,0.94238,0.10815,0.32788,-0.947,0.023,-0.061
2026-05-22 18:14:58.201,1357237657,86201,2,0.9624,0.10352,0.43628,0.191,0.664,0.641
2026-05-22 18:14:58.401,1357237857,86401,1,0.93701,0.10596,0.32202,-3.183,-0.053,-0.443
2026-05-22 18:14:58.401,1357237857,86401,2,0.96729,0.11719,0.44141,-1.076,0.695,1.298
2026-05-22 18:14:59.601,1357239057,86601,1,0.94336,0.1106,0.31396,-1.481,0.282,-0.489
2026-05-22 18:14:59.601,1357239057,86601,2,0.96997,0.11938,0.44604,-1.252,1.031,1.863
2026-05-22 18:14:59.801,1357239257,86801,1,0.93994,0.11743,0.31201,-1.405,0.603,0.336
2026-05-22 18:14:59.801,1357239257,86801,2,0.96851,0.11011,0.43774,-1.504,1.435,1.336
2026-05-22 18:14:59.001,1357238457,87001,1,0.93872,0.10962,0.32007,-1.511,0.42,0.176
2026-05-22 18:14:59.001,1357238457,87001,2,0.96289,0.10938,0.44922,-1.412,1.122,1.374
2026-05-22 18:14:59.201,1357238657,87201,1,0.94385,0.10303,0.31299,-1.496,0.29,0.084
2026-05-22 18:14:59.201,1357238657,87201,2,0.96582,0.1106,0.44189,-2.359,0.969,1.595
2026-05-22 18:14:59.401,1357238857,87401,1,0.93652,0.11133,0.32007,-1.802,0.183,-0.206
2026-05-22 18:14:59.401,1357238857,87401,2,0.96289,0.10889,0.4458,-1.74,1.313,1.252
2026-05-22 18:15:00.601,1357240057,87601,1,0.93872,0.10205,0.32422,-1.718,0.603,0.573
2026-05-22 18:15:00.601,1357240057,87601,2,0.96631,0.10986,0.44189,-0.817,1.817,2.221
2026-05-22 18:15:00.801,1357240257,87801,1,0.9353,0.10205,0.32715,-1.107,0.931,0.435
2026-05-22 18:15:00.801,1357240257,87801,2,0.96484,0.10718,0.45313,-1.092,0.908,1.527
2026-05-22 18:15:00.001,1357239457,88001,1,0.93994,0.09741,0.32007,-2.008,1.038,0.053
2026-05-22 18:15:00.001,1357239457,88001,2,0.97339,0.10352,0.44189,-0.611,0.863,0.878
2026-05-22 18:15:00.201,1357239657,88201,1,0.9375,0.10229,0.32495,-2.008,-0.939,-0.206
2026-05-22 18:15:00.201,1357239657,88201,2,0.9668,0.11157,0.4541,-1.382,0.565,1.466
2026-05-22 18:15:00.401,1357239857,88401,1,0.93799,0.10742,0.31763,-1.832,1.321,-0.061
2026-05-22 18:15:00.401,1357239857,88401,2,0.97412,0.10376,0.44312,-0.198,1.557,0.84
2026-05-22 18:15:01.601,1357241057,88601,1,0.93359,0.10254,0.32495,-1.832,-1.137,-0.008
2026-05-22 18:15:01.601,1357241057,88601,2,0.96533,0.10596,0.45679,-0.664,0.664,1.328
2026-05-22 18:15:01.801,1357241257,88801,1,0.94141,0.10498,0.3147,-1.626,1.122,-0.084
2026-05-22 18:15:01.801,1357241257,88801,2,0.97461,0.10815,0.4397,-0.87,0.901,0.626
2026-05-22 18:15:01.001,1357240457,89001,1,0.93433,0.10669,0.3147,-1.947,-0.252,-0.053
2026-05-22 18:15:01.001,1357240457,89001,2,0.96069,0.11108,0.46094,-1.008,0.847,1.634
2026-05-22 18:15:01.201,1357240657,89201,1,0.93555,0.10767,0.3186,-1.534,1.198,0.038
2026-05-22 18:15:01.201,1357240657,89201,2,0.97046,0.10596,0.43872,-0.351,1.221,1.015
2026-05-22 18:15:01.401,1357240857,89401,1,0.93066,0.10132,0.33154,-1.595,-0.71,-0.053
2026-05-22 18:15:01.401,1357240857,89401,2,0.96631,0.10425,0.45386,-0.725,0.641,1.573
2026-05-22 18:15:02.601,1357242057,89601,1,0.94019,0.10986,0.32275,-1.786,1.779,-0.092
2026-05-22 18:15:02.601,1357242057,89601,2,0.97681,0.10791,0.42603,-0.504,1.359,0.702
2026-05-22 18:15:02.801,1357242257,89801,1,0.93433,0.10669,0.33154,-1.802,-2.634,0.092
2026-05-22 18:15:02.801,1357242257,89801,2,0.96802,0.10791,0.46387,-1.405,0.916,1.779
2026-05-22 18:15:02.001,1357241457,90001,1,0.94434,0.10693,0.32227,-1.466,2.786,-0.13
2026-05-22 18:15:02.001,1357241457,90001,2,0.97681,0.10815,0.42627,-1.519,1.603,0.565
2026-05-22 18:15:02.201,1357241657,90201,1,0.9314,0.10986,0.32935,-1.863,-2.733,0.008
2026-05-22 18:15:02.201,1357241657,90201,2,0.9585,0.10229,0.4585,-3.618,0.252,2.29
2026-05-22 18:15:02.401,1357241857,90401,1,0.94409,0.10547,0.31909,-1.954,1.969,-0.176
2026-05-22 18:15:02.401,1357241857,90401,2,0.96851,0.10938,0.43018,-2.145,0.229,0.595
2026-05-22 18:15:03.601,1357243057,90601,1,0.93213,0.11133,0.31909,-2.145,-1.466,-0.397
2026-05-22 18:15:03.601,1357243057,90601,2,0.9668,0.11011,0.45996,-2.718,1.153,1.977
2026-05-22 18:15:03.801,1357243257,90801,1,0.93701,0.11377,0.32471,-1.504,0.71,-0.069
2026-05-22 18:15:03.801,1357243257,90801,2,0.97241,0.11133,0.43018,-2.863,0.351,1.802
2026-05-22 18:15:03.001,1357242457,91001,1,0.93872,0.11304,0.33374,-3.939,-11.695,1.359
2026-05-22 18:15:03.001,1357242457,91001,2,0.95288,0.08691,0.42163,-10.29,-6.389,5.321
2026-05-22 18:15:03.201,1357242657,91201,1,0.95508,0.06567,0.2876,-14.824,-15.023,-0.023
2026-05-22 18:15:03.201,1357242657,91201,2,0.98315,0.06689,0.40186,-20.504,-15.74,15.42
2026-05-22 18:15:03.401,1357242857,91401,1,0.99048,0.06128,0.21582,-10.672,-8.969,-1.267
2026-05-22 18:15:03.401,1357242857,91401,2,0.97192,0.05151,0.36621,0.672,-9.641,5.336
2026-05-22 18:15:04.601,1357244057,91601,1,1.01294,0.06567,0.19092,-3.832,-1.0,-5.855
2026-05-22 18:15:04.601,1357244057,91601,2,0.96851,0.02271,0.2998,-2.603,-4.366,2.359
2026-05-22 18:15:04.801,1357244257,91801,1,1.02002,0.07983,0.15771,-1.374,-3.695,4.649
2026-05-22 18:15:04.801,1357244257,91801,2,0.97192,0.04468,0.30811,2.496,3.565,-0.626
2026-05-22 18:15:04.001,1357243457,92001,1,1.00513,0.073,0.20605,-1.458,-2.023,-1.099
2026-05-22 18:15:04.001,1357243457,92001,2,0.96582,0.05054,0.32861,0.481,2.748,0.397
2026-05-22 18:15:04.201,1357243657,92201,1,1.0271,0.10449,0.19531,-2.229,0.015,3.672
2026-05-22 18:15:04.201,1357243657,92201,2,0.96045,0.01587,0.30249,-4.87,-0.359,10.168
2026-05-22 18:15:04.401,1357243857,92401,1,0.99585,0.04858,0.18237,-13.504,-0.275,3.878
2026-05-22 18:15:04.401,1357243857,92401,2,0.96509,-0.01953,0.32715,-5.427,1.496,8.29
2026-05-22 18:15:05.601,1357245057,92601,1,0.99854,0.0249,0.19531,-5.863,2.389,6.107
2026-05-22 18:15:05.601,1357245057,92601,2,0.96387,-0.01782,0.32983,-1.947,0.802,3.176
2026-05-22 18:15:05.801,1357245257,92801,1,1.0105,0.0127,0.20557,2.595,1.489,-2.176
2026-05-22 18:15:05.801,1357245257,92801,2,0.96875,-0.01025,0.31616,1.802,2.115,-5.687
2026-05-22 18:15:05.001,1357244457,93001,1,1.01221,0.04883,0.16333,12.496,0.832,-0.649
2026-05-22 18:15:05.001,1357244457,93001,2,0.96582,0.05469,0.33301,3.176,5.763,-8.756
2026-05-22 18:15:05.201,1357244657,93201,1,1.00098,0.03809,0.18164,5.168,2.267,-2.588
2026-05-22 18:15:05.201,1357244657,93201,2,0.97241,0.06274,0.36426,5.771,6.168,-12.321
2026-05-22 18:15:05.401,1357244857,93401,1,0.979,0.09937,0.18408,10.153,3.435,-0.527
2026-05-22 18:15:05.401,1357244857,93401,2,0.97217,0.10693,0.35693,-1.924,4.115,-2.237
2026-05-22 18:15:06.601,1357246057,93601,1,1.01514,0.11865,0.18384,-4.84,6.885,-13.542
2026-05-22 18:15:06.601,1357246057,93601,2,0.97339,0.08984,0.38428,-7.588,-3.275,15.092
2026-05-22 18:15:06.801,1357246257,93801,1,1.03442,0.08423,0.20703,-20.221,-1.611,5.176
2026-05-22 18:15:06.801,1357246257,93801,2,0.98364,0.07202,0.34888,-7.534,3.939,9.779
2026-05-22 18:15:06.001,1357245457,94001,1,0.91943,0.18091,0.29028,13.336,9.176,12.802
2026-05-22 18:15:06.001,1357245457,94001,2,0.88965,0.15137,0.39697,32.237,21.13,-10.298
2026-05-22 18:15:06.201,1357245657,94201,1,0.94678,0.1123,0.27905,-7.046,10.145,4.542
2026-05-22 18:15:06.201,1357245657,94201,2,0.9646,0.08276,0.41748,10.061,8.565,7.771
2026-05-22 18:15:06.401,1357245857,94401,1,0.9502,0.05518,0.2998,-1.542,6.534,4.489
2026-05-22 18:15:06.401,1357245857,94401,2,0.979,0.04419,0.45605,5.679,3.046,5.099
2026-05-22 18:15:07.601,1357247057,94601,1,0.95972,0.03101,0.30493,1.71,5.137,4.45
2026-05-22 18:15:07.601,1357247057,94601,2,0.96631,0.03101,0.45557,0.725,4.092,4.153
2026-05-22 18:15:07.801,1357247257,94801,1,0.93652,0.01611,0.32837,-2.107,8.878,4.076
2026-05-22 18:15:07.801,1357247257,94801,2,0.97803,0.01978,0.48193,-0.649,2.313,2.931
2026-05-22 18:15:07.001,1357246457,95001,1,0.94629,0.00366,0.35107,-2.344,6.885,3.191
2026-05-22 18:15:07.001,1357246457,95001,2,0.96387,0.02832,0.45532,-0.641,2.794,-1.084
2026-05-22 18:15:07.201,1357246657,95201,1,0.92432,0.0144,0.35205,-3.496,2.206,-0.191
2026-05-22 18:15:07.201,1357246657,95201,2,0.96973,0.03345,0.46704,-3.542,-0.008,1.985
2026-05-22 18:15:07.401,1357246857,95401,1,0.92261,0.0127,0.36353,-0.237,0.664,-1.084
2026-05-22 18:15:07.401,1357246857,95401,2,0.96899,0.03442,0.46655,-1.702,0.427,-0.107
2026-05-22 18:15:08.601,1357248057,95601,1,0.91699,0.01367,0.35913,-2.053,0.649,0.427
2026-05-22 18:15:08.601,1357248057,95601,2,0.9668,0.04199,0.45874,-1.069,0.863,1.076
2026-05-22 18:15:08.801,1357248257,95801,1,0.92969,0.01538,0.35986,-2.466,-0.351,-0.206
2026-05-22 18:15:08.801,1357248257,95801,2,0.97119,0.0376,0.45654,-1.206,0.58,2.061
2026-05-22 18:15:08.001,1357247457,96001,1,0.92358,0.01392,0.35986,-1.71,0.382,0.275
2026-05-22 18:15:08.001,1357247457,96001,2,0.97266,0.03687,0.45996,-0.939,0.695,1.924
2026-05-22 18:15:08.201,1357247657,96201,1,0.92603,0.01196,0.35986,-1.595,0.58,0.206
2026-05-22 18:15:08.201,1357247657,96201,2,0.96997,0.02905,0.46313,-0.489,1.076,1.069
2026-05-22 18:15:08.401,1357247857,96401,1,0.92188,0.01099,0.3645,-2.115,0.137,-0.13
2026-05-22 18:15:08.401,1357247857,96401,2,0.97461,0.03101,0.45435,-1.786,1.099,1.603
2026-05-22 18:15:09.601,1357249057,96601,1,0.92847,0.00635,0.36133,-1.687,0.412,-0.313
2026-05-22 18:15:09.601,1357249057,96601,2,0.96753,0.03687,0.47656,-1.794,0.985,1.29
2026-05-22 18:15:09.801,1357249257,96801,1,0.92773,0.01196,0.36157,-2.191,0.557,
2026-05-22 18:15:09.801,1357249257,96801,2,0.97632,0.03345,0.46313,-1.366,1.069,1.191
2026-05-22 18:15:09.001,1357248457,97001,1,0.92651,0.01123,0.36816,-1.656,0.359,0.092
2026-05-22 18:15:09.001,1357248457,97001,2,0.96704,0.04248,0.46826,-0.855,1.046,1.489
2026-05-22 18:15:09.201,1357248657,97201,1,0.92822,0.01514,0.35547,-2.198,0.237,-0.359
2026-05-22 18:15:09.201,1357248657,97201,2,0.96826,0.03735,0.46973,-1.038,0.702,1.061
2026-05-22 18:15:09.401,1357248857,97401,1,0.9248,0.01563,0.35693,-1.924,0.634,-0.305
2026-05-22 18:15:09.401,1357248857,97401,2,0.96948,0.02417,0.4541,0.191,1.267,0.878
2026-05-22 18:15:10.601,1357250057,97601,1,0.89941,0.01538,0.33862,-2.863,4.725,0.374
2026-05-22 18:15:10.601,1357250057,97601,2,0.9729,0.06152,0.46362,-1.603,14.641,5.267
2026-05-22 18:15:10.801,1357250257,97801,1,0.96094,0.05444,0.36353,-5.641,-1.718,-8.443
2026-05-22 18:15:10.801,1357250257,97801,2,0.97388,0.01514,0.49292,-9.924,-2.481,9.802
2026-05-22 18:15:10.088,1357249544,98088,1,0.86841,0.00562,0.41528,-2.145,5.962,-3.519
2026-05-22 18:15:10.088,1357249544,98088,2,0.95483,-0.00073,0.4624,-6.061,-5.107,5.015
2026-05-22 18:15:10.360,1357249816,98360,1,0.9917,0.01978,0.29541,-6.634,-7.939,-0.168
