datetime,epoch_ms,ts_millis,mpu_id,ax,ay,az,gx,gy,gz
2026-05-23 14:49:14.318,1431293774,50318,2,0.87671,0.41064,0.57568,-0.893,0.679,1.817
2026-05-23 14:49:29.398,1431308854,65398,1,0.8728,-0.03931,0.43726,-1.458,0.282,-0.328
2026-05-23 14:49:29.398,1431308854,65398,2,0.87793,0.41064,0.57642,-0.794,0.786,1.382
2026-05-23 14:49:29.598,1431309054,65598,1,0.87793,-0.04736,0.43726,-0.824,0.183,0.328
2026-05-23 14:49:29.598,1431309054,65598,2,0.87549,0.41431,0.56909,-1.565,0.321,1.344
2026-05-23 14:49:29.867,1431309323,65867,1,0.87817,-0.04028,0.43652,-1.237,0.542,-0.084
2026-05-23 14:49:29.867,1431309323,65867,2,0.87476,0.41821,0.55933,-1.13,0.672,1.336
2026-05-23 14:49:29.116,1431308572,66116,1,0.87109,-0.03906,0.43213,-1.931,0.366,-0.29
2026-05-23 14:49:29.116,1431308572,66116,2,0.8728,0.41528,0.57544,-0.504,0.771,1.031
2026-05-23 14:49:30.316,1431309772,66316,1,0.87817,-0.03223,0.42749,-1.534,0.603,0.023
2026-05-23 14:49:30.316,1431309772,66316,2,0.87231,0.41211,0.56348,-0.061,1.053,1.626
2026-05-23 14:49:30.516,1431309972,66516,1,0.87646,-0.04077,0.42651,-2.42,0.046,0.221
2026-05-23 14:49:30.516,1431309972,66516,2,0.87231,0.41943,0.55957,-0.282,1.427,1.74
2026-05-23 14:49:30.716,1431310172,66716,1,0.87378,-0.0376,0.43384,-1.313,0.313,
2026-05-23 14:49:30.716,1431310172,66716,2,0.87695,0.41309,0.57227,-0.931,0.84,1.664
2026-05-23 14:49:30.916,1431310372,66916,1,0.87598,-0.04077,0.43872,-1.733,0.748,0.092
2026-05-23 14:49:30.916,1431310372,66916,2,0.88452,0.41748,0.56567,-0.183,1.496,1.351
2026-05-23 14:49:30.116,1431309572,67116,1,0.87305,-0.03882,0.43164,-2.863,0.221,-0.206
2026-05-23 14:49:30.116,1431309572,67116,2,0.87451,0.41504,0.57104,-1.87,0.328,1.206
2026-05-23 14:49:31.316,1431310772,67316,1,0.87231,-0.03662,0.43042,-2.26,0.489,0.023
2026-05-23 14:49:31.316,1431310772,67316,2,0.87061,0.41284,0.56689,-0.511,1.099,1.382
2026-05-23 14:49:31.516,1431310972,67516,1,0.87744,-0.04688,0.43457,-1.626,0.252,0.053
2026-05-23 14:49:31.516,1431310972,67516,2,0.87451,0.41455,0.57104,-1.153,1.076,1.832
2026-05-23 14:49:31.716,1431311172,67716,1,0.8728,-0.0459,0.43506,-1.641,0.168,0.298
2026-05-23 14:49:31.716,1431311172,67716,2,0.87573,0.42114,0.57251,-0.924,1.023,1.405
2026-05-23 14:49:31.916,1431311372,67916,1,0.87988,-0.04492,0.42896,-1.962,0.336,
2026-05-23 14:49:31.916,1431311372,67916,2,0.87695,0.41089,0.56689,-0.779,0.855,1.405
2026-05-23 14:49:31.116,1431310572,68116,1,0.87695,-0.03931,0.43872,-1.313,0.534,-0.069
2026-05-23 14:49:31.116,1431310572,68116,2,0.87451,0.40723,0.56812,-1.405,0.191,1.076
2026-05-23 14:49:32.316,1431311772,68316,1,0.875,-0.03882,0.43457,-0.298,0.634,-0.191
2026-05-23 14:49:32.316,1431311772,68316,2,0.87549,0.41406,0.56763,-1.244,0.298,1.13
2026-05-23 14:49:32.516,1431311972,68516,1,0.8728,-0.03784,0.4375,-1.634,0.16,-0.374
2026-05-23 14:49:32.516,1431311972,68516,2,0.87402,0.42065,0.56812,-1.29,1.221,1.496
2026-05-23 14:49:32.716,1431312172,68716,1,0.87769,-0.0354,0.4248,-0.985,0.427,-0.183
2026-05-23 14:49:32.716,1431312172,68716,2,0.87842,0.41797,0.5686,-0.687,0.908,1.573
2026-05-23 14:49:32.916,1431312372,68916,1,0.87524,-0.04517,0.43335,-0.962,0.313,0.107
2026-05-23 14:49:32.916,1431312372,68916,2,0.87964,0.41187,0.56567,-1.519,0.557,1.672
2026-05-23 14:49:32.116,1431311572,69116,1,0.88159,-0.03467,0.43896,-1.878,-0.023,-0.084
2026-05-23 14:49:32.116,1431311572,69116,2,0.87573,0.41602,0.56201,-0.58,0.809,1.13
2026-05-23 14:49:33.316,1431312772,69316,1,0.87354,-0.04004,0.44312,-2.634,0.214,-0.191
2026-05-23 14:49:33.316,1431312772,69316,2,0.87842,0.41748,0.56982,-0.481,1.305,1.229
2026-05-23 14:49:33.516,1431312972,69516,1,0.8728,-0.04614,0.43335,-2.771,0.359,-0.282
2026-05-23 14:49:33.516,1431312972,69516,2,0.87427,0.41284,0.56128,-0.115,1.13,1.679
2026-05-23 14:49:33.716,1431313172,69716,1,0.88354,-0.04321,0.43091,-1.87,0.191,0.076
2026-05-23 14:49:33.716,1431313172,69716,2,0.87622,0.41528,0.56226,-1.031,1.45,1.656
2026-05-23 14:49:33.916,1431313372,69916,1,0.87891,-0.04858,0.4375,-1.878,0.298,-0.084
2026-05-23 14:49:33.916,1431313372,69916,2,0.87793,0.41528,0.56519,-0.885,0.885,1.244
2026-05-23 14:49:33.116,1431312572,70116,1,0.87793,-0.0293,0.4375,-1.466,0.206,-0.298
2026-05-23 14:49:33.116,1431312572,70116,2,0.8833,0.4082,0.56372,-0.855,0.626,1.168
2026-05-23 14:49:34.316,1431313772,70316,1,0.87769,-0.04395,0.42334,-1.901,0.153,-0.26
2026-05-23 14:49:34.316,1431313772,70316,2,0.87524,0.41382,0.56055,-1.344,0.664,1.427
2026-05-23 14:49:34.516,1431313972,70516,1,0.87012,-0.03809,0.42798,-2.504,0.588,-0.29
2026-05-23 14:49:34.516,1431313972,70516,2,0.87524,0.41406,0.56104,-0.794,1.13,1.298
2026-05-23 14:49:34.716,1431314172,70716,1,0.86841,-0.03809,0.43628,-2.664,0.443,-0.176
2026-05-23 14:49:34.716,1431314172,70716,2,0.87573,0.41772,0.57349,-0.87,1.45,1.71
2026-05-23 14:49:34.916,1431314372,70916,1,0.87622,-0.03833,0.43652,-1.626,0.137,0.466
2026-05-23 14:49:34.916,1431314372,70916,2,0.88379,0.41089,0.56299,-1.16,0.847,1.427
2026-05-23 14:49:34.116,1431313572,71116,1,0.8772,-0.04858,0.43213,-1.305,0.542,-0.168
2026-05-23 14:49:34.116,1431313572,71116,2,0.87842,0.41528,0.56372,-1.435,0.481,1.489
2026-05-23 14:49:35.316,1431314772,71316,1,0.87793,-0.0437,0.43506,-1.046,0.641,-0.481
2026-05-23 14:49:35.316,1431314772,71316,2,0.88574,0.4104,0.5647,-1.931,0.618,1.55
2026-05-23 14:49:35.516,1431314972,71516,1,0.87378,-0.04395,0.42798,-1.466,0.374,-0.153
2026-05-23 14:49:35.516,1431314972,71516,2,0.88062,0.42041,0.57007,-1.58,0.656,1.206
2026-05-23 14:49:35.716,1431315172,71716,1,0.86963,-0.03491,0.4292,-1.71,0.183,-0.534
2026-05-23 14:49:35.716,1431315172,71716,2,0.87866,0.41479,0.57324,-0.229,1.221,1.504
2026-05-23 14:49:35.916,1431315372,71916,1,0.87183,-0.0354,0.43018,-1.855,-0.046,0.321
2026-05-23 14:49:35.916,1431315372,71916,2,0.87476,0.41748,0.56982,-0.527,1.137,1.695
2026-05-23 14:49:35.116,1431314572,72116,1,0.87573,-0.03955,0.42896,-1.588,-0.153,-0.282
2026-05-23 14:49:35.116,1431314572,72116,2,0.87036,0.41577,0.5647,-0.71,0.794,1.405
2026-05-23 14:49:36.316,1431315772,72316,1,0.87231,-0.0415,0.43701,-1.412,0.763,0.153
2026-05-23 14:49:36.316,1431315772,72316,2,0.87671,0.41797,0.56616,-0.214,1.267,1.916
2026-05-23 14:49:36.516,1431315972,72516,1,0.87622,-0.03955,0.43604,-2.145,0.206,-0.237
2026-05-23 14:49:36.516,1431315972,72516,2,0.87622,0.41479,0.56519,-1.107,0.924,0.969
2026-05-23 14:49:36.716,1431316172,72716,1,0.87646,-0.03784,0.43311,-0.855,0.985,1.389
2026-05-23 14:49:36.716,1431316172,72716,2,0.87549,0.41479,0.56763,-1.069,0.313,1.107
2026-05-23 14:49:36.916,1431316372,72916,1,0.87451,-0.04321,0.43921,-1.71,0.328,0.855
2026-05-23 14:49:36.916,1431316372,72916,2,0.87427,0.41528,0.56055,-0.244,1.679,1.626
2026-05-23 14:49:36.116,1431315572,73116,1,0.87891,-0.04907,0.4248,-1.992,0.374,-0.641
2026-05-23 14:49:36.116,1431315572,73116,2,0.87012,0.40942,0.56152,-0.71,0.977,1.603
2026-05-23 14:49:37.316,1431316772,73316,1,0.87402,-0.03833,0.43433,-1.588,0.412,0.252
2026-05-23 14:49:37.316,1431316772,73316,2,0.88208,0.42139,0.56714,-1.298,0.885,1.55
2026-05-23 14:49:37.516,1431316972,73516,1,0.88086,-0.04712,0.42432,-1.992,0.038,-0.397
2026-05-23 14:49:37.516,1431316972,73516,2,0.87891,0.40894,0.56665,-0.931,1.069,1.427
2026-05-23 14:49:37.716,1431317172,73716,1,0.87305,-0.0437,0.43115,-1.947,0.435,-0.534
2026-05-23 14:49:37.716,1431317172,73716,2,0.87354,0.41968,0.55933,-1.252,1.053,1.504
2026-05-23 14:49:37.916,1431317372,73916,1,0.87842,-0.03809,0.42334,-2.0,0.519,-0.29
2026-05-23 14:49:37.916,1431317372,73916,2,0.87695,0.4165,0.5686,-1.496,1.481,1.298
2026-05-23 14:49:37.116,1431316572,74116,1,0.87378,-0.03833,0.43652,-0.328,0.504,0.206
2026-05-23 14:49:37.116,1431316572,74116,2,0.87378,0.41309,0.56763,-1.168,0.695,1.198
2026-05-23 14:49:38.316,1431317772,74316,1,0.87207,-0.0459,0.43872,-1.573,0.328,-0.313
2026-05-23 14:49:38.316,1431317772,74316,2,0.87939,0.41968,0.55908,-0.389,1.565,1.282
2026-05-23 14:49:38.516,1431317972,74516,1,0.86841,-0.03931,0.42188,-1.885,0.427,-0.282
2026-05-23 14:49:38.516,1431317972,74516,2,0.88477,0.41846,0.57153,0.55,1.489,1.992
2026-05-23 14:49:38.716,1431318172,74716,1,0.86572,-0.03809,0.43555,-2.473,2.031,-1.489
2026-05-23 14:49:38.716,1431318172,74716,2,0.88965,0.40918,0.56372,-0.565,0.863,1.298
2026-05-23 14:49:38.922,1431318378,74922,1,0.86621,-0.03735,0.42969,-2.695,0.061,0.221
2026-05-23 14:49:38.922,1431318378,74922,2,0.87573,0.41528,0.56152,-1.137,1.817,1.183
2026-05-23 14:49:38.122,1431317578,75122,1,0.86743,-0.03247,0.44897,-4.107,0.206,-0.229
2026-05-23 14:49:38.122,1431317578,75122,2,0.88599,0.40698,0.54663,-0.802,0.611,1.366
2026-05-23 14:49:39.322,1431318778,75322,1,0.86597,-0.05884,0.43604,-4.565,-0.893,-0.679
2026-05-23 14:49:39.322,1431318778,75322,2,0.88623,0.4187,0.58008,-3.29,-1.069,0.649
2026-05-23 14:49:39.522,1431318978,75522,1,0.86523,-0.04321,0.44604,-0.733,-0.183,0.328
2026-05-23 14:49:39.522,1431318978,75522,2,0.87622,0.41772,0.57422,-0.939,0.931,2.015
2026-05-23 14:49:39.722,1431319178,75722,1,0.87573,-0.04346,0.4353,-1.466,0.275,0.137
2026-05-23 14:49:39.722,1431319178,75722,2,0.87842,0.40918,0.55835,-0.84,0.313,1.473
2026-05-23 14:49:39.922,1431319378,75922,1,0.87256,-0.04126,0.44116,-2.87,0.084,0.58
2026-05-23 14:49:39.922,1431319378,75922,2,0.87744,0.41992,0.56421,-0.863,0.878,1.382
2026-05-23 14:49:39.122,1431318578,76122,1,0.8667,-0.04907,0.43774,-0.893,0.015,-0.069
2026-05-23 14:49:39.122,1431318578,76122,2,0.87695,0.40234,0.56885,-0.786,-0.359,1.313
2026-05-23 14:49:40.322,1431319778,76322,1,0.87598,-0.05078,0.43677,-2.183,0.725,-0.229
2026-05-23 14:49:40.322,1431319778,76322,2,0.87354,0.40625,0.57227,-2.183,0.206,0.733
2026-05-23 14:49:40.522,1431319978,76522,1,0.87134,-0.04175,0.44043,-2.412,0.252,-0.641
2026-05-23 14:49:40.522,1431319978,76522,2,0.87305,0.4231,0.56934,-0.504,1.656,1.405
2026-05-23 14:49:40.737,1431320193,76736,1,0.86768,-0.04272,0.44238,-1.939,0.176,-0.168
2026-05-23 14:49:40.737,1431320193,76736,2,0.87793,0.41724,0.57153,-0.702,0.824,1.412
2026-05-23 14:49:40.959,1431320415,76959,1,0.87158,-0.04883,0.4436,-1.115,0.252,-0.038
2026-05-23 14:49:40.959,1431320415,76959,2,0.87646,0.41528,0.57764,-1.725,0.603,2.145
2026-05-23 14:49:40.159,1431319615,77159,1,0.88037,-0.06055,0.43335,-1.962,0.649,0.214
2026-05-23 14:49:40.159,1431319615,77159,2,0.87964,0.40796,0.5564,-1.878,-0.573,1.076
2026-05-23 14:49:41.359,1431320815,77359,1,0.87231,-0.05322,0.44312,-2.076,0.244,-0.122
2026-05-23 14:49:41.359,1431320815,77359,2,0.8689,0.42114,0.55762,-0.412,1.481,1.069
2026-05-23 14:49:41.559,1431321015,77559,1,0.88159,-0.04688,0.4314,-1.71,0.504,-0.695
2026-05-23 14:49:41.559,1431321015,77559,2,0.87964,0.41431,0.56201,-1.275,1.092,1.244
2026-05-23 14:49:41.759,1431321215,77759,1,0.8728,-0.05029,0.45093,-0.809,0.313,0.542
2026-05-23 14:49:41.759,1431321215,77759,2,0.87305,0.4209,0.56104,-0.656,0.366,1.763
2026-05-23 14:49:41.959,1431321415,77959,1,0.87524,-0.04297,0.43042,-0.176,0.458,0.099
2026-05-23 14:49:41.959,1431321415,77959,2,0.87573,0.41113,0.57104,-1.809,0.313,1.351
2026-05-23 14:49:41.159,1431320615,78159,1,0.86523,-0.04468,0.43237,-1.916,0.298,-0.13
2026-05-23 14:49:41.159,1431320615,78159,2,0.87744,0.41528,0.5647,-0.885,0.229,0.679
2026-05-23 14:49:42.359,1431321815,78359,1,0.87036,-0.03418,0.43652,-2.084,0.122,-0.16
2026-05-23 14:49:42.359,1431321815,78359,2,0.88599,0.41699,0.55957,-1.046,0.855,1.115
2026-05-23 14:49:42.559,1431322015,78559,1,0.8811,-0.04614,0.43408,-1.878,0.16,-0.214
2026-05-23 14:49:42.559,1431322015,78559,2,0.87671,0.41577,0.56592,-0.87,1.176,1.603
2026-05-23 14:49:42.759,1431322215,78759,1,0.87451,-0.0415,0.42358,-1.695,0.214,-0.168
2026-05-23 14:49:42.759,1431322215,78759,2,0.88184,0.41675,0.5625,-0.931,1.168,1.534
2026-05-23 14:49:42.959,1431322415,78959,1,0.87646,-0.05054,0.43896,-1.863,0.229,-0.198
2026-05-23 14:49:42.959,1431322415,78959,2,0.87964,0.41919,0.5625,-0.84,0.573,1.641
2026-05-23 14:49:42.159,1431321615,79159,1,0.87402,-0.04565,0.43872,-1.756,0.71,0.176
2026-05-23 14:49:42.159,1431321615,79159,2,0.87695,0.41211,0.56372,0.153,0.962,0.969
2026-05-23 14:49:43.359,1431322815,79359,1,0.87134,-0.04443,0.4436,-1.893,0.496,-0.656
2026-05-23 14:49:43.359,1431322815,79359,2,0.88281,0.41772,0.56445,-1.824,0.382,1.046
2026-05-23 14:49:43.559,1431323015,79559,1,0.87256,-0.05078,0.43457,-0.603,0.817,0.344
2026-05-23 14:49:43.559,1431323015,79559,2,0.87646,0.41431,0.54883,-0.046,1.351,1.29
2026-05-23 14:49:43.759,1431323215,79759,1,0.87378,-0.04834,0.44263,-2.344,-0.145,-0.382
2026-05-23 14:49:43.759,1431323215,79759,2,0.88086,0.41406,0.56372,-0.863,1.328,1.672
2026-05-23 14:49:43.959,1431323415,79959,1,0.89185,-0.05786,0.41406,-11.55,-3.802,-0.908
2026-05-23 14:49:43.959,1431323415,79959,2,0.88721,0.42358,0.55103,-0.924,2.389,-1.435
2026-05-23 14:49:43.159,1431322615,80159,1,0.87451,-0.03955,0.43457,-7.137,1.443,-9.725
2026-05-23 14:49:43.159,1431322615,80159,2,0.87158,0.41699,0.56519,-2.122,-4.74,-5.534
2026-05-23 14:49:44.359,1431323815,80359,1,0.8584,-0.0271,0.44653,-2.397,-1.176,-8.183
2026-05-23 14:49:44.359,1431323815,80359,2,0.85059,0.46582,0.52124,6.321,-8.053,-5.664
2026-05-23 14:49:44.559,1431324015,80559,1,0.87646,0.03784,0.42065,19.16,-8.374,-3.351
2026-05-23 14:49:44.559,1431324015,80559,2,0.83862,0.48853,0.48413,11.183,-5.382,-0.565
2026-05-23 14:49:44.759,1431324215,80759,1,0.91699,0.07886,0.36279,5.466,-1.779,-0.366
2026-05-23 14:49:44.759,1431324215,80759,2,0.87012,0.4624,0.48828,-4.626,3.328,3.855
2026-05-23 14:49:44.959,1431324415,80959,1,0.89087,0.05542,0.38525,-2.672,1.26,11.763
2026-05-23 14:49:44.959,1431324415,80959,2,0.87891,0.43896,0.49414,-0.321,8.069,5.985
2026-05-23 14:49:44.159,1431323615,81159,1,0.88794,0.00073,0.40381,-2.84,3.298,13.802
2026-05-23 14:49:44.159,1431323615,81159,2,0.8645,0.44189,0.5354,-1.969,13.901,8.031
2026-05-23 14:49:45.359,1431324815,81359,1,0.87866,-0.0686,0.43384,-1.427,1.702,7.298
2026-05-23 14:49:45.359,1431324815,81359,2,0.85913,0.42212,0.58008,-4.908,7.542,6.954
2026-05-23 14:49:45.559,1431325015,81559,1,0.88037,-0.06421,0.41528,2.298,4.466,7.336
2026-05-23 14:49:45.559,1431325015,81559,2,0.86426,0.41602,0.58325,1.069,4.55,2.557
2026-05-23 14:49:45.759,1431325215,81759,1,0.88477,-0.05615,0.43237,-3.038,1.641,-2.374
2026-05-23 14:49:45.759,1431325215,81759,2,0.87622,0.40942,0.5896,-3.237,-1.718,1.771
2026-05-23 14:49:45.959,1431325415,81959,1,0.88281,-0.05933,0.4314,-3.809,0.634,-0.733
2026-05-23 14:49:45.959,1431325415,81959,2,0.87646,0.40771,0.5813,-1.901,-2.061,0.328
2026-05-23 14:49:45.159,1431324615,82159,1,0.87622,-0.05884,0.43945,-3.122,-0.13,-1.069
2026-05-23 14:49:45.159,1431324615,82159,2,0.86597,0.42261,0.58301,-1.008,0.298,0.519
2026-05-23 14:49:46.359,1431325815,82359,1,0.88135,-0.04834,0.44507,-0.366,0.916,-1.702
2026-05-23 14:49:46.359,1431325815,82359,2,0.87817,0.40771,0.58008,-1.573,0.053,3.313
2026-05-23 14:49:46.559,1431326015,82559,1,0.87939,-0.05078,0.42773,-0.221,2.145,-1.076
2026-05-23 14:49:46.559,1431326015,82559,2,0.88159,0.40405,0.56323,-0.947,1.351,2.092
2026-05-23 14:49:46.759,1431326215,82759,1,0.87915,-0.04736,0.42505,-2.107,0.374,-0.473
2026-05-23 14:49:46.759,1431326215,82759,2,0.87817,0.40942,0.573,-0.473,1.802,1.344
2026-05-23 14:49:46.959,1431326415,82959,1,0.86963,-0.03979,0.44385,-1.878,-0.015,-0.305
2026-05-23 14:49:46.959,1431326415,82959,2,0.87695,0.39722,0.57031,-1.588,-1.214,1.053
2026-05-23 14:49:46.159,1431325615,83159,1,0.87573,-0.03735,0.42651,-3.511,0.122,-0.321
2026-05-23 14:49:46.159,1431325615,83159,2,0.87598,0.40967,0.57031,-0.099,1.641,0.855
2026-05-23 14:49:47.359,1431326815,83359,1,0.88403,-0.04639,0.4314,-2.763,0.076,-0.298
2026-05-23 14:49:47.359,1431326815,83359,2,0.88354,0.41382,0.55957,-0.855,2.046,1.863
2026-05-23 14:49:47.559,1431327015,83559,1,0.87036,-0.04492,0.43237,-2.221,-0.305,0.298
2026-05-23 14:49:47.559,1431327015,83559,2,0.87573,0.40894,0.57397,-0.908,0.779,1.443
2026-05-23 14:49:47.759,1431327215,83759,1,0.87207,-0.04932,0.44116,-1.595,0.504,-0.214
2026-05-23 14:49:47.759,1431327215,83759,2,0.87671,0.40723,0.57129,-1.221,-0.031,1.26
2026-05-23 14:49:47.959,1431327415,83959,1,0.87524,-0.04053,0.43701,-2.13,0.282,-0.176
2026-05-23 14:49:47.959,1431327415,83959,2,0.88062,0.40942,0.57178,-0.916,0.405,1.275
2026-05-23 14:49:47.159,1431326615,84159,1,0.87891,-0.04004,0.43677,-1.924,0.679,-0.763
2026-05-23 14:49:47.159,1431326615,84159,2,0.88647,0.40942,0.57837,-1.45,0.863,1.992
2026-05-23 14:49:48.359,1431327815,84359,1,0.87427,-0.04932,0.43408,-1.26,0.321,0.168
2026-05-23 14:49:48.359,1431327815,84359,2,0.88232,0.40747,0.56641,-0.893,1.0,1.794
2026-05-23 14:49:48.559,1431328015,84559,1,0.87305,-0.05469,0.44116,-1.634,0.305,0.626
2026-05-23 14:49:48.559,1431328015,84559,2,0.88892,0.40137,0.56543,-0.214,1.481,1.664
2026-05-23 14:49:48.759,1431328215,84759,1,0.87598,-0.05005,0.43066,-2.511,0.282,0.015
2026-05-23 14:49:48.759,1431328215,84759,2,0.87573,0.41187,0.56982,-0.702,1.412,1.107
2026-05-23 14:49:48.959,1431328415,84959,1,0.87964,-0.05029,0.43677,-2.351,0.26,-0.504
2026-05-23 14:49:48.959,1431328415,84959,2,0.87817,0.40723,0.58105,-1.725,0.435,0.885
2026-05-23 14:49:48.159,1431327615,85159,1,0.86914,-0.0498,0.43896,-2.901,-0.023,-0.397
2026-05-23 14:49:48.159,1431327615,85159,2,0.87573,0.41162,0.56909,-0.725,0.618,1.244
2026-05-23 14:49:49.359,1431328815,85359,1,0.87817,-0.04272,0.43384,-0.588,0.534,-0.588
2026-05-23 14:49:49.359,1431328815,85359,2,0.87915,0.4021,0.5752,-0.908,0.267,0.969
2026-05-23 14:49:49.559,1431329015,85559,1,0.87817,-0.04907,0.42798,-0.26,0.87,0.473
2026-05-23 14:49:49.559,1431329015,85559,2,0.87598,0.41089,0.57422,-1.542,0.756,1.573
2026-05-23 14:49:49.759,1431329215,85759,1,0.87427,-0.03931,0.43408,-0.267,0.71,-0.137
2026-05-23 14:49:49.759,1431329215,85759,2,0.88184,0.40723,0.57935,-1.618,0.878,1.45
2026-05-23 14:49:49.959,1431329415,85959,1,0.87134,-0.04785,0.43994,-1.916,0.305,-0.092
2026-05-23 14:49:49.959,1431329415,85959,2,0.875,0.4082,0.57056,-0.573,1.107,1.0
2026-05-23 14:49:49.159,1431328615,86159,1,0.875,-0.04761,0.43213,-2.481,0.328,-0.511
2026-05-23 14:49:49.159,1431328615,86159,2,0.8811,0.40894,0.58179,-0.664,0.87,0.863
2026-05-23 14:49:50.359,1431329815,86359,1,0.87695,-0.03369,0.448,-1.855,0.305,-0.321
2026-05-23 14:49:50.359,1431329815,86359,2,0.87158,0.41333,0.57129,-1.214,0.206,1.397
2026-05-23 14:49:50.559,1431330015,86559,1,0.84912,-0.08423,0.47925,-2.832,-0.023,-4.053
2026-05-23 14:49:50.559,1431330015,86559,2,0.8623,0.41772,0.57715,-1.901,-8.16,2.214
2026-05-23 14:49:50.759,1431330215,86759,1,0.92285,-0.01074,0.36768,1.382,0.855,6.0
2026-05-23 14:49:50.759,1431330215,86759,2,0.89038,0.42017,0.52124,6.924,-0.244,-2.458
2026-05-23 14:49:50.959,1431330415,86959,1,0.87012,-0.0564,0.46411,3.702,-3.931,9.29
2026-05-23 14:49:50.959,1431330415,86959,2,0.88647,0.45386,0.50903,4.275,7.443,-1.023
2026-05-23 14:49:50.159,1431329615,87159,1,0.86328,-0.07837,0.43652,-19.176,-10.641,7.595
2026-05-23 14:49:50.159,1431329615,87159,2,0.87915,0.44507,0.53247,1.176,0.55,5.206
2026-05-23 14:49:51.359,1431330815,87359,1,0.88647,-0.11328,0.43555,-14.282,-16.16,3.237
2026-05-23 14:49:51.359,1431330815,87359,2,0.85742,0.42773,0.50293,-6.527,-8.527,10.786
2026-05-23 14:49:51.559,1431331015,87559,1,0.87866,-0.10767,0.38574,32.618,-5.26,2.947
2026-05-23 14:49:51.559,1431331015,87559,2,0.89331,0.38672,0.47632,-6.939,-18.74,1.84
2026-05-23 14:49:51.759,1431331215,87759,1,0.92798,-0.09424,0.2002,-28.534,-29.939,-9.214
2026-05-23 14:49:51.759,1431331215,87759,2,0.94141,0.34253,0.40527,3.527,-8.16,-1.779
2026-05-23 14:49:51.027,1431330483,88027,1,0.99634,-0.06787,0.14819,22.076,-20.969,5.061
2026-05-23 14:49:51.027,1431330483,88027,2,0.97412,0.34424,0.34229,5.557,-6.954,-11.389
2026-05-23 14:49:52.309,1431331765,88309,1,0.94922,-0.03003,0.14258,38.55,-3.473,23.557
2026-05-23 14:49:52.309,1431331765,88309,2,0.82446,0.55322,0.31445,11.458,8.84,0.832
2026-05-23 14:49:52.509,1431331965,88509,1,0.91577,-0.12036,0.26074,-18.328,-5.115,1.695
2026-05-23 14:49:52.509,1431331965,88509,2,0.85889,0.45215,0.35718,2.725,-1.573,21.176
2026-05-23 14:49:52.731,1431332187,88731,1,1.01953,-0.06372,0.146,-85.74,-49.664,-14.176
2026-05-23 14:49:52.731,1431332187,88731,2,0.86401,0.44287,0.30811,-3.344,-1.344,26.122
2026-05-23 14:49:52.972,1431332428,88972,1,1.09399,-0.16699,0.00562,-49.237,-1.908,-27.809
2026-05-23 14:49:52.972,1431332428,88972,2,0.99927,0.23657,0.33179,-19.664,7.031,36.397
2026-05-23 14:49:53.215,1431332671,89215,1,1.00781,-0.06104,0.01172,-59.008,10.412,-33.924
2026-05-23 14:49:53.215,1431332671,89215,2,1.01343,0.11841,0.36475,-22.763,3.702,3.794
2026-05-23 14:49:53.415,1431332871,89415,1,1.03809,0.05737,0.04834,-29.641,6.763,-17.664
2026-05-23 14:49:53.415,1431332871,89415,2,0.94946,0.14111,0.40796,-0.985,1.313,-1.519
2026-05-23 14:49:53.615,1431333071,89615,1,1.03467,0.09058,0.10303,-9.443,2.634,-9.313
2026-05-23 14:49:53.615,1431333071,89615,2,0.93896,0.14233,0.4314,0.74,3.489,3.084
2026-05-23 14:49:53.815,1431333271,89815,1,1.01929,0.12793,0.09546,2.42,-0.496,0.656
2026-05-23 14:49:53.815,1431333271,89815,2,0.95142,0.16528,0.42871,-2.008,1.511,4.649
2026-05-23 14:49:53.015,1431332471,90015,1,1.03369,0.0979,0.08105,2.168,-2.153,1.748
2026-05-23 14:49:53.015,1431332471,90015,2,0.96387,0.15039,0.42236,-0.519,-2.168,3.504
2026-05-23 14:49:54.215,1431333671,90215,1,1.02271,0.08984,0.08813,1.183,-1.321,1.244
2026-05-23 14:49:54.215,1431333671,90215,2,0.94775,0.17603,0.3938,22.344,-3.779,-12.267
2026-05-23 14:49:54.726,1431334182,90726,1,1.0542,0.05151,0.01611,-0.901,2.58,7.198
2026-05-23 14:49:54.726,1431334182,90726,2,0.92676,0.30566,0.40088,5.328,4.183,-4.366
2026-05-23 14:49:55.753,1431335209,91752,1,1.02271,-0.01001,0.16284,0.252,-2.137,0.511
2026-05-23 14:49:55.753,1431335209,91752,2,0.92749,0.27393,0.40503,2.031,2.511,2.031
2026-05-23 14:49:55.952,1431335408,91952,1,1.02905,-0.04663,0.146,-7.244,-1.901,-1.183
2026-05-23 14:49:55.952,1431335408,91952,2,0.94263,0.30029,0.37573,-4.206,-0.687,-3.221
2026-05-23 14:49:55.152,1431334608,92152,1,1.00854,-0.0603,0.1167,-22.855,-2.939,-6.382
2026-05-23 14:49:55.152,1431334608,92152,2,0.84546,0.3689,0.3313,-17.069,21.412,12.351
2026-05-23 14:49:56.352,1431335808,92352,1,0.97144,0.00562,0.11206,-0.832,-8.641,-17.084
2026-05-23 14:49:56.352,1431335808,92352,2,1.02783,0.26831,0.24927,-41.183,-3.298,22.908
2026-05-23 14:49:56.552,1431336008,92552,1,1.0813,-0.02637,0.12866,-12.947,6.679,1.336
2026-05-23 14:49:56.552,1431336008,92552,2,0.93774,0.26025,0.51514,3.16,2.779,1.664
2026-05-23 14:49:56.752,1431336208,92752,1,1.0686,-0.02197,0.12524,4.954,12.55,10.038
2026-05-23 14:49:56.752,1431336208,92752,2,0.8855,0.19629,0.55957,53.298,-38.282,-1.985
2026-05-23 14:49:56.952,1431336408,92952,1,1.05859,0.03979,0.07227,12.733,-8.359,9.397
2026-05-23 14:49:56.952,1431336408,92952,2,0.94751,0.27832,0.41602,3.611,-5.282,4.237
2026-05-23 14:49:56.152,1431335608,93152,1,1.10107,0.00171,0.0542,17.908,3.473,-6.58
2026-05-23 14:49:56.152,1431335608,93152,2,0.93652,0.34888,0.43262,4.122,13.542,4.962
2026-05-23 14:49:57.352,1431336808,93352,1,1.0061,0.0105,0.03247,-8.359,21.458,7.855
2026-05-23 14:49:57.352,1431336808,93352,2,0.92432,0.25195,0.39258,-4.672,16.168,9.603
2026-05-23 14:49:57.602,1431337058,93602,1,1.04297,-0.0752,0.1604,6.588,6.206,-2.885
2026-05-23 14:49:57.602,1431337058,93602,2,0.95337,0.21875,0.47192,-8.046,-9.557,2.45
2026-05-23 14:49:57.802,1431337258,93802,1,1.03784,-0.04834,0.13647,-0.695,-4.229,3.382
2026-05-23 14:49:57.802,1431337258,93802,2,0.94482,0.27368,0.47534,-2.321,-0.664,0.275
2026-05-23 14:49:57.002,1431336458,94002,1,1.02246,-0.06543,0.13452,-7.618,-0.137,-0.107
2026-05-23 14:49:57.002,1431336458,94002,2,0.93115,0.28076,0.53198,1.817,2.466,0.427
2026-05-23 14:49:58.202,1431337658,94202,1,1.00171,-0.02881,0.11401,-4.534,2.977,-0.664
2026-05-23 14:49:58.202,1431337658,94202,2,0.95728,0.29834,0.48511,-4.229,-7.573,6.084
2026-05-23 14:49:58.402,1431337858,94402,1,1.0166,-0.04199,0.10718,-6.878,1.519,0.168
2026-05-23 14:49:58.402,1431337858,94402,2,0.95093,0.2666,0.51685,-2.527,3.672,2.0
2026-05-23 14:49:58.602,1431338058,94602,1,1.02979,-0.03052,0.1333,0.42,-0.321,-0.702
2026-05-23 14:49:58.602,1431338058,94602,2,0.92651,0.27832,0.47144,-2.466,-0.389,-2.015
2026-05-23 14:49:58.802,1431338258,94802,1,1.10132,-0.06372,0.08447,-20.832,-21.015,1.626
2026-05-23 14:49:58.802,1431338258,94802,2,0.94678,0.28345,0.51538,-15.908,-7.122,-0.359
2026-05-23 14:49:58.002,1431337458,95002,1,1.02905,-0.09009,0.06934,-8.099,1.763,-2.275
2026-05-23 14:49:58.002,1431337458,95002,2,0.94727,0.26196,0.49414,0.397,2.076,0.931
2026-05-23 14:49:59.202,1431338658,95202,1,1.04907,-0.09155,0.04004,-8.763,-9.87,-3.916
2026-05-23 14:49:59.202,1431338658,95202,2,0.96387,0.25635,0.48779,-3.511,-11.55,-1.344
2026-05-23 14:49:59.402,1431338858,95402,1,1.06543,-0.021,0.09155,32.87,3.191,0.649
2026-05-23 14:49:59.402,1431338858,95402,2,0.95337,0.27881,0.4292,14.504,0.885,-14.061
2026-05-23 14:49:59.602,1431339058,95602,1,1.04883,0.06152,0.05054,21.832,2.26,-6.901
2026-05-23 14:49:59.602,1431339058,95602,2,0.94263,0.3208,0.41162,-0.092,-0.252,5.992
2026-05-23 14:49:59.802,1431339258,95802,1,1.04199,0.05933,0.05566,-27.908,11.656,-5.366
2026-05-23 14:49:59.802,1431339258,95802,2,0.96094,0.23804,0.4707,-17.137,5.221,9.153
2026-05-23 14:49:59.002,1431338458,96002,1,1.04321,-0.021,0.13599,-24.985,5.366,1.969
2026-05-23 14:49:59.002,1431338458,96002,2,0.95898,0.28955,0.47705,-10.695,8.565,1.496
2026-05-23 14:50:00.202,1431339658,96202,1,1.01538,-0.03003,0.15088,-13.634,10.954,1.405
2026-05-23 14:50:00.202,1431339658,96202,2,0.9292,0.2937,0.52075,-5.16,7.58,-2.855
2026-05-23 14:50:00.402,1431339858,96402,1,0.95361,-0.08179,0.24658,3.809,11.351,3.244
2026-05-23 14:50:00.402,1431339858,96402,2,0.93457,0.31567,0.56323,5.16,4.099,-11.13
2026-05-23 14:50:00.602,1431340058,96602,1,0.9873,-0.05347,0.21875,11.954,6.244,10.74
2026-05-23 14:50:00.602,1431340058,96602,2,0.90991,0.35815,0.52832,9.183,9.855,-8.504
2026-05-23 14:50:00.802,1431340258,96802,1,0.99609,-0.03003,0.25854,3.832,6.565,-3.038
2026-05-23 14:50:00.802,1431340258,96802,2,0.88501,0.35767,0.58203,-0.458,5.939,1.252
2026-05-23 14:50:00.002,1431339458,97002,1,0.98901,-0.04712,0.25293,4.878,8.397,7.626
2026-05-23 14:50:00.002,1431339458,97002,2,0.90991,0.3833,0.55908,7.16,3.542,-0.595
2026-05-23 14:50:01.202,1431340658,97202,1,0.96411,0.02051,0.27319,3.71,0.191,-2.924
2026-05-23 14:50:01.202,1431340658,97202,2,0.86011,0.42065,0.5625,-3.496,12.931,10.267
2026-05-23 14:50:01.402,1431340858,97402,1,0.96094,-0.06665,0.32593,-4.916,5.618,-8.756
2026-05-23 14:50:01.402,1431340858,97402,2,0.87891,0.3457,0.6228,-4.542,-2.947,-2.534
2026-05-23 14:50:01.602,1431341058,97602,1,0.95044,0.00781,0.2998,2.939,1.969,3.328
2026-05-23 14:50:01.602,1431341058,97602,2,0.88159,0.40186,0.58716,2.954,4.229,2.458
2026-05-23 14:50:01.802,1431341258,97802,1,0.96118,0.04834,0.30444,4.832,1.015,-0.977
2026-05-23 14:50:01.802,1431341258,97802,2,0.88037,0.40503,0.5603,-5.634,-1.504,-2.107
2026-05-23 14:50:01.002,1431340458,98002,1,0.93384,0.02368,0.30127,-1.16,0.107,4.015
2026-05-23 14:50:01.002,1431340458,98002,2,0.87451,0.40869,0.59668,-0.473,3.168,0.924
2026-05-23 14:50:02.202,1431341658,98202,1,0.94971,0.01245,0.30103,0.412,-0.611,4.84
2026-05-23 14:50:02.202,1431341658,98202,2,0.87012,0.42139,0.54736,-4.336,2.282,1.176
2026-05-23 14:50:02.402,1431341858,98402,1,0.94067,-0.01099,0.31006,-5.84,-0.519,0.878
2026-05-23 14:50:02.402,1431341858,98402,2,0.90039,0.37134,0.62061,-2.122,-1.603,1.908
2026-05-23 14:50:02.602,1431342058,98602,1,0.96436,0.0144,0.31104,-5.107,0.13,2.45
2026-05-23 14:50:02.602,1431342058,98602,2,0.87109,0.42358,0.573,-0.649,-0.069,-0.16
2026-05-23 14:50:02.802,1431342258,98802,1,0.95337,-0.0022,0.31567,-3.481,-0.084,-0.122
2026-05-23 14:50:02.802,1431342258,98802,2,0.88867,0.38599,0.58423,-1.74,1.618,4.168
2026-05-23 14:50:02.002,1431341458,99002,1,0.96289,-0.02783,0.2981,0.42,0.168,1.916
2026-05-23 14:50:02.002,1431341458,99002,2,0.87964,0.40088,0.59448,2.237,1.366,0.779
2026-05-23 14:50:03.202,1431342658,99202,1,0.97559,-0.02075,0.28638,-2.573,-0.008,-2.298
2026-05-23 14:50:03.202,1431342658,99202,2,0.88037,0.39746,0.59937,-4.282,0.13,2.092
2026-05-23 14:50:03.411,1431342867,99411,1,0.96045,-0.00488,0.30493,-0.244,-0.374,-1.855
2026-05-23 14:50:03.411,1431342867,99411,2,0.88062,0.4231,0.57178,1.053,2.382,0.809
2026-05-23 14:50:03.664,1431343120,99664,1,0.95532,-0.0144,0.30005,-3.252,1.412,0.244
2026-05-23 14:50:03.664,1431343120,99664,2,0.87061,0.40039,0.58936,-1.672,0.076,1.725
2026-05-23 14:50:03.864,1431343320,99864,1,0.95972,-0.0188,0.30347,-0.382,0.832,0.458
2026-05-23 14:50:03.864,1431343320,99864,2,0.87549,0.41016,0.5918,0.313,1.29,1.71
2026-05-23 14:50:03.064,1431342520,100064,1,0.96558,-0.03564,0.29956,-2.198,0.015,1.916
2026-05-23 14:50:03.064,1431342520,100064,2,0.89014,0.39844,0.57251,-1.481,0.183,0.504
2026-05-23 14:50:04.264,1431343720,100264,1,0.95313,-0.02832,0.31567,1.733,-0.107,4.405
2026-05-23 14:50:04.264,1431343720,100264,2,0.86743,0.40405,0.59009,2.115,2.031,0.885
2026-05-23 14:50:04.464,1431343920,100464,1,0.95947,-0.05103,0.30249,-6.336,0.008,-2.618
2026-05-23 14:50:04.464,1431343920,100464,2,0.88843,0.38696,0.59937,-1.443,-0.687,0.435
2026-05-23 14:50:04.664,1431344120,100664,1,0.94434,-0.02783,0.29932,-2.221,0.26,-3.229
2026-05-23 14:50:04.664,1431344120,100664,2,0.87964,0.39307,0.59497,0.145,-0.954,0.191
2026-05-23 14:50:04.864,1431344320,100864,1,0.96021,0.0022,0.29956,-1.031,0.168,0.008
2026-05-23 14:50:04.864,1431344320,100864,2,0.88208,0.40918,0.56836,-0.168,0.366,1.115
2026-05-23 14:50:04.064,1431343520,101064,1,0.96387,-0.02417,0.28662,-2.298,0.328,1.611
2026-05-23 14:50:04.064,1431343520,101064,2,0.8833,0.40332,0.57495,-0.084,1.71,1.008
2026-05-23 14:50:05.264,1431344720,101264,1,0.95605,-0.04492,0.30566,-1.122,2.168,7.122
2026-05-23 14:50:05.264,1431344720,101264,2,0.88281,0.39819,0.59717,-1.885,-5.42,-1.954
2026-05-23 14:50:05.464,1431344920,101464,1,0.9502,-0.04736,0.2937,-2.107,-0.198,2.924
2026-05-23 14:50:05.464,1431344920,101464,2,0.8728,0.41748,0.5498,1.863,-0.206,3.809
2026-05-23 14:50:05.664,1431345120,101664,1,0.96094,-0.05566,0.2981,-1.824,-2.008,-4.176
2026-05-23 14:50:05.664,1431345120,101664,2,0.87842,0.38818,0.55029,-3.893,0.618,3.107
2026-05-23 14:50:05.864,1431345320,101864,1,0.95459,-0.03394,0.29614,-6.58,0.947,-7.504
2026-05-23 14:50:05.864,1431345320,101864,2,0.89014,0.38672,0.59277,-6.817,-1.191,2.26
2026-05-23 14:50:05.064,1431344520,102064,1,0.96094,-0.0188,0.302,-0.427,0.87,1.351
2026-05-23 14:50:05.064,1431344520,102064,2,0.87744,0.40723,0.55688,-0.649,-1.588,-0.336
2026-05-23 14:50:06.264,1431345720,102264,1,0.96509,-0.02173,0.29736,2.74,-0.29,11.534
2026-05-23 14:50:06.264,1431345720,102264,2,0.87231,0.42139,0.54639,1.641,3.145,2.13
2026-05-23 14:50:06.464,1431345920,102464,1,0.9624,-0.05127,0.30005,-1.87,-0.145,-0.656
2026-05-23 14:50:06.464,1431345920,102464,2,0.87964,0.4126,0.57275,-4.244,3.115,2.931
2026-05-23 14:50:06.664,1431346120,102664,1,0.96338,-0.06543,0.29224,-0.267,1.336,-0.443
2026-05-23 14:50:06.664,1431346120,102664,2,0.88208,0.40894,0.55029,1.351,0.649,-0.282
2026-05-23 14:50:06.864,1431346320,102864,1,0.96069,-0.05249,0.28931,-2.481,-0.542,-4.229
2026-05-23 14:50:06.864,1431346320,102864,2,0.86841,0.40649,0.53687,0.756,-0.061,-1.847
2026-05-23 14:50:06.064,1431345520,103064,1,0.9519,-0.05786,0.30908,3.534,-1.885,-1.817
2026-05-23 14:50:06.064,1431345520,103064,2,0.89038,0.39722,0.53516,1.092,-6.053,-1.153
2026-05-23 14:50:07.264,1431346720,103264,1,0.98389,-0.00879,0.27124,4.008,-6.267,-1.0
2026-05-23 14:50:07.264,1431346720,103264,2,0.89526,0.43921,0.48584,-0.435,0.221,-0.046
2026-05-23 14:50:07.464,1431346920,103464,1,0.95605,0.01514,0.26904,-9.87,1.733,-1.786
2026-05-23 14:50:07.464,1431346920,103464,2,0.89575,0.40503,0.54443,-9.099,1.252,5.855
2026-05-23 14:50:07.664,1431347120,103664,1,0.97729,-0.0083,0.26782,-9.763,7.427,0.824
2026-05-23 14:50:07.664,1431347120,103664,2,0.8811,0.40576,0.52881,-8.229,6.802,4.321
2026-05-23 14:50:07.864,1431347320,103864,1,0.96777,-0.03491,0.29932,-7.901,4.046,-3.008
2026-05-23 14:50:07.864,1431347320,103864,2,0.89209,0.38257,0.58252,-9.305,5.084,2.55
2026-05-23 14:50:07.064,1431346520,104064,1,0.94385,-0.04175,0.33716,-10.435,10.313,2.427
2026-05-23 14:50:07.064,1431346520,104064,2,0.87231,0.3999,0.56177,-3.74,7.115,2.122
2026-05-23 14:50:08.264,1431347720,104264,1,0.91016,-0.06372,0.36475,0.733,1.45,-1.198
2026-05-23 14:50:08.264,1431347720,104264,2,0.87207,0.38232,0.60767,5.321,1.733,1.366
2026-05-23 14:50:08.464,1431347920,104464,1,0.94507,-0.07397,0.34131,4.115,-3.45,1.687
2026-05-23 14:50:08.464,1431347920,104464,2,0.88037,0.36426,0.58374,1.244,-6.237,2.573
2026-05-23 14:50:08.664,1431348120,104664,1,0.95605,-0.01489,0.32813,9.084,-11.168,1.634
2026-05-23 14:50:08.664,1431348120,104664,2,0.88574,0.41455,0.5498,7.305,1.71,5.0
2026-05-23 14:50:08.864,1431348320,104864,1,0.96558,-0.04321,0.2998,-9.656,-6.931,-4.71
2026-05-23 14:50:08.864,1431348320,104864,2,0.93262,0.33008,0.58496,-7.511,-5.221,9.328
2026-05-23 14:50:08.064,1431347520,105064,1,0.94824,-0.05615,0.31982,-16.954,-11.618,-6.076
2026-05-23 14:50:08.064,1431347520,105064,2,0.89795,0.32373,0.5686,-12.229,-12.458,10.595
2026-05-23 14:50:09.264,1431348720,105264,1,0.97803,-0.07397,0.24731,8.42,-7.855,-4.924
2026-05-23 14:50:09.264,1431348720,105264,2,0.92285,0.302,0.52588,2.603,-9.603,0.595
2026-05-23 14:50:09.464,1431348920,105464,1,1.02026,-0.02026,0.22656,9.924,-12.107,-2.145
2026-05-23 14:50:09.464,1431348920,105464,2,0.93164,0.30176,0.46387,6.466,-9.588,-5.702
2026-05-23 14:50:09.664,1431349120,105664,1,1.01563,0.03784,0.17358,13.0,-2.725,0.916
2026-05-23 14:50:09.664,1431349120,105664,2,0.92676,0.36523,0.43042,4.794,3.008,3.153
2026-05-23 14:50:09.864,1431349320,105864,1,1.01147,0.02197,0.17676,-5.58,2.397,-2.153
2026-05-23 14:50:09.864,1431349320,105864,2,0.93286,0.32275,0.43237,-2.046,0.084,3.969
2026-05-23 14:50:09.064,1431348520,106064,1,1.0061,0.00464,0.17383,0.473,2.29,1.626
2026-05-23 14:50:09.064,1431348520,106064,2,0.92725,0.31641,0.46582,0.847,3.595,2.458
2026-05-23 14:50:10.264,1431349720,106264,1,1.01855,0.00269,0.18555,-1.679,2.374,1.985
2026-05-23 14:50:10.264,1431349720,106264,2,0.93384,0.29883,0.46704,-0.305,4.015,1.626
2026-05-23 14:50:10.464,1431349920,106464,1,0.99609,-0.00293,0.20557,-7.084,5.0,0.023
2026-05-23 14:50:10.464,1431349920,106464,2,0.93481,0.31958,0.48462,-4.092,6.924,2.649
2026-05-23 14:50:10.664,1431350120,106664,1,1.00415,-0.01733,0.2063,-15.656,4.031,-1.634
2026-05-23 14:50:10.664,1431350120,106664,2,0.92651,0.28638,0.51221,-10.588,6.679,4.901
2026-05-23 14:50:10.864,1431350320,106864,1,1.00732,-0.03003,0.29126,9.26,7.504,2.282
2026-05-23 14:50:10.864,1431350320,106864,2,0.93359,0.2771,0.55615,2.153,8.145,-6.244
2026-05-23 14:50:10.064,1431349520,107064,1,0.98096,-0.09253,0.28638,-0.16,11.947,-1.29
2026-05-23 14:50:10.064,1431349520,107064,2,0.91455,0.28857,0.57104,-4.359,2.214,-7.847
2026-05-23 14:50:11.264,1431350720,107264,1,0.95435,-0.02686,0.31055,22.183,18.389,10.405
2026-05-23 14:50:11.264,1431350720,107264,2,0.89746,0.34302,0.56348,14.802,8.229,-15.145
2026-05-23 14:50:11.464,1431350920,107464,1,0.88062,0.03784,0.40137,0.427,13.282,-7.519
2026-05-23 14:50:11.464,1431350920,107464,2,0.84644,0.42798,0.59448,-10.237,6.42,-1.389
2026-05-23 14:50:11.664,1431351120,107664,1,0.87646,-0.00684,0.40698,-8.084,0.321,-3.29
2026-05-23 14:50:11.664,1431351120,107664,2,0.85815,0.38574,0.6709,3.153,5.008,0.763
2026-05-23 14:50:11.864,1431351320,107864,1,0.91333,0.00366,0.41235,-8.214,-5.87,0.565
2026-05-23 14:50:11.864,1431351320,107864,2,0.87891,0.43188,0.61279,-0.321,2.962,5.725
2026-05-23 14:50:11.064,1431350520,108064,1,0.91284,-0.02222,0.39966,-6.931,1.565,-2.443
2026-05-23 14:50:11.064,1431350520,108064,2,0.86206,0.34131,0.61108,-4.244,-4.794,4.733
2026-05-23 14:50:12.264,1431351720,108264,1,0.92505,-0.02539,0.3623,-4.496,2.405,2.076
2026-05-23 14:50:12.264,1431351720,108264,2,0.87549,0.37964,0.64453,0.771,5.954,5.321
2026-05-23 14:50:12.464,1431351920,108464,1,0.92139,-0.02832,0.38135,-7.863,2.573,1.084
2026-05-23 14:50:12.464,1431351920,108464,2,0.9165,0.37134,0.59692,-6.252,-9.191,10.779
2026-05-23 14:50:12.664,1431352120,108664,1,0.91675,-0.01392,0.37158,-3.763,-2.534,-2.26
2026-05-23 14:50:12.664,1431352120,108664,2,0.91724,0.34058,0.60156,-12.168,-4.382,4.603
2026-05-23 14:50:12.864,1431352320,108864,1,0.91528,-0.03589,0.36401,-3.038,-0.107,1.496
2026-05-23 14:50:12.864,1431352320,108864,2,0.89429,0.33789,0.58521,-0.237,0.756,0.122
2026-05-23 14:50:12.064,1431351520,109064,1,0.91406,-0.02051,0.38721,-6.275,2.244,0.481
2026-05-23 14:50:12.064,1431351520,109064,2,0.8999,0.34619,0.57715,-3.962,2.115,2.802
2026-05-23 14:50:13.264,1431352720,109264,1,0.90259,-0.05835,0.38599,-1.901,1.763,-2.695
2026-05-23 14:50:13.264,1431352720,109264,2,0.90356,0.33789,0.60132,1.389,3.55,3.267
2026-05-23 14:50:13.464,1431352920,109464,1,0.89673,-0.04492,0.40674,-0.832,1.084,0.267
2026-05-23 14:50:13.464,1431352920,109464,2,0.89136,0.33154,0.6106,2.679,2.931,1.115
2026-05-23 14:50:13.664,1431353120,109664,1,0.89502,-0.0498,0.38428,0.802,-1.748,1.496
2026-05-23 14:50:13.664,1431353120,109664,2,0.90063,0.35522,0.58008,0.397,-0.992,-0.756
2026-05-23 14:50:13.864,1431353320,109864,1,0.90625,-0.0354,0.36987,1.221,-0.939,0.214
2026-05-23 14:50:13.864,1431353320,109864,2,0.89331,0.34912,0.59302,2.26,1.45,-1.29
2026-05-23 14:50:13.064,1431352520,110064,1,0.89429,-0.03662,0.40405,-0.649,1.771,-1.359
2026-05-23 14:50:13.064,1431352520,110064,2,0.89233,0.36035,0.57959,-0.282,0.389,
2026-05-23 14:50:14.264,1431353720,110264,1,0.90967,-0.03125,0.40381,-2.855,0.588,-0.244
2026-05-23 14:50:14.264,1431353720,110264,2,0.8916,0.35156,0.58398,-0.511,-0.099,1.29
2026-05-23 14:50:14.464,1431353920,110464,1,0.90991,-0.03369,0.39502,1.649,-0.282,-0.137
2026-05-23 14:50:14.464,1431353920,110464,2,0.89893,0.36108,0.58252,0.527,3.099,1.84
2026-05-23 14:50:14.664,1431354120,110664,1,0.90405,-0.03442,0.37817,-0.519,0.939,0.168
2026-05-23 14:50:14.664,1431354120,110664,2,0.90259,0.34082,0.58618,-1.496,0.794,1.015
2026-05-23 14:50:14.864,1431354320,110864,1,0.90918,-0.04053,0.38599,0.649,1.733,-1.282
2026-05-23 14:50:14.864,1431354320,110864,2,0.89136,0.34912,0.59106,1.489,0.626,-1.359
2026-05-23 14:50:14.064,1431353520,111064,1,0.90283,,0.39526,-3.397,-0.008,-1.046
2026-05-23 14:50:14.064,1431353520,111064,2,0.88379,0.36841,0.58081,-5.046,0.527,1.527
2026-05-23 14:50:15.264,1431354720,111264,1,0.8916,-0.00854,0.41064,0.168,0.748,1.908
2026-05-23 14:50:15.264,1431354720,111264,2,0.87817,0.37939,0.57739,0.45,1.924,2.336
2026-05-23 14:50:15.464,1431354920,111464,1,0.90527,-0.02417,0.39331,-2.733,-0.588,-0.756
2026-05-23 14:50:15.464,1431354920,111464,2,0.90088,0.35254,0.58252,-1.137,-0.229,2.176
2026-05-23 14:50:15.664,1431355120,111664,1,0.9043,-0.01831,0.3894,-0.695,-0.969,2.076
2026-05-23 14:50:15.664,1431355120,111664,2,0.88892,0.37817,0.55664,-0.298,-0.359,1.542
2026-05-23 14:50:15.864,1431355320,111864,1,0.90723,-0.03662,0.38867,-2.221,0.977,-2.145
2026-05-23 14:50:15.864,1431355320,111864,2,0.90503,0.3606,0.59155,-0.496,2.511,2.214
2026-05-23 14:50:15.064,1431354520,112064,1,0.89941,-0.01831,0.39331,-0.145,1.13,0.374
2026-05-23 14:50:15.064,1431354520,112064,2,0.89722,0.36841,0.59497,1.282,1.771,0.168
2026-05-23 14:50:16.264,1431355720,112264,1,0.8938,-0.02393,0.40601,-1.756,-1.573,-1.481
2026-05-23 14:50:16.264,1431355720,112264,2,0.89868,0.36523,0.58765,-2.466,-0.504,2.733
2026-05-23 14:50:16.464,1431355920,112464,1,0.90405,-0.02856,0.39307,-3.084,-1.069,-0.13
2026-05-23 14:50:16.464,1431355920,112464,2,0.89575,0.35547,0.58179,-3.053,-1.092,1.908
2026-05-23 14:50:16.664,1431356120,112664,1,0.90869,-0.02466,0.38354,-3.26,-0.351,-0.618
2026-05-23 14:50:16.664,1431356120,112664,2,0.89331,0.35645,0.57935,-1.817,1.107,3.076
2026-05-23 14:50:16.864,1431356320,112864,1,0.90454,-0.02441,0.38281,-1.656,-1.389,0.55
2026-05-23 14:50:16.864,1431356320,112864,2,0.90186,0.36084,0.57788,-0.641,1.382,2.695
2026-05-23 14:50:16.064,1431355520,113064,1,0.91064,-0.03882,0.37891,-3.947,-1.267,-0.023
2026-05-23 14:50:16.064,1431355520,113064,2,0.90112,0.34473,0.59058,-0.748,0.313,2.397
2026-05-23 14:50:17.264,1431356720,113264,1,0.90381,-0.03687,0.38745,-3.16,0.282,-2.16
2026-05-23 14:50:17.264,1431356720,113264,2,0.90234,0.33276,0.58398,-1.908,-0.695,1.542
2026-05-23 14:50:17.464,1431356920,113464,1,0.91699,-0.02905,0.36865,1.542,0.58,1.29
2026-05-23 14:50:17.464,1431356920,113464,2,0.90063,0.35913,0.57104,0.641,2.076,0.412
2026-05-23 14:50:17.664,1431357120,113664,1,0.91553,-0.03198,0.37964,-1.092,0.534,-0.275
2026-05-23 14:50:17.664,1431357120,113664,2,0.90039,0.35547,0.57275,-2.443,0.573,0.763
2026-05-23 14:50:17.864,1431357320,113864,1,0.90796,-0.03003,0.38013,-0.481,1.931,-0.908
2026-05-23 14:50:17.864,1431357320,113864,2,0.89844,0.35303,0.58105,-0.023,2.206,0.588
2026-05-23 14:50:17.064,1431356520,114064,1,0.90552,-0.03052,0.37256,0.969,2.305,0.122
2026-05-23 14:50:17.064,1431356520,114064,2,0.89673,0.36377,0.57544,0.611,2.328,0.023
2026-05-23 14:50:18.264,1431357720,114264,1,0.91138,-0.02197,0.39697,-0.511,2.534,0.206
2026-05-23 14:50:18.264,1431357720,114264,2,0.89502,0.36646,0.56543,-2.458,0.557,-1.817
2026-05-23 14:50:18.464,1431357920,114464,1,0.89795,-0.00391,0.42188,-0.824,3.313,0.191
2026-05-23 14:50:18.464,1431357920,114464,2,0.89014,0.37769,0.5979,-1.733,0.916,-0.351
2026-05-23 14:50:18.664,1431358120,114664,1,0.89697,-0.021,0.3999,-2.244,1.679,-1.947
2026-05-23 14:50:18.664,1431358120,114664,2,0.89941,0.36035,0.59253,-0.107,0.802,0.924
2026-05-23 14:50:18.864,1431358320,114864,1,0.88696,-0.00122,0.41919,-1.969,-1.992,0.008
2026-05-23 14:50:18.864,1431358320,114864,2,0.8877,0.37476,0.57056,-2.16,0.427,3.802
2026-05-23 14:50:18.064,1431357520,115064,1,0.89941,-0.00049,0.40991,-1.962,0.13,-0.046
2026-05-23 14:50:18.064,1431357520,115064,2,0.91138,0.35962,0.57422,0.496,0.015,2.672
2026-05-23 14:50:19.264,1431358720,115264,1,0.88574,-0.00391,0.40234,-1.733,-1.084,1.092
2026-05-23 14:50:19.264,1431358720,115264,2,0.88745,0.35889,0.57788,-2.977,-0.16,2.557
2026-05-23 14:50:19.464,1431358920,115464,1,0.89844,-0.01807,0.40356,,0.573,0.779
2026-05-23 14:50:19.464,1431358920,115464,2,0.89331,0.36719,0.56738,1.748,2.29,1.344
2026-05-23 14:50:19.664,1431359120,115664,1,0.896,-0.01514,0.40674,-2.237,0.267,-0.427
2026-05-23 14:50:19.664,1431359120,115664,2,0.90015,0.36035,0.57446,-1.725,0.214,1.382
2026-05-23 14:50:19.864,1431359320,115864,1,0.89258,-0.01733,0.40308,-1.206,1.382,-0.023
2026-05-23 14:50:19.864,1431359320,115864,2,0.88647,0.36377,0.57568,0.473,2.29,1.519
2026-05-23 14:50:19.064,1431358520,116064,1,0.90894,-0.02954,0.37402,-0.023,2.962,-0.412
2026-05-23 14:50:19.064,1431358520,116064,2,0.91113,0.35376,0.57886,0.954,6.45,-2.466
2026-05-23 14:50:20.264,1431359720,116264,1,0.87427,-0.01025,0.42114,2.046,5.107,1.084
2026-05-23 14:50:20.264,1431359720,116264,2,0.87915,0.38037,0.58496,-5.542,0.099,-1.71
2026-05-23 14:50:20.464,1431359920,116464,1,0.88843,0.01147,0.42627,1.618,3.504,0.435
2026-05-23 14:50:20.464,1431359920,116464,2,0.87988,0.39624,0.58838,-3.672,4.0,-1.183
2026-05-23 14:50:20.664,1431360120,116664,1,0.87012,0.01953,0.4458,3.206,5.351,1.153
2026-05-23 14:50:20.664,1431360120,116664,2,0.85815,0.40747,0.60254,0.489,4.053,-5.893
2026-05-23 14:50:20.864,1431360320,116864,1,0.84888,0.0354,0.46362,-1.298,1.176,-0.504
2026-05-23 14:50:20.864,1431360320,116864,2,0.86133,0.42456,0.60522,1.374,1.573,0.473
2026-05-23 14:50:20.064,1431359520,117064,1,0.86694,0.00293,0.45386,-5.71,0.664,-0.618
2026-05-23 14:50:20.064,1431359520,117064,2,0.87036,0.40918,0.62231,-1.511,-1.71,1.824
2026-05-23 14:50:21.264,1431360720,117264,1,0.86475,0.02051,0.43359,-3.977,-1.145,0.481
2026-05-23 14:50:21.264,1431360720,117264,2,0.85938,0.41675,0.60425,-0.137,0.374,1.794
2026-05-23 14:50:21.464,1431360920,117464,1,0.86353,0.01416,0.44458,-2.672,-0.221,-1.275
2026-05-23 14:50:21.464,1431360920,117464,2,0.875,0.39478,0.60205,0.878,1.519,3.443
2026-05-23 14:50:21.664,1431361120,117664,1,0.86694,0.01563,0.4436,-2.748,-1.427,0.595
2026-05-23 14:50:21.664,1431361120,117664,2,0.86475,0.40381,0.60693,-0.313,-0.74,2.924
2026-05-23 14:50:21.864,1431361320,117864,1,0.87256,0.00708,0.45166,-2.863,-1.389,0.198
2026-05-23 14:50:21.864,1431361320,117864,2,0.8855,0.39722,0.59399,-0.282,-0.901,3.267
2026-05-23 14:50:21.064,1431360520,118064,1,0.88452,0.00488,0.4231,-1.756,-1.389,0.252
2026-05-23 14:50:21.064,1431360520,118064,2,0.89258,0.4021,0.59863,-0.954,0.542,2.74
2026-05-23 14:50:22.264,1431361720,118264,1,0.88184,0.00049,0.42041,-1.641,-0.42,-0.588
2026-05-23 14:50:22.264,1431361720,118264,2,0.88354,0.39014,0.59448,-0.947,0.702,1.374
2026-05-23 14:50:22.464,1431361920,118464,1,0.87036,0.00879,0.42798,-2.29,0.649,-0.473
2026-05-23 14:50:22.464,1431361920,118464,2,0.8728,0.39844,0.58545,-1.183,1.168,1.321
2026-05-23 14:50:22.664,1431362120,118664,1,0.8811,0.0061,0.43115,-1.344,0.511,-0.29
2026-05-23 14:50:22.664,1431362120,118664,2,0.87695,0.39209,0.58984,-0.489,1.977,1.45
2026-05-23 14:50:22.864,1431362320,118864,1,0.8728,0.01245,0.43335,-2.427,-0.023,-0.176
2026-05-23 14:50:22.864,1431362320,118864,2,0.87695,0.39624,0.59326,-1.176,0.336,1.977
2026-05-23 14:50:22.064,1431361520,119064,1,0.87744,0.00513,0.4353,-1.435,0.664,-0.031
2026-05-23 14:50:22.064,1431361520,119064,2,0.88037,0.40015,0.57764,-1.527,-0.489,0.748
2026-05-23 14:50:23.264,1431362720,119264,1,0.87573,0.01318,0.43408,-1.519,1.214,0.115
2026-05-23 14:50:23.264,1431362720,119264,2,0.87891,0.3938,0.59033,0.023,1.382,0.687
2026-05-23 14:50:23.464,1431362920,119464,1,0.88037,0.00098,0.42798,-2.29,0.634,-0.015
2026-05-23 14:50:23.464,1431362920,119464,2,0.8811,0.39819,0.58936,-0.863,0.809,1.122
2026-05-23 14:50:23.664,1431363120,119664,1,0.87378,0.00903,0.42871,-2.115,0.618,-0.305
2026-05-23 14:50:23.664,1431363120,119664,2,0.88062,0.39453,0.58911,-0.718,1.076,1.145
2026-05-23 14:50:23.864,1431363320,119864,1,0.87402,0.01514,0.42969,-1.634,0.344,-0.634
2026-05-23 14:50:23.864,1431363320,119864,2,0.88232,0.39209,0.5979,-1.237,0.931,1.504
2026-05-23 14:50:23.064,1431362520,120064,1,0.87305,0.00049,0.43311,-1.992,0.336,0.099
2026-05-23 14:50:23.064,1431362520,120064,2,0.88501,0.39502,0.59106,-0.824,1.069,1.725
2026-05-23 14:50:24.264,1431363720,120264,1,0.88037,0.00879,0.42554,-1.656,0.466,-0.527
2026-05-23 14:50:24.264,1431363720,120264,2,0.88037,0.39893,0.59009,-0.519,0.595,1.237
2026-05-23 14:50:24.464,1431363920,120464,1,0.8855,0.01123,0.43896,7.427,1.695,-1.756
2026-05-23 14:50:24.464,1431363920,120464,2,0.87964,0.39697,0.61157,3.176,-0.534,-1.168
2026-05-23 14:50:24.664,1431364120,120664,1,0.86133,0.0249,0.427,-3.176,1.267,0.244
2026-05-23 14:50:24.664,1431364120,120664,2,0.87671,0.41431,0.56006,1.244,-0.26,0.237
2026-05-23 14:50:24.864,1431364320,120864,1,0.8772,0.02808,0.43408,-1.405,-1.992,-1.794
2026-05-23 14:50:24.864,1431364320,120864,2,0.8728,0.39893,0.59766,-2.427,0.359,1.74
2026-05-23 14:50:24.064,1431363520,121064,1,0.86108,0.03369,0.42651,4.496,2.466,1.893
2026-05-23 14:50:24.064,1431363520,121064,2,0.86133,0.40527,0.56177,2.008,-0.008,0.931
2026-05-23 14:50:25.264,1431364720,121264,1,0.87939,0.03516,0.45386,-4.084,0.298,0.26
2026-05-23 14:50:25.264,1431364720,121264,2,0.88013,0.41919,0.55542,-1.687,1.809,3.42
2026-05-23 14:50:25.464,1431364920,121464,1,0.86646,0.02173,0.45313,-1.084,-2.115,-0.45
2026-05-23 14:50:25.464,1431364920,121464,2,0.87036,0.40405,0.59082,-1.0,,3.42
2026-05-23 14:50:25.664,1431365120,121664,1,0.87915,0.01929,0.4353,-4.275,-0.58,-5.023
2026-05-23 14:50:25.664,1431365120,121664,2,0.88647,0.38354,0.57983,-2.641,-1.275,0.137
2026-05-23 14:50:25.864,1431365320,121864,1,0.86377,0.01758,0.42139,-2.939,1.328,-3.931
2026-05-23 14:50:25.864,1431365320,121864,2,0.88159,0.40454,0.56299,-1.008,0.282,0.183
2026-05-23 14:50:25.064,1431364520,122064,1,0.85693,0.03076,0.4502,-4.832,0.481,-5.313
2026-05-23 14:50:25.064,1431364520,122064,2,0.87866,0.40503,0.5835,-0.763,1.176,1.748
2026-05-23 14:50:26.264,1431365720,122264,1,0.87183,0.05322,0.43799,-3.962,0.679,-4.275
2026-05-23 14:50:26.264,1431365720,122264,2,0.87769,0.40283,0.56958,-4.443,-0.847,0.099
2026-05-23 14:50:26.464,1431365920,122464,1,0.87256,0.05688,0.45337,-2.145,-0.046,-1.13
2026-05-23 14:50:26.464,1431365920,122464,2,0.87207,0.40576,0.55786,-1.168,0.702,1.13
2026-05-23 14:50:26.664,1431366120,122664,1,0.86792,0.05322,0.44238,-2.099,0.603,0.55
2026-05-23 14:50:26.664,1431366120,122664,2,0.87842,0.41479,0.56592,0.16,2.473,2.115
2026-05-23 14:50:26.864,1431366320,122864,1,0.86597,0.05078,0.44043,-2.656,0.763,0.611
2026-05-23 14:50:26.864,1431366320,122864,2,0.88208,0.41016,0.58179,-2.115,0.366,1.466
2026-05-23 14:50:26.064,1431365520,123064,1,0.86377,0.05591,0.43945,-1.511,0.359,0.397
2026-05-23 14:50:26.064,1431365520,123064,2,0.87817,0.4209,0.57642,-1.275,0.603,2.107
2026-05-23 14:50:27.264,1431366720,123264,1,0.86426,0.04785,0.43579,-2.191,0.038,0.13
2026-05-23 14:50:27.264,1431366720,123264,2,0.87817,0.40552,0.57275,-1.298,0.718,1.374
2026-05-23 14:50:27.464,1431366920,123464,1,0.85742,0.05322,0.4502,-1.527,0.221,0.458
2026-05-23 14:50:27.464,1431366920,123464,2,0.88403,0.42163,0.57715,-0.626,0.74,1.603
2026-05-23 14:50:27.664,1431367120,123664,1,0.8728,0.04224,0.43726,-2.42,0.344,0.252
2026-05-23 14:50:27.664,1431367120,123664,2,0.86865,0.41406,0.56567,-0.71,0.282,0.985
2026-05-23 14:50:27.864,1431367320,123864,1,0.85986,0.03418,0.45117,-1.473,0.618,0.382
2026-05-23 14:50:27.864,1431367320,123864,2,0.87036,0.40674,0.56958,-0.275,0.55,1.015
2026-05-23 14:50:27.064,1431366520,124064,1,0.8689,0.03857,0.44873,-1.817,0.939,-0.053
2026-05-23 14:50:27.064,1431366520,124064,2,0.88184,0.40552,0.55591,-0.779,0.802,1.298
2026-05-23 14:50:28.264,1431367720,124264,1,0.8623,0.03491,0.44824,-1.168,1.305,1.519
2026-05-23 14:50:28.264,1431367720,124264,2,0.87305,0.41357,0.57104,0.595,0.595,-0.198
2026-05-23 14:50:28.464,1431367920,124464,1,0.86353,0.03809,0.44897,-0.947,1.221,1.084
2026-05-23 14:50:28.464,1431367920,124464,2,0.87231,0.42188,0.57178,-1.382,0.435,0.344
2026-05-23 14:50:28.664,1431368120,124664,1,0.8689,0.03198,0.4519,-0.748,1.137,2.863
2026-05-23 14:50:28.664,1431368120,124664,2,0.87329,0.42212,0.57007,0.344,1.588,1.397
2026-05-23 14:50:28.864,1431368320,124864,1,0.85156,0.03149,0.45605,0.191,1.015,2.069
2026-05-23 14:50:28.864,1431368320,124864,2,0.87695,0.41431,0.56177,-2.13,1.374,3.183
2026-05-23 14:50:28.064,1431367520,125064,1,0.86377,0.03687,0.44971,-4.313,-1.992,-0.641
2026-05-23 14:50:28.064,1431367520,125064,2,0.87695,0.41284,0.58057,-3.779,0.794,5.29
2026-05-23 14:50:29.264,1431368720,125264,1,0.87549,0.01685,0.42993,-2.443,-1.939,1.908
2026-05-23 14:50:29.264,1431368720,125264,2,0.89063,0.39038,0.57373,1.435,0.168,2.695
2026-05-23 14:50:29.464,1431368920,125464,1,0.87402,0.01245,0.44263,-0.191,0.695,1.351
2026-05-23 14:50:29.464,1431368920,125464,2,0.88892,0.40845,0.55469,-0.595,0.473,1.405
2026-05-23 14:50:29.664,1431369120,125664,1,0.86304,0.01489,0.43774,-1.656,0.275,-0.458
2026-05-23 14:50:29.664,1431369120,125664,2,0.88599,0.39478,0.56519,0.145,1.168,1.634
2026-05-23 14:50:29.864,1431369320,125864,1,0.85815,0.01123,0.45264,-3.351,0.435,-0.084
2026-05-23 14:50:29.864,1431369320,125864,2,0.8855,0.41064,0.5647,-0.573,-0.344,1.779
2026-05-23 14:50:29.064,1431368520,126064,1,0.86694,0.02173,0.43823,0.832,-0.763,0.588
2026-05-23 14:50:29.064,1431368520,126064,2,0.88013,0.39819,0.55737,-0.221,-1.534,2.0
2026-05-23 14:50:30.264,1431369720,126264,1,0.88184,0.05151,0.4248,3.26,2.351,4.282
2026-05-23 14:50:30.264,1431369720,126264,2,0.88574,0.41089,0.53345,3.023,2.962,-0.313
2026-05-23 14:50:30.464,1431369920,126464,1,0.87085,0.01758,0.4292,-0.977,-0.076,-0.29
2026-05-23 14:50:30.464,1431369920,126464,2,0.87939,0.41699,0.55127,-0.641,1.405,0.519
2026-05-23 14:50:30.664,1431370120,126664,1,0.87354,0.01636,0.43677,-2.183,0.672,0.321
2026-05-23 14:50:30.664,1431370120,126664,2,0.88159,0.40796,0.55884,-0.55,0.489,0.901
2026-05-23 14:50:30.864,1431370320,126864,1,0.85815,0.01782,0.44702,-2.038,-0.084,-0.382
2026-05-23 14:50:30.864,1431370320,126864,2,0.88208,0.4126,0.55127,-1.168,0.542,1.969
2026-05-23 14:50:30.064,1431369520,127064,1,0.875,0.01489,0.44946,-2.962,0.473,1.389
2026-05-23 14:50:30.064,1431369520,127064,2,0.88623,0.40649,0.55103,-0.901,0.908,1.557
2026-05-23 14:50:31.264,1431370720,127264,1,0.8689,0.01807,0.44092,-2.481,0.771,-0.145
2026-05-23 14:50:31.264,1431370720,127264,2,0.88208,0.40405,0.54932,-1.443,1.382,1.664
2026-05-23 14:50:31.464,1431370920,127464,1,0.86816,0.0127,0.4436,-2.542,-0.733,0.046
2026-05-23 14:50:31.464,1431370920,127464,2,0.88403,0.396,0.55762,-1.107,0.847,1.656
2026-05-23 14:50:31.664,1431371120,127664,1,0.86353,0.04541,0.44385,-3.763,-3.321,4.237
2026-05-23 14:50:31.664,1431371120,127664,2,0.87012,0.42041,0.54419,-3.626,-0.137,7.847
2026-05-23 14:50:31.864,1431371320,127864,1,0.89966,-0.01074,0.43335,-8.191,-10.679,-0.038
2026-05-23 14:50:31.864,1431371320,127864,2,0.91846,0.39478,0.49609,-5.107,2.298,4.55
2026-05-23 14:50:31.064,1431370520,128064,1,0.92456,-0.03638,0.37476,-13.443,-6.702,-6.061
2026-05-23 14:50:31.064,1431370520,128064,2,0.92627,0.41089,0.54663,-26.344,6.695,-4.924
2026-05-23 14:50:32.264,1431371720,128264,1,0.90186,-0.00903,0.34717,-7.351,-4.611,-7.145
2026-05-23 14:50:32.264,1431371720,128264,2,0.93433,0.33643,0.6001,2.863,12.55,1.756
2026-05-23 14:50:32.464,1431371920,128464,1,1.07446,-0.04761,0.38843,10.611,1.198,10.153
2026-05-23 14:50:32.464,1431371920,128464,2,0.96143,0.30151,0.6521,-8.107,7.153,-0.252
2026-05-23 14:50:32.664,1431372120,128664,1,0.95728,-0.1167,0.41162,-1.687,-19.832,19.641
2026-05-23 14:50:32.664,1431372120,128664,2,0.91211,0.42163,0.72119,14.947,8.031,18.168
2026-05-23 14:50:32.864,1431372320,128864,1,0.9248,-0.01709,0.35278,23.672,-2.511,0.053
2026-05-23 14:50:32.864,1431372320,128864,2,0.85132,0.40894,0.63452,5.481,-7.573,-2.634
2026-05-23 14:50:32.064,1431371520,129064,1,0.84888,-0.07813,0.3208,-10.847,-17.099,-2.908
2026-05-23 14:50:32.064,1431371520,129064,2,0.77686,0.29395,0.55859,5.969,-22.771,7.771
2026-05-23 14:50:33.264,1431372720,129264,1,0.95801,0.01343,0.16675,2.649,-31.985,2.618
2026-05-23 14:50:33.264,1431372720,129264,2,0.86694,0.37207,0.43433,3.206,-29.0,17.565
2026-05-23 14:50:33.464,1431372920,129464,1,1.02295,-0.03418,0.04663,-19.756,-30.221,-12.031
2026-05-23 14:50:33.464,1431372920,129464,2,0.87671,0.24805,0.41309,4.733,-34.954,11.351
2026-05-23 14:50:33.664,1431373120,129664,1,1.09619,-0.02002,0.00195,12.71,-16.481,-1.84
2026-05-23 14:50:33.664,1431373120,129664,2,0.92358,0.27539,0.23926,-12.344,-4.504,-9.702
2026-05-23 14:50:33.864,1431373320,129864,1,1.08887,-0.01147,-0.0188,18.015,-6.511,1.702
2026-05-23 14:50:33.864,1431373320,129864,2,0.88184,0.28418,0.23926,-8.412,6.366,-12.069
2026-05-23 14:50:33.064,1431372520,130064,1,1.06934,0.01782,-0.02026,-8.595,-3.832,6.527
2026-05-23 14:50:33.064,1431372520,130064,2,0.91748,0.26636,0.22241,19.084,-0.008,7.893
2026-05-23 14:50:34.264,1431373720,130264,1,1.06006,-0.01855,-0.02344,-0.344,7.13,0.137
2026-05-23 14:50:34.264,1431373720,130264,2,0.92139,0.27075,0.21216,5.031,4.519,0.962
2026-05-23 14:50:34.464,1431373920,130464,1,1.05884,0.00903,-0.02246,-1.687,4.992,1.122
2026-05-23 14:50:34.464,1431373920,130464,2,0.92407,0.25732,0.23853,-16.84,9.466,0.725
2026-05-23 14:50:34.664,1431374120,130664,1,1.05225,-0.0271,-0.00635,-8.046,-0.305,-1.763
2026-05-23 14:50:34.664,1431374120,130664,2,0.9458,0.19873,0.2251,23.962,-12.565,15.557
2026-05-23 14:50:34.864,1431374320,130864,1,1.06104,-0.02148,-0.00806,1.656,2.496,2.824
2026-05-23 14:50:34.864,1431374320,130864,2,0.93604,0.21582,0.1748,3.443,2.405,1.351
2026-05-23 14:50:34.064,1431373520,131064,1,1.06665,0.00391,-0.03735,3.214,-11.366,-8.527
2026-05-23 14:50:34.064,1431373520,131064,2,0.88477,0.23047,0.20825,2.176,-25.855,6.794
2026-05-23 14:50:35.264,1431374720,131264,1,1.06396,-0.04224,-0.02563,-3.015,-10.015,-0.015
2026-05-23 14:50:35.264,1431374720,131264,2,0.95142,0.21143,0.15088,16.679,-3.557,15.809
2026-05-23 14:50:35.464,1431374920,131464,1,1.09131,-0.01587,-0.06226,-2.427,-7.0,3.824
2026-05-23 14:50:35.464,1431374920,131464,2,0.9231,0.21216,0.17822,-6.931,-11.267,4.45
2026-05-23 14:50:35.664,1431375120,131664,1,1.07349,-0.04053,-0.06323,2.053,-1.672,-0.573
2026-05-23 14:50:35.664,1431375120,131664,2,0.90747,0.23608,0.15112,-3.069,1.321,-3.618
2026-05-23 14:50:35.864,1431375320,131864,1,1.08691,-0.00293,-0.09448,3.145,-6.366,0.29
2026-05-23 14:50:35.864,1431375320,131864,2,0.91333,0.23804,0.12622,5.855,-2.481,3.611
2026-05-23 14:50:35.064,1431374520,132064,1,1.06934,0.00635,-0.08594,-0.557,-0.137,1.382
2026-05-23 14:50:35.064,1431374520,132064,2,0.89307,0.23242,0.13745,-0.71,2.924,3.183
2026-05-23 14:50:36.264,1431375720,132264,1,1.07007,-0.02197,-0.08252,-4.84,1.168,-0.374
2026-05-23 14:50:36.264,1431375720,132264,2,0.9021,0.21289,0.10986,-12.954,-9.534,-3.13
2026-05-23 14:50:36.464,1431375920,132464,1,1.05371,-0.02515,-0.09229,3.618,-5.435,1.992
2026-05-23 14:50:36.464,1431375920,132464,2,0.89331,0.23657,0.11401,-3.328,-1.206,-1.107
2026-05-23 14:50:36.664,1431376120,132664,1,1.07935,-0.02441,-0.1084,3.351,-2.015,0.214
2026-05-23 14:50:36.664,1431376120,132664,2,0.90356,0.24976,0.09741,1.557,-2.122,0.573
2026-05-23 14:50:36.864,1431376320,132864,1,1.0708,-0.01978,-0.12744,-4.26,4.168,-1.168
2026-05-23 14:50:36.864,1431376320,132864,2,0.90112,0.23291,0.09229,0.183,5.534,2.878
2026-05-23 14:50:36.064,1431375520,133064,1,1.06079,-0.0415,-0.11011,-9.817,9.557,-3.901
2026-05-23 14:50:36.064,1431375520,133064,2,0.91333,0.21875,0.07983,-12.153,5.405,1.573
2026-05-23 14:50:37.264,1431376720,133264,1,1.07935,-0.00537,-0.08398,2.191,-0.542,-2.618
2026-05-23 14:50:37.264,1431376720,133264,2,0.90747,0.22461,0.18579,-0.534,7.695,0.214
2026-05-23 14:50:37.464,1431376920,133464,1,1.06714,-0.00928,-0.04712,5.13,4.519,-4.0
2026-05-23 14:50:37.464,1431376920,133464,2,0.91455,0.23682,0.16748,1.618,15.695,2.863
2026-05-23 14:50:37.664,1431377120,133664,1,1.04468,0.02466,-0.02881,7.908,3.557,-1.916
2026-05-23 14:50:37.664,1431377120,133664,2,0.92188,0.23584,0.19971,11.771,5.924,3.374
2026-05-23 14:50:37.864,1431377320,133864,1,1.05957,0.01807,-0.02759,-1.603,-2.504,2.817
2026-05-23 14:50:37.864,1431377320,133864,2,0.89795,0.23853,0.18848,4.389,-8.634,0.809
2026-05-23 14:50:37.064,1431376520,134064,1,1.07715,0.00366,-0.03027,-4.969,4.359,0.053
2026-05-23 14:50:37.064,1431376520,134064,2,0.92944,0.24658,0.19019,-8.153,3.099,0.855
2026-05-23 14:50:38.264,1431377720,134264,1,1.05249,0.00366,-0.01221,-2.374,3.122,-0.489
2026-05-23 14:50:38.264,1431377720,134264,2,0.91553,0.24243,0.18799,-5.0,-8.0,2.496
2026-05-23 14:50:38.464,1431377920,134464,1,1.05396,-0.01318,-0.00854,-0.214,0.832,0.916
2026-05-23 14:50:38.464,1431377920,134464,2,0.92651,0.25366,0.20776,2.29,2.924,0.427
2026-05-23 14:50:38.664,1431378120,134664,1,1.06055,-0.00171,-0.01123,1.641,2.29,1.221
2026-05-23 14:50:38.664,1431378120,134664,2,0.91553,0.25684,0.19604,6.565,6.13,1.618
2026-05-23 14:50:38.864,1431378320,134864,1,1.05981,-0.0083,-0.00635,-1.885,1.947,-1.588
2026-05-23 14:50:38.864,1431378320,134864,2,0.90942,0.26074,0.19336,0.359,-1.282,0.916
2026-05-23 14:50:38.064,1431377520,135064,1,1.06616,0.00708,-0.00757,-1.588,4.779,-1.427
2026-05-23 14:50:38.064,1431377520,135064,2,0.91406,0.24927,0.20239,0.107,2.672,1.244
2026-05-23 14:50:39.264,1431378720,135264,1,1.05054,0.00488,0.00366,-2.511,-1.557,1.015
2026-05-23 14:50:39.264,1431378720,135264,2,0.90894,0.26172,0.17798,-2.939,-0.038,0.42
2026-05-23 14:50:39.464,1431378920,135464,1,1.06348,-0.01489,-0.00977,-3.023,0.565,-1.26
2026-05-23 14:50:39.464,1431378920,135464,2,0.92432,0.26709,0.20142,-0.565,-2.183,2.695
2026-05-23 14:50:39.664,1431379120,135664,1,1.06006,-0.00488,-0.0083,-0.977,-0.046,-0.954
2026-05-23 14:50:39.664,1431379120,135664,2,0.91968,0.24341,0.20093,-0.26,2.42,2.588
2026-05-23 14:50:39.864,1431379320,135864,1,1.06201,0.01611,0.01392,0.473,0.359,-0.519
2026-05-23 14:50:39.864,1431379320,135864,2,0.91602,0.24316,0.1936,-6.641,-3.511,-0.366
2026-05-23 14:50:39.064,1431378520,136064,1,1.05859,0.01172,0.01245,-0.137,-0.389,-0.145
2026-05-23 14:50:39.064,1431378520,136064,2,0.91602,0.25342,0.18677,3.603,-3.626,5.473
2026-05-23 14:50:40.264,1431379720,136264,1,1.05371,0.0127,-0.00806,-2.687,-1.977,0.511
2026-05-23 14:50:40.264,1431379720,136264,2,0.91479,0.26978,0.19214,0.863,-1.489,2.855
2026-05-23 14:50:40.464,1431379920,136464,1,1.07178,0.00879,0.00098,-4.534,-1.588,0.328
2026-05-23 14:50:40.464,1431379920,136464,2,0.90894,0.27979,0.21069,0.87,3.397,2.489
2026-05-23 14:50:40.664,1431380120,136664,1,1.05322,0.00708,-0.01099,-11.168,31.427,1.427
2026-05-23 14:50:40.664,1431380120,136664,2,0.92725,0.30615,0.29102,-17.389,31.489,-13.481
2026-05-23 14:50:40.864,1431380320,136864,1,0.96436,0.00977,0.09131,9.328,65.45,0.939
2026-05-23 14:50:40.864,1431380320,136864,2,0.80688,0.29224,0.44897,-27.466,58.221,-17.511
2026-05-23 14:50:40.064,1431379520,137064,1,0.83594,-0.13574,0.45654,-34.817,39.527,3.519
2026-05-23 14:50:40.064,1431379520,137064,2,0.89551,0.32764,0.55103,-2.351,19.29,-9.366
2026-05-23 14:50:41.264,1431380720,137264,1,0.81079,-0.05591,0.46045,-6.771,24.519,11.74
2026-05-23 14:50:41.264,1431380720,137264,2,0.85498,0.39185,0.67139,0.405,21.71,0.786
2026-05-23 14:50:41.464,1431380920,137464,1,0.86475,-0.16235,0.57446,-4.779,11.45,9.985
2026-05-23 14:50:41.464,1431380920,137464,2,0.89038,0.45117,0.66919,-0.847,4.0,-4.55
2026-05-23 14:50:41.664,1431381120,137664,1,0.80786,-0.16089,0.45923,-16.252,-19.588,-1.939
2026-05-23 14:50:41.664,1431381120,137664,2,0.98169,0.44434,0.81055,-4.42,-6.725,8.137
2026-05-23 14:50:41.864,1431381320,137864,1,0.88794,-0.18066,0.49292,12.924,-8.809,1.992
2026-05-23 14:50:41.864,1431381320,137864,2,0.85059,0.36572,0.59229,2.771,-10.42,11.099
2026-05-23 14:50:41.064,1431380520,138064,1,0.95068,-0.09961,0.34766,18.053,-33.458,-11.237
2026-05-23 14:50:41.064,1431380520,138064,2,0.93408,0.38159,0.59082,11.756,-17.107,12.313
2026-05-23 14:50:42.264,1431381720,138264,1,0.95874,-0.04858,0.24854,4.481,-12.924,-14.214
2026-05-23 14:50:42.264,1431381720,138264,2,0.91113,0.29199,0.54077,-3.405,-9.725,10.137
2026-05-23 14:50:42.464,1431381920,138464,1,1.00073,-0.04907,0.24097,10.756,-5.061,-3.58
2026-05-23 14:50:42.464,1431381920,138464,2,0.93555,0.31128,0.53613,11.664,-4.55,2.58
2026-05-23 14:50:42.664,1431382120,138664,1,0.98267,-0.00513,0.21533,-14.038,-3.137,3.046
2026-05-23 14:50:42.664,1431382120,138664,2,0.94946,0.28003,0.48242,0.336,-1.275,4.565
2026-05-23 14:50:42.864,1431382320,138864,1,1.02612,-0.05688,0.20166,14.275,-4.542,2.794
2026-05-23 14:50:42.864,1431382320,138864,2,0.94604,0.28223,0.4624,-7.13,-0.847,7.374
2026-05-23 14:50:42.064,1431381520,139064,1,1.01782,-0.02954,0.18726,-4.939,3.206,-3.26
2026-05-23 14:50:42.064,1431381520,139064,2,0.95508,0.28906,0.51172,-4.107,11.198,2.038
2026-05-23 14:50:43.264,1431382720,139264,1,0.98169,-0.03125,0.2395,-2.756,7.527,4.405
2026-05-23 14:50:43.264,1431382720,139264,2,0.93481,0.2749,0.50415,-4.664,4.115,-2.13
2026-05-23 14:50:43.464,1431382920,139464,1,0.96216,-0.06372,0.27344,-0.092,7.198,3.924
2026-05-23 14:50:43.464,1431382920,139464,2,0.90649,0.31274,0.52466,2.641,4.855,-3.481
2026-05-23 14:50:43.664,1431383120,139664,1,0.96143,-0.0166,0.30176,-0.374,7.282,-2.672
2026-05-23 14:50:43.664,1431383120,139664,2,0.91577,0.32813,0.53467,-5.71,4.412,3.473
2026-05-23 14:50:43.864,1431383320,139864,1,0.96167,-0.04932,0.28882,-3.076,0.534,1.992
2026-05-23 14:50:43.864,1431383320,139864,2,0.91797,0.30005,0.55981,-0.389,-0.046,0.031
2026-05-23 14:50:43.064,1431382520,140064,1,0.97168,-0.04028,0.27466,-5.916,-3.084,2.588
2026-05-23 14:50:43.064,1431382520,140064,2,0.90894,0.31836,0.53809,-2.496,-0.84,2.366
2026-05-23 14:50:44.264,1431383720,140264,1,0.97461,-0.05908,0.27783,4.26,2.046,-1.076
2026-05-23 14:50:44.264,1431383720,140264,2,0.90723,0.33569,0.53369,1.023,2.153,0.588
2026-05-23 14:50:44.464,1431383920,140464,1,0.96826,-0.05127,0.28589,-5.153,1.244,-0.504
2026-05-23 14:50:44.464,1431383920,140464,2,0.91602,0.32544,0.55908,-2.115,1.481,2.588
2026-05-23 14:50:44.664,1431384120,140664,1,0.96753,-0.05811,0.28418,0.092,3.916,-0.45
2026-05-23 14:50:44.664,1431384120,140664,2,0.90918,0.32788,0.54736,-0.962,3.664,0.076
2026-05-23 14:50:44.864,1431384320,140864,1,0.96118,-0.04443,0.29004,-2.328,2.466,-2.183
2026-05-23 14:50:44.864,1431384320,140864,2,0.89819,0.32178,0.56738,-0.847,1.679,1.252
2026-05-23 14:50:44.064,1431383520,141064,1,0.93311,-0.04175,0.32568,-0.015,5.542,3.183
2026-05-23 14:50:44.064,1431383520,141064,2,0.90454,0.34644,0.55469,1.626,0.176,4.771
2026-05-23 14:50:45.264,1431384720,141264,1,0.95459,-0.05176,0.30811,-4.855,-0.26,-0.107
2026-05-23 14:50:45.264,1431384720,141264,2,0.92944,0.30078,0.5376,-2.008,-2.763,4.389
2026-05-23 14:50:45.464,1431384920,141464,1,0.94849,-0.06543,0.3064,-2.557,2.687,1.061
2026-05-23 14:50:45.464,1431384920,141464,2,0.93506,0.28638,0.5249,0.443,-0.931,4.496
2026-05-23 14:50:45.664,1431385120,141664,1,0.95337,-0.05933,0.32495,-0.305,2.42,-2.374
2026-05-23 14:50:45.664,1431385120,141664,2,0.92725,0.28638,0.5437,-2.458,-0.595,0.748
2026-05-23 14:50:45.864,1431385320,141864,1,0.93213,-0.05908,0.32422,-2.366,0.939,0.824
2026-05-23 14:50:45.864,1431385320,141864,2,0.92603,0.28711,0.52979,0.389,-1.107,2.168
2026-05-23 14:50:45.064,1431384520,142064,1,0.94287,-0.0498,0.33423,0.718,0.427,-0.26
2026-05-23 14:50:45.064,1431384520,142064,2,0.93262,0.28857,0.51611,-0.634,-0.542,2.931
2026-05-23 14:50:46.264,1431385720,142264,1,0.94971,-0.052,0.33716,-1.511,0.641,-1.893
2026-05-23 14:50:46.264,1431385720,142264,2,0.93384,0.28589,0.52466,-1.374,0.756,3.58
2026-05-23 14:50:46.464,1431385920,142464,1,0.93799,-0.04688,0.33691,-1.885,-1.382,-0.87
2026-05-23 14:50:46.464,1431385920,142464,2,0.9375,0.27466,0.51392,-1.489,-2.221,2.924
2026-05-23 14:50:46.664,1431386120,142664,1,0.95117,-0.04077,0.3208,-1.458,-3.863,-0.725
2026-05-23 14:50:46.664,1431386120,142664,2,0.94385,0.26636,0.51489,1.321,-1.496,1.87
2026-05-23 14:50:46.864,1431386320,142864,1,0.95557,-0.03174,0.30225,-0.336,-1.344,-0.573
2026-05-23 14:50:46.864,1431386320,142864,2,0.93628,0.27173,0.49463,0.435,0.145,0.786
2026-05-23 14:50:46.064,1431385520,143064,1,0.95508,-0.03027,0.31714,-2.214,0.702,0.183
2026-05-23 14:50:46.064,1431385520,143064,2,0.93701,0.28247,0.49927,-1.84,1.855,1.092
2026-05-23 14:50:47.264,1431386720,143264,1,0.95044,-0.05029,0.31201,-3.641,0.336,2.473
2026-05-23 14:50:47.264,1431386720,143264,2,0.92456,0.27563,0.50732,0.664,1.275,0.191
2026-05-23 14:50:47.464,1431386920,143464,1,0.94824,-0.03882,0.31714,1.817,1.221,0.74
2026-05-23 14:50:47.464,1431386920,143464,2,0.93506,0.28369,0.50684,0.427,1.588,-0.267
2026-05-23 14:50:47.664,1431387120,143664,1,0.95508,-0.02661,0.32129,-5.992,0.405,0.29
2026-05-23 14:50:47.664,1431387120,143664,2,0.94019,0.26074,0.52051,-2.58,1.115,1.679
2026-05-23 14:50:47.864,1431387320,143864,1,0.9458,-0.04102,0.32764,-0.061,1.55,0.809
2026-05-23 14:50:47.864,1431387320,143864,2,0.93262,0.29443,0.50244,-0.893,1.901,0.71
2026-05-23 14:50:47.064,1431386520,144064,1,0.94507,-0.04907,0.3313,-0.252,0.878,-0.786
2026-05-23 14:50:47.064,1431386520,144064,2,0.92847,0.28442,0.50244,0.954,1.603,0.412
2026-05-23 14:50:48.264,1431387720,144264,1,0.94189,-0.03296,0.33032,-3.099,1.191,-0.832
2026-05-23 14:50:48.264,1431387720,144264,2,0.93506,0.28687,0.50244,-3.725,1.527,2.115
2026-05-23 14:50:48.464,1431387920,144464,1,0.94775,-0.05566,0.31763,-0.649,0.71,1.405
2026-05-23 14:50:48.464,1431387920,144464,2,0.9353,0.29126,0.51294,2.176,1.16,0.038
2026-05-23 14:50:48.664,1431388120,144664,1,0.94141,-0.04663,0.32764,-3.16,0.679,-0.198
2026-05-23 14:50:48.664,1431388120,144664,2,0.93311,0.27344,0.5271,-1.008,0.649,0.42
2026-05-23 14:50:48.864,1431388320,144864,1,0.94238,-0.04272,0.33618,-1.542,0.832,-0.221
2026-05-23 14:50:48.864,1431388320,144864,2,0.93066,0.29468,0.51025,-2.603,1.198,1.962
2026-05-23 14:50:48.064,1431387520,145064,1,0.93335,-0.05981,0.33301,-1.847,-0.511,0.519
2026-05-23 14:50:48.064,1431387520,145064,2,0.93359,0.28833,0.52124,-0.878,-0.069,1.771
2026-05-23 14:50:49.264,1431388720,145264,1,0.95215,-0.04077,0.32544,-1.092,-0.481,0.221
2026-05-23 14:50:49.264,1431388720,145264,2,0.92822,0.28491,0.50659,-1.26,0.74,1.924
2026-05-23 14:50:49.464,1431388920,145464,1,0.94019,-0.05884,0.33398,-3.588,-0.206,-0.206
2026-05-23 14:50:49.464,1431388920,145464,2,0.92432,0.28149,0.51855,-0.878,0.359,1.87
2026-05-23 14:50:49.664,1431389120,145664,1,0.94897,-0.04858,0.32397,-1.397,-0.061,-0.031
2026-05-23 14:50:49.664,1431389120,145664,2,0.93091,0.28394,0.50586,-1.031,0.985,1.885
2026-05-23 14:50:49.864,1431389320,145864,1,0.94482,-0.05151,0.32104,-0.069,0.931,0.168
2026-05-23 14:50:49.864,1431389320,145864,2,0.93384,0.28149,0.50439,-0.74,0.443,0.969
2026-05-23 14:50:49.064,1431388520,146064,1,0.93994,-0.05933,0.32446,-2.397,-0.069,0.649
2026-05-23 14:50:49.064,1431388520,146064,2,0.93164,0.28687,0.5127,-1.015,0.282,0.832
2026-05-23 14:50:50.264,1431389720,146264,1,0.9502,-0.05493,0.32764,-1.168,0.718,-0.542
2026-05-23 14:50:50.264,1431389720,146264,2,0.92627,0.2915,0.51563,-1.328,0.687,1.366
2026-05-23 14:50:50.464,1431389920,146464,1,0.9502,-0.05176,0.32422,-1.985,0.252,-0.13
2026-05-23 14:50:50.464,1431389920,146464,2,0.93628,0.28223,0.51489,-0.588,1.55,0.992
2026-05-23 14:50:50.664,1431390120,146664,1,0.96533,-0.04614,0.28174,2.374,4.137,0.817
2026-05-23 14:50:50.664,1431390120,146664,2,0.95166,0.32397,0.51587,-5.771,8.893,-6.336
2026-05-23 14:50:50.864,1431390320,146864,1,0.96411,-0.04321,0.32227,-8.878,17.336,-3.702
2026-05-23 14:50:50.864,1431390320,146864,2,0.91797,0.28271,0.54053,-7.13,21.389,-14.863
2026-05-23 14:50:50.064,1431389520,147064,1,0.92749,-0.05273,0.39478,3.42,4.962,0.695
2026-05-23 14:50:50.064,1431389520,147064,2,0.86621,0.39551,0.6333,-6.435,16.321,-17.473
2026-05-23 14:50:51.264,1431390720,147264,1,0.89111,-0.04321,0.48291,7.924,5.489,-2.275
2026-05-23 14:50:51.264,1431390720,147264,2,0.83203,0.39771,0.72656,0.725,13.954,-12.298
2026-05-23 14:50:51.464,1431390920,147464,1,0.94678,-0.00024,0.43359,7.137,-9.878,-5.458
2026-05-23 14:50:51.464,1431390920,147464,2,0.91772,0.47607,0.7124,0.176,-3.183,2.198
2026-05-23 14:50:51.664,1431391120,147664,1,0.96094,0.04272,0.51807,-1.679,-20.786,-5.26
2026-05-23 14:50:51.664,1431391120,147664,2,0.84546,0.51221,0.73706,-11.947,-26.786,3.908
2026-05-23 14:50:51.864,1431391320,147864,1,0.89111,0.03711,0.31177,1.733,-48.038,-3.29
2026-05-23 14:50:51.864,1431391320,147864,2,0.78564,0.38452,0.57153,5.504,-37.679,17.115
2026-05-23 14:50:51.064,1431390520,148064,1,0.83325,-0.00635,0.021,-9.534,-40.656,10.008
2026-05-23 14:50:51.064,1431390520,148064,2,0.75928,0.42358,0.41455,18.901,-44.183,14.359
2026-05-23 14:50:52.264,1431391720,148264,1,1.04443,0.00757,-0.0105,3.718,-10.397,1.947
2026-05-23 14:50:52.264,1431391720,148264,2,0.97559,0.29712,0.21875,-1.298,-5.901,24.771
2026-05-23 14:50:52.464,1431391920,148464,1,1.08154,-0.04004,-0.03516,-12.771,-18.794,0.702
2026-05-23 14:50:52.464,1431391920,148464,2,0.93359,0.32617,0.25171,-3.924,-2.45,-0.214
2026-05-23 14:50:52.664,1431392120,148664,1,1.05249,-0.08081,-0.00366,-12.298,9.359,-1.947
2026-05-23 14:50:52.664,1431392120,148664,2,0.93579,0.26685,0.2002,11.985,-11.519,7.191
2026-05-23 14:50:52.864,1431392320,148864,1,1.06445,-0.08667,-0.00928,-0.618,-2.58,-2.0
2026-05-23 14:50:52.864,1431392320,148864,2,0.92505,0.28223,0.24048,5.985,9.16,2.58
2026-05-23 14:50:52.064,1431391520,149064,1,1.08374,-0.06812,-0.03735,2.58,4.687,-2.489
2026-05-23 14:50:52.064,1431391520,149064,2,0.92749,0.28247,0.16089,-1.847,-8.489,-2.855
2026-05-23 14:50:53.264,1431392720,149264,1,1.05811,-0.00562,-0.03442,-2.611,-5.038,-1.328
2026-05-23 14:50:53.264,1431392720,149264,2,0.91089,0.2937,0.19336,3.718,6.137,5.985
2026-05-23 14:50:53.464,1431392920,149464,1,1.06763,-0.04053,-0.05884,-3.412,-1.344,-0.336
2026-05-23 14:50:53.464,1431392920,149464,2,0.90601,0.2876,0.18701,0.191,-10.504,0.053
2026-05-23 14:50:53.664,1431393120,149664,1,1.05908,-0.01807,-0.03809,-2.45,2.298,-0.863
2026-05-23 14:50:53.664,1431393120,149664,2,0.91187,0.27344,0.17725,1.809,1.55,3.191
2026-05-23 14:50:53.864,1431393320,149864,1,1.06128,-0.02539,-0.04541,0.756,1.191,0.847
2026-05-23 14:50:53.864,1431393320,149864,2,0.91577,0.25488,0.16382,10.298,1.092,6.916
2026-05-23 14:50:53.064,1431392520,150064,1,1.06494,-0.03711,-0.0249,-2.366,3.458,-2.855
2026-05-23 14:50:53.064,1431392520,150064,2,0.92017,0.26099,0.19824,-3.916,1.527,-1.87
2026-05-23 14:50:54.264,1431393720,150264,1,1.06055,-0.02515,-0.04004,-1.107,1.076,2.015
2026-05-23 14:50:54.264,1431393720,150264,2,0.91943,0.2605,0.17603,2.328,-1.641,-0.176
2026-05-23 14:50:54.464,1431393920,150464,1,1.06714,-0.0127,-0.01733,-5.198,3.878,0.954
2026-05-23 14:50:54.464,1431393920,150464,2,0.91382,0.271,0.19751,-2.344,5.145,2.779
2026-05-23 14:50:54.664,1431394120,150664,1,1.06299,-0.03247,0.00439,-1.679,3.885,1.351
2026-05-23 14:50:54.664,1431394120,150664,2,0.91235,0.26563,0.20996,0.267,3.214,0.992
2026-05-23 14:50:54.864,1431394320,150864,1,1.02319,-0.04126,-0.00781,-2.985,4.855,1.687
2026-05-23 14:50:54.864,1431394320,150864,2,0.94336,0.26978,0.21094,2.443,3.718,-0.595
2026-05-23 14:50:54.064,1431393520,151064,1,1.07275,-0.02148,0.01929,-0.176,1.504,-1.656
2026-05-23 14:50:54.064,1431393520,151064,2,0.90552,0.33032,0.32471,26.397,24.55,5.863
2026-05-23 14:50:55.264,1431394720,151264,1,1.0354,-0.02295,0.03662,-2.374,6.015,-2.305
2026-05-23 14:50:55.264,1431394720,151264,2,0.93726,0.19849,0.07031,12.87,-10.069,11.122
2026-05-23 14:50:55.464,1431394920,151464,1,1.0564,-0.01758,-0.02173,7.489,9.153,-2.374
2026-05-23 14:50:55.464,1431394920,151464,2,0.95703,0.302,0.27783,-7.198,14.771,3.45
2026-05-23 14:50:55.664,1431395120,151664,1,1.07813,-0.02222,0.03418,0.947,3.618,0.985
2026-05-23 14:50:55.664,1431395120,151664,2,0.91406,0.25488,0.21436,-2.092,-0.679,-3.473
2026-05-23 14:50:55.864,1431395320,151864,1,1.06006,-0.01099,0.04224,2.473,-1.053,-0.573
2026-05-23 14:50:55.864,1431395320,151864,2,0.92114,0.24756,0.20581,-0.55,3.817,1.893
2026-05-23 14:50:55.064,1431394520,152064,1,1.08032,-0.03979,0.04565,4.962,3.794,0.878
2026-05-23 14:50:55.064,1431394520,152064,2,0.9187,0.26758,0.28076,-5.679,-7.573,3.71
2026-05-23 14:50:56.264,1431395720,152264,1,1.03467,-0.01831,0.04858,-2.954,0.924,0.023
2026-05-23 14:50:56.264,1431395720,152264,2,0.90942,0.24292,0.21338,2.771,3.84,3.328
2026-05-23 14:50:56.464,1431395920,152464,1,1.0498,-0.02588,0.05884,-4.802,3.45,-0.641
2026-05-23 14:50:56.464,1431395920,152464,2,0.92603,0.24976,0.19141,-5.885,-1.076,-1.26
2026-05-23 14:50:56.664,1431396120,152664,1,1.02563,-0.01489,0.07593,-5.336,5.45,-1.153
2026-05-23 14:50:56.664,1431396120,152664,2,0.92651,0.25269,0.24902,-14.504,-8.427,-0.015
2026-05-23 14:50:56.864,1431396320,152864,1,1.03638,-0.02515,0.06543,-3.069,1.29,1.557
2026-05-23 14:50:56.864,1431396320,152864,2,0.93945,0.25952,0.25073,-6.733,-3.702,0.786
2026-05-23 14:50:56.064,1431395520,153064,1,1.04199,-0.02124,0.06738,-2.405,0.191,0.962
2026-05-23 14:50:56.064,1431395520,153064,2,0.92578,0.26538,0.24658,3.176,0.947,0.412
2026-05-23 14:50:57.264,1431396720,153264,1,1.0354,-0.02856,0.05322,-5.412,-9.008,2.366
2026-05-23 14:50:57.264,1431396720,153264,2,0.92676,0.2771,0.21997,5.718,-2.069,-1.962
2026-05-23 14:50:57.464,1431396920,153464,1,1.05078,-0.02734,0.01636,-4.435,-10.954,-2.015
2026-05-23 14:50:57.464,1431396920,153464,2,0.92334,0.28271,0.21436,-0.55,-3.542,-1.336
2026-05-23 14:50:57.664,1431397120,153664,1,1.05542,-0.02637,0.00024,-4.466,-0.786,1.443
2026-05-23 14:50:57.664,1431397120,153664,2,0.92261,0.29663,0.2146,3.321,-2.802,3.733
2026-05-23 14:50:57.864,1431397320,153864,1,1.06226,-0.01904,0.01343,-0.702,0.145,-1.137
2026-05-23 14:50:57.864,1431397320,153864,2,0.91235,0.24829,0.19531,-2.847,11.061,3.954
2026-05-23 14:50:57.064,1431396520,154064,1,1.0769,-0.0354,0.00244,2.794,-3.687,2.107
2026-05-23 14:50:57.064,1431396520,154064,2,0.91797,0.25146,0.18555,-4.031,0.336,0.061
2026-05-23 14:50:58.264,1431397720,154264,1,1.05054,-0.01099,0.01343,0.626,2.687,-1.504
2026-05-23 14:50:58.264,1431397720,154264,2,0.92041,0.26636,0.18506,0.26,-2.458,4.58
2026-05-23 14:50:58.464,1431397920,154464,1,1.06982,-0.02344,,-3.885,3.656,0.015
2026-05-23 14:50:58.464,1431397920,154464,2,0.91797,0.26514,0.19873,-4.191,12.153,-0.626
2026-05-23 14:50:58.664,1431398120,154664,1,1.05103,-0.02393,0.02368,-3.061,4.305,-0.336
2026-05-23 14:50:58.664,1431398120,154664,2,0.91919,0.26123,0.19971,-8.389,1.382,-1.008
2026-05-23 14:50:58.864,1431398320,154864,1,1.05176,-0.0166,0.04834,-7.573,4.038,-1.16
2026-05-23 14:50:58.864,1431398320,154864,2,0.91284,0.27173,0.22021,-4.351,7.87,0.313
2026-05-23 14:50:58.064,1431397520,155064,1,1.04224,-0.02197,0.05786,-2.115,1.893,-0.015
2026-05-23 14:50:58.064,1431397520,155064,2,0.92041,0.28003,0.22681,-0.328,0.26,1.496
2026-05-23 14:50:59.264,1431398720,155264,1,1.05298,-0.01294,0.05518,-3.763,2.298,0.336
2026-05-23 14:50:59.264,1431398720,155264,2,0.91357,0.26636,0.23242,-0.252,1.427,0.656
2026-05-23 14:50:59.464,1431398920,155464,1,1.05591,-0.01636,0.03833,-3.985,-5.206,-2.023
2026-05-23 14:50:59.464,1431398920,155464,2,0.9126,0.27197,0.21875,-4.008,-2.931,0.916
2026-05-23 14:50:59.664,1431399120,155664,1,1.05835,-0.01636,0.02222,-4.718,-7.153,-2.901
2026-05-23 14:50:59.664,1431399120,155664,2,0.92749,0.29321,0.23242,-2.038,-0.053,0.252
2026-05-23 14:50:59.864,1431399320,155864,1,1.05981,-0.01978,0.01318,0.817,-1.618,1.328
2026-05-23 14:50:59.864,1431399320,155864,2,0.92285,0.26831,0.2168,-3.588,-0.061,1.534
2026-05-23 14:50:59.064,1431398520,156064,1,1.06348,-0.0271,0.01099,0.214,1.366,1.015
2026-05-23 14:50:59.064,1431398520,156064,2,0.91699,0.26636,0.20068,-4.321,-2.328,1.863
2026-05-23 14:51:00.264,1431399720,156264,1,1.05493,-0.02246,-0.00439,-0.992,3.969,1.122
2026-05-23 14:51:00.264,1431399720,156264,2,0.92065,0.27954,0.22314,0.817,6.626,-0.031
2026-05-23 14:51:00.464,1431399920,156464,1,1.01929,-0.00366,0.00879,-2.626,22.481,-1.076
2026-05-23 14:51:00.464,1431399920,156464,2,0.87793,0.28247,0.27319,2.092,31.183,1.656
2026-05-23 14:51:00.664,1431400120,156664,1,1.02344,-0.02734,0.052,-3.214,47.42,-1.046
2026-05-23 14:51:00.664,1431400120,156664,2,0.89551,0.32446,0.44727,-27.931,51.565,-30.458
2026-05-23 14:51:00.864,1431400320,156864,1,0.78296,-0.02222,0.37988,-25.931,63.45,9.168
2026-05-23 14:51:00.864,1431400320,156864,2,0.84033,0.35815,0.54199,-19.321,41.466,-6.718
2026-05-23 14:51:00.064,1431399520,157064,1,0.87036,-0.15991,0.50098,-7.55,27.55,1.969
2026-05-23 14:51:00.064,1431399520,157064,2,0.81201,0.42847,0.70459,-3.137,21.237,0.061
2026-05-23 14:51:01.264,1431400720,157264,1,0.89258,-0.14404,0.62158,16.221,9.611,2.145
2026-05-23 14:51:01.264,1431400720,157264,2,0.84155,0.49585,0.5896,46.992,13.786,-10.374
2026-05-23 14:51:01.464,1431400920,157464,1,0.84082,-0.05493,0.42749,-2.695,-19.313,-6.031
2026-05-23 14:51:01.464,1431400920,157464,2,0.79102,0.39429,0.68726,-14.954,-18.321,4.397
2026-05-23 14:51:01.664,1431401120,157664,1,0.92065,-0.12622,0.46411,-4.786,-15.443,4.321
2026-05-23 14:51:01.664,1431401120,157664,2,0.93262,0.35742,0.70996,7.122,-2.122,11.519
2026-05-23 14:51:01.864,1431401320,157864,1,0.91504,-0.09937,0.37622,8.672,-18.427,6.214
2026-05-23 14:51:01.864,1431401320,157864,2,0.90088,0.36597,0.56641,15.29,-14.74,7.252
2026-05-23 14:51:01.064,1431400520,158064,1,0.97876,-0.05029,0.30298,1.29,-22.29,-2.893
2026-05-23 14:51:01.064,1431400520,158064,2,0.8999,0.35718,0.53516,4.115,-13.664,7.214
2026-05-23 14:51:02.264,1431401720,158264,1,0.96899,-0.02344,0.2356,0.122,-12.832,-3.71
2026-05-23 14:51:02.264,1431401720,158264,2,0.92969,0.30811,0.49634,1.061,-7.756,9.947
2026-05-23 14:51:02.464,1431401920,158464,1,0.99365,-0.04321,0.21655,1.748,5.618,4.206
2026-05-23 14:51:02.464,1431401920,158464,2,0.92578,0.35791,0.49292,3.885,1.053,7.061
2026-05-23 14:51:02.664,1431402120,158664,1,0.98145,-0.03467,0.28418,-12.534,3.107,0.252
2026-05-23 14:51:02.664,1431402120,158664,2,0.9104,0.27808,0.4585,-12.84,-11.725,6.565
2026-05-23 14:51:02.864,1431402320,158864,1,0.98926,-0.06787,0.26172,5.26,-6.275,5.84
2026-05-23 14:51:02.864,1431402320,158864,2,0.9541,0.32788,0.44653,3.924,-6.794,5.313
2026-05-23 14:51:02.064,1431401520,159064,1,0.9834,-0.02979,0.23633,10.527,0.504,3.55
2026-05-23 14:51:02.064,1431401520,159064,2,0.94653,0.28687,0.41382,-6.695,-2.069,5.405
2026-05-23 14:51:03.264,1431402720,159264,1,0.99927,-0.04395,0.23071,-2.87,8.031,-1.595
2026-05-23 14:51:03.264,1431402720,159264,2,0.93408,0.28394,0.42871,-2.595,11.847,-1.863
2026-05-23 14:51:03.464,1431402920,159464,1,0.97046,-0.05737,0.28369,1.145,6.71,0.435
2026-05-23 14:51:03.464,1431402920,159464,2,0.92578,0.28394,0.47827,1.389,7.389,-0.198
2026-05-23 14:51:03.664,1431403120,159664,1,0.95752,-0.09741,0.27637,-9.023,-0.573,4.58
2026-05-23 14:51:03.664,1431403120,159664,2,0.92725,0.30396,0.52417,-2.244,5.26,-2.893
2026-05-23 14:51:03.864,1431403320,159864,1,0.94897,-0.06885,0.32446,0.26,5.534,0.305
2026-05-23 14:51:03.864,1431403320,159864,2,0.92188,0.32202,0.50415,-1.519,3.046,1.473
2026-05-23 14:51:03.064,1431402520,160064,1,0.94751,-0.06421,0.31348,2.954,5.145,-4.328
2026-05-23 14:51:03.064,1431402520,160064,2,0.91211,0.31641,0.51831,-0.664,3.298,-0.13
2026-05-23 14:51:04.264,1431403720,160264,1,0.94702,-0.05859,0.32813,-3.55,-0.71,0.412
2026-05-23 14:51:04.264,1431403720,160264,2,0.91675,0.32031,0.51172,-1.069,-0.237,0.733
2026-05-23 14:51:04.464,1431403920,160464,1,0.94678,-0.06128,0.31421,-1.435,1.099,1.267
2026-05-23 14:51:04.464,1431403920,160464,2,0.9231,0.33545,0.50781,0.023,0.924,2.115
2026-05-23 14:51:04.664,1431404120,160664,1,0.94531,-0.06421,0.31958,-2.321,0.427,-0.42
2026-05-23 14:51:04.664,1431404120,160664,2,0.92725,0.30859,0.5166,-1.58,1.16,2.634
2026-05-23 14:51:04.864,1431404320,160864,1,0.95776,-0.07983,0.30786,-1.153,0.489,1.733
2026-05-23 14:51:04.864,1431404320,160864,2,0.91992,0.31689,0.50781,-0.954,0.962,1.573
2026-05-23 14:51:04.064,1431403520,161064,1,0.94629,-0.07959,0.32251,-2.176,0.191,-0.282
2026-05-23 14:51:04.064,1431403520,161064,2,0.91992,0.31738,0.51025,-0.26,0.962,0.885
2026-05-23 14:51:05.264,1431404720,161264,1,0.94971,-0.07422,0.31421,-2.679,-0.282,-0.527
2026-05-23 14:51:05.264,1431404720,161264,2,0.91724,0.31689,0.50757,-1.969,0.107,1.458
2026-05-23 14:51:05.464,1431404920,161464,1,0.94971,-0.07471,0.32178,-1.267,-0.397,-0.092
2026-05-23 14:51:05.464,1431404920,161464,2,0.91846,0.32227,0.50952,-0.473,-0.756,0.954
2026-05-23 14:51:05.664,1431405120,161664,1,0.95435,-0.07983,0.31152,-0.282,-0.794,-1.168
2026-05-23 14:51:05.664,1431405120,161664,2,0.9209,0.32422,0.5,-0.595,0.45,0.511
2026-05-23 14:51:05.864,1431405320,161864,1,0.95044,-0.05737,0.30664,-0.282,0.847,-2.58
2026-05-23 14:51:05.864,1431405320,161864,2,0.91772,0.31616,0.49731,-4.107,0.626,2.0
2026-05-23 14:51:05.064,1431404520,162064,1,0.95044,-0.06543,0.30835,-1.397,-0.405,0.718
2026-05-23 14:51:05.064,1431404520,162064,2,0.92065,0.32422,0.51123,0.397,0.748,1.618
2026-05-23 14:51:06.264,1431405720,162264,1,0.95337,-0.0647,0.30078,-1.603,0.55,0.397
2026-05-23 14:51:06.264,1431405720,162264,2,0.92456,0.31763,0.51489,-0.496,0.947,1.511
2026-05-23 14:51:06.464,1431405920,162464,1,0.95337,-0.073,0.31714,-2.16,0.29,0.58
2026-05-23 14:51:06.464,1431405920,162464,2,0.91577,0.31323,0.5083,-0.076,0.786,1.275
2026-05-23 14:51:06.664,1431406120,162664,1,0.94849,-0.05981,0.30811,-1.511,-0.008,-0.214
2026-05-23 14:51:06.664,1431406120,162664,2,0.91895,0.31958,0.50537,-0.672,0.687,1.473
2026-05-23 14:51:09.564,1431409020,165564,1,0.95508,-0.06665,0.31689,-2.664,-0.305,0.145
2026-05-23 14:51:09.564,1431409020,165564,2,0.91528,0.3291,0.51025,0.267,0.939,1.435
2026-05-23 14:51:09.764,1431409220,165764,1,0.94434,-0.06274,0.32861,-2.702,-0.344,-0.458
2026-05-23 14:51:09.764,1431409220,165764,2,0.91187,0.33057,0.51294,-0.71,0.786,1.565
2026-05-23 14:51:09.964,1431409420,165964,1,0.94727,-0.06396,0.31787,-1.45,0.061,-0.321
2026-05-23 14:51:09.964,1431409420,165964,2,0.92163,0.32983,0.50513,-1.053,1.0,1.618
2026-05-23 14:51:10.164,1431409620,166164,1,0.95288,-0.06006,0.32861,-1.771,0.634,0.229
2026-05-23 14:51:10.164,1431409620,166164,2,0.91846,0.32739,0.51978,-0.794,0.947,1.405
2026-05-23 14:51:10.364,1431409820,166364,1,0.94019,-0.06445,0.32422,-1.832,0.26,0.122
2026-05-23 14:51:10.364,1431409820,166364,2,0.91772,0.32959,0.50317,-0.496,0.962,1.328
2026-05-23 14:51:10.565,1431410021,166564,1,0.94604,-0.07007,0.3147,-1.756,0.13,-0.13
2026-05-23 14:51:10.565,1431410021,166564,2,0.9248,0.32446,0.51172,-0.695,1.168,1.198
2026-05-23 14:51:10.764,1431410220,166764,1,0.97485,-0.07861,0.28296,1.863,-2.985,0.435
2026-05-23 14:51:10.764,1431410220,166764,2,0.93481,0.36743,0.45557,0.244,7.405,-6.695
2026-05-23 14:51:10.964,1431410420,166964,1,0.97974,-0.05225,0.29956,-15.176,15.74,-9.282
2026-05-23 14:51:10.964,1431410420,166964,2,0.90747,0.3501,0.55371,-20.466,26.489,-7.336
2026-05-23 14:51:11.164,1431410620,167164,1,0.92798,-0.08813,0.39697,-2.748,27.115,-6.985
2026-05-23 14:51:11.164,1431410620,167164,2,0.91284,0.36572,0.70605,-2.588,29.221,-20.038
2026-05-23 14:51:11.364,1431410820,167364,1,0.88525,-0.00537,0.51855,2.511,21.008,2.42
2026-05-23 14:51:11.364,1431410820,167364,2,0.83667,0.40601,0.79468,4.008,19.595,-14.534
2026-05-23 14:51:11.564,1431411020,167564,1,0.85107,-0.02417,0.55737,0.725,-5.427,0.282
2026-05-23 14:51:11.564,1431411020,167564,2,0.7793,0.60938,0.80469,0.794,7.435,-7.076
2026-05-23 14:51:11.764,1431411220,167764,1,0.8562,-0.00586,0.58691,-11.42,-11.565,-7.817
2026-05-23 14:51:11.764,1431411220,167764,2,0.77417,0.51587,0.87549,-11.282,-7.626,13.168
2026-05-23 14:51:11.964,1431411420,167964,1,0.82764,-0.01709,0.43262,0.084,-24.275,-6.145
2026-05-23 14:51:11.964,1431411420,167964,2,0.75171,0.39551,0.71777,-5.053,-25.206,18.198
2026-05-23 14:51:12.164,1431411620,168164,1,0.86401,-0.06665,0.29663,13.626,-45.031,-3.046
2026-05-23 14:51:12.164,1431411620,168164,2,0.7937,0.35132,0.60376,1.176,-61.893,7.893
2026-05-23 14:51:12.364,1431411820,168364,1,0.96655,0.03052,0.16577,23.58,-34.611,15.42
2026-05-23 14:51:12.364,1431411820,168364,2,0.74438,0.36865,0.49023,22.939,-28.061,24.786
2026-05-23 14:51:12.564,1431412020,168564,1,1.06592,-0.00464,0.05273,0.176,-24.397,7.718
2026-05-23 14:51:12.564,1431412020,168564,2,0.95752,0.45313,0.38208,2.443,-13.168,5.313
2026-05-23 14:51:12.764,1431412220,168764,1,0.99023,-0.01733,0.07275,-19.733,2.931,-2.443
2026-05-23 14:51:12.764,1431412220,168764,2,0.90259,0.30713,0.32837,-3.137,-9.328,12.427
2026-05-23 14:51:12.964,1431412420,168964,1,1.0686,-0.04565,0.02832,-6.595,-9.557,-2.794
2026-05-23 14:51:12.964,1431412420,168964,2,0.92236,0.30811,0.26929,2.992,-12.718,-0.023
2026-05-23 14:51:13.164,1431412620,169164,1,1.05786,-0.03516,-0.02124,-0.58,-7.557,0.351
2026-05-23 14:51:13.164,1431412620,169164,2,0.93286,0.302,0.26709,15.137,-9.038,6.046
2026-05-23 14:51:13.364,1431412820,169364,1,1.08228,-0.0271,-0.021,2.985,2.015,3.947
2026-05-23 14:51:13.364,1431412820,169364,2,0.9043,0.25098,0.19971,0.603,6.328,1.443
2026-05-23 14:51:13.564,1431413020,169564,1,1.07007,-0.00708,-0.0105,3.954,-3.695,1.198
2026-05-23 14:51:13.564,1431413020,169564,2,0.92847,0.29248,0.19434,-1.58,-17.58,2.885
2026-05-23 14:51:13.764,1431413220,169764,1,1.08594,-0.02905,-0.01318,-11.496,1.55,-2.534
2026-05-23 14:51:13.764,1431413220,169764,2,0.927,0.32227,0.23682,-31.405,6.084,-12.878
2026-05-23 14:51:13.964,1431413420,169964,1,1.05566,-0.02441,0.00073,-7.573,5.061,0.489
2026-05-23 14:51:13.964,1431413420,169964,2,0.91553,0.29224,0.21338,9.405,11.13,5.779
2026-05-23 14:51:14.164,1431413620,170164,1,1.05713,-0.04834,0.00439,1.489,3.481,-0.29
2026-05-23 14:51:14.164,1431413620,170164,2,0.94116,0.24243,0.19214,5.863,5.542,3.626
2026-05-23 14:51:14.364,1431413820,170364,1,1.05347,-0.00684,0.03516,8.084,2.626,0.031
2026-05-23 14:51:14.364,1431413820,170364,2,0.90308,0.24902,0.16089,-4.229,-7.908,-3.328
2026-05-23 14:51:14.564,1431414020,170564,1,1.05981,-0.0354,0.0376,-4.847,2.84,-2.069
2026-05-23 14:51:14.564,1431414020,170564,2,0.90649,0.27344,0.22241,-11.954,3.015,-2.183
2026-05-23 14:51:14.764,1431414220,170764,1,1.0542,-0.0437,0.04883,-1.802,3.595,-0.45
2026-05-23 14:51:14.764,1431414220,170764,2,0.92822,0.25269,0.22119,-1.229,-0.771,-0.168
2026-05-23 14:51:14.964,1431414420,170964,1,1.05127,-0.02905,0.05542,1.336,1.206,0.672
2026-05-23 14:51:14.964,1431414420,170964,2,0.92798,0.26392,0.22437,-3.588,2.977,-2.031
2026-05-23 14:51:15.164,1431414620,171164,1,1.05005,-0.02173,0.05835,-1.16,1.405,0.038
2026-05-23 14:51:15.164,1431414620,171164,2,0.9209,0.26685,0.21338,-4.221,1.069,0.069
2026-05-23 14:51:15.364,1431414820,171364,1,1.05688,-0.03052,0.05884,-4.122,-1.519,-0.794
2026-05-23 14:51:15.364,1431414820,171364,2,0.92554,0.27832,0.23804,-1.618,0.344,0.053
2026-05-23 14:51:15.564,1431415020,171564,1,1.04614,-0.02539,0.05884,-0.809,1.687,0.763
2026-05-23 14:51:15.564,1431415020,171564,2,0.92041,0.26782,0.2334,-1.489,3.168,0.374
2026-05-23 14:51:15.764,1431415220,171764,1,1.05005,-0.02393,0.06958,-1.496,0.42,-0.221
2026-05-23 14:51:15.764,1431415220,171764,2,0.91455,0.2771,0.22827,-2.397,0.412,1.374
2026-05-23 14:51:15.964,1431415420,171964,1,1.05029,-0.02466,0.05493,-2.374,1.282,-0.366
2026-05-23 14:51:15.964,1431415420,171964,2,0.92334,0.26514,0.22461,-3.061,1.321,-0.031
2026-05-23 14:51:16.164,1431415620,172164,1,1.04077,-0.02612,0.06616,-1.183,1.481,0.244
2026-05-23 14:51:16.164,1431415620,172164,2,0.92236,0.26172,0.24023,-2.427,2.023,1.954
2026-05-23 14:51:16.364,1431415820,172364,1,1.05298,-0.02612,0.0686,-2.031,0.916,0.42
2026-05-23 14:51:16.364,1431415820,172364,2,0.92627,0.27612,0.2439,-2.863,3.099,0.763
2026-05-23 14:51:16.564,1431416020,172564,1,1.04199,-0.02466,0.07349,-0.611,-0.466,0.206
2026-05-23 14:51:16.564,1431416020,172564,2,0.92798,0.27637,0.25,-0.672,2.351,2.603
2026-05-23 14:51:16.764,1431416220,172764,1,1.04175,-0.03394,0.0752,-1.198,-0.023,0.153
2026-05-23 14:51:16.764,1431416220,172764,2,0.91821,0.26514,0.25146,0.557,0.534,2.779
2026-05-23 14:51:16.964,1431416420,172964,1,1.04224,-0.03467,0.06665,-2.092,-0.511,0.206
2026-05-23 14:51:16.964,1431416420,172964,2,0.92603,0.26367,0.24146,0.977,1.015,2.069
2026-05-23 14:51:17.164,1431416620,173164,1,1.04736,-0.03711,0.0647,-1.275,-0.763,-0.099
2026-05-23 14:51:17.164,1431416620,173164,2,0.92114,0.271,0.24756,0.42,-0.229,1.115
2026-05-23 14:51:17.364,1431416820,173364,1,1.04248,-0.03125,0.073,-2.176,-0.214,-0.344
2026-05-23 14:51:17.364,1431416820,173364,2,0.92578,0.27222,0.23364,0.275,0.504,1.153
2026-05-23 14:51:17.564,1431417020,173564,1,1.04297,-0.03052,0.06152,-1.443,-0.145,-0.206
2026-05-23 14:51:17.564,1431417020,173564,2,0.92212,0.26611,0.23315,-0.618,1.26,1.427
2026-05-23 14:51:17.764,1431417220,173764,1,1.04883,-0.03442,0.06226,-1.214,0.351,0.13
2026-05-23 14:51:17.764,1431417220,173764,2,0.91675,0.26831,0.24146,-0.504,0.931,1.122
2026-05-23 14:51:17.964,1431417420,173964,1,1.0481,-0.03735,0.05811,-2.244,-0.069,0.389
2026-05-23 14:51:17.964,1431417420,173964,2,0.92163,0.27124,0.2312,-1.481,1.901,1.847
2026-05-23 14:51:18.169,1431417625,174169,1,1.04639,-0.02881,0.05493,-1.427,0.382,0.107
2026-05-23 14:51:18.169,1431417625,174169,2,0.92212,0.2666,0.22729,-0.908,0.374,1.496
2026-05-23 14:51:18.369,1431417825,174369,1,1.04443,-0.02759,0.06519,-1.328,0.87,-0.046
2026-05-23 14:51:18.369,1431417825,174369,2,0.92261,0.2644,0.23877,-0.389,0.435,1.389
2026-05-23 14:51:18.569,1431418025,174569,1,1.04639,-0.02759,0.06348,-2.427,-0.176,-0.061
2026-05-23 14:51:18.569,1431418025,174569,2,0.91797,0.271,0.23022,-1.084,0.611,0.443
2026-05-23 14:51:18.769,1431418225,174769,1,1.05054,-0.03076,0.05835,-7.519,-6.664,-1.58
2026-05-23 14:51:18.769,1431418225,174769,2,0.92627,0.27002,0.23315,-2.046,-0.511,1.008
2026-05-23 14:51:18.969,1431418425,174969,1,1.04395,-0.02466,0.02344,-2.305,-7.42,-2.069
2026-05-23 14:51:18.969,1431418425,174969,2,0.90796,0.26636,0.20874,-3.046,-2.779,1.435
2026-05-23 14:51:19.169,1431418625,175169,1,1.07031,-0.02002,-0.01318,-2.603,-6.832,-0.87
2026-05-23 14:51:19.169,1431418625,175169,2,0.92065,0.27417,0.22412,-0.626,-2.244,2.908
2026-05-23 14:51:19.369,1431418825,175369,1,1.06201,-0.02905,-0.02173,1.954,-0.107,2.756
2026-05-23 14:51:19.369,1431418825,175369,2,0.91309,0.28076,0.20703,4.298,-1.0,3.031
2026-05-23 14:51:19.569,1431419025,175569,1,1.06934,-0.02832,-0.00977,-1.534,1.885,0.595
2026-05-23 14:51:19.569,1431419025,175569,2,0.9248,0.26245,0.20337,-2.252,1.45,1.656
2026-05-23 14:51:19.769,1431419225,175769,1,1.05908,-0.03857,-0.00952,-4.298,2.229,-0.336
2026-05-23 14:51:19.769,1431419225,175769,2,0.92065,0.27295,0.20898,-0.374,1.802,0.275
2026-05-23 14:51:19.969,1431419425,175969,1,1.05127,-0.0271,0.00073,-2.053,0.099,-1.282
2026-05-23 14:51:19.969,1431419425,175969,2,0.92749,0.27417,0.20679,-0.58,0.855,2.962
2026-05-23 14:51:20.169,1431419625,176169,1,1.06006,-0.03003,-0.00073,-0.718,0.74,-0.046
2026-05-23 14:51:20.169,1431419625,176169,2,0.91187,0.27222,0.21313,-0.359,0.176,1.13
2026-05-23 14:51:20.369,1431419825,176369,1,1.05981,-0.01587,0.00073,0.511,2.198,0.031
2026-05-23 14:51:20.369,1431419825,176369,2,0.9104,0.271,0.20142,0.969,1.962,1.053
2026-05-23 14:51:20.569,1431420025,176569,1,1.05835,-0.01465,0.00757,-0.389,0.641,0.695
2026-05-23 14:51:20.569,1431420025,176569,2,0.91943,0.28345,0.21802,0.023,1.664,0.412
2026-05-23 14:51:20.769,1431420225,176769,1,1.05762,-0.02148,0.00317,-1.458,1.313,0.321
2026-05-23 14:51:20.769,1431420225,176769,2,0.92212,0.26782,0.19385,-0.71,1.695,1.344
2026-05-23 14:51:20.969,1431420425,176969,1,1.06299,-0.03247,0.00415,-3.42,1.16,0.397
2026-05-23 14:51:20.969,1431420425,176969,2,0.92334,0.27637,0.21411,-1.832,2.473,0.802
2026-05-23 14:51:21.169,1431420625,177169,1,1.06616,-0.04272,-0.01245,-4.534,9.939,1.748
2026-05-23 14:51:21.169,1431420625,177169,2,0.89453,0.31543,0.26245,-4.046,28.275,-7.305
2026-05-23 14:51:21.369,1431420825,177369,1,0.96777,-0.03442,0.00781,1.008,42.275,4.382
2026-05-23 14:51:21.369,1431420825,177369,2,0.85474,0.35596,0.43848,-30.985,47.992,-27.908
2026-05-23 14:51:21.569,1431421025,177569,1,0.83813,-0.07349,0.28223,-12.534,66.885,2.634
2026-05-23 14:51:21.569,1431421025,177569,2,0.74023,0.38208,0.6084,-19.557,37.74,-13.053
2026-05-23 14:51:21.769,1431421225,177769,1,0.81592,-0.06348,0.46924,-12.885,31.053,2.313
2026-05-23 14:51:21.769,1431421225,177769,2,0.82959,0.38403,0.67944,5.527,5.611,2.931
2026-05-23 14:51:21.969,1431421425,177969,1,1.00781,-0.15918,0.48145,-10.435,-9.641,7.267
2026-05-23 14:51:21.969,1431421425,177969,2,0.96802,0.32715,0.71191,13.237,20.496,12.74
2026-05-23 14:51:22.169,1431421625,178169,1,0.81689,-0.11841,0.4375,-0.672,-8.565,0.328
2026-05-23 14:51:22.169,1431421625,178169,2,0.92456,0.47656,0.67969,11.656,-10.481,4.427
2026-05-23 14:51:22.369,1431421825,178369,1,0.8208,-0.1333,0.44995,-11.351,-12.244,-10.42
2026-05-23 14:51:22.369,1431421825,178369,2,0.87549,0.3833,0.71753,-10.458,-11.344,12.221
2026-05-23 14:51:22.569,1431422025,178569,1,0.90234,-0.13159,0.41699,-11.26,-18.015,-3.969
2026-05-23 14:51:22.569,1431422025,178569,2,0.93652,0.32813,0.68677,-1.985,-11.328,12.29
2026-05-23 14:51:22.769,1431422225,178769,1,0.9043,-0.15381,0.3728,10.733,-11.42,3.565
2026-05-23 14:51:22.769,1431422225,178769,2,0.87988,0.35791,0.58691,12.015,-12.756,3.687
2026-05-23 14:51:22.969,1431422425,178969,1,0.94873,-0.13354,0.32495,4.443,-10.817,-2.84
2026-05-23 14:51:22.969,1431422425,178969,2,0.90747,0.35254,0.53271,7.557,-7.42,5.511
2026-05-23 14:51:23.169,1431422625,179169,1,0.95752,-0.05957,0.2981,11.511,-11.496,-7.046
2026-05-23 14:51:23.169,1431422625,179169,2,0.9187,0.33398,0.46851,0.42,-14.595,7.382
2026-05-23 14:51:23.369,1431422825,179369,1,0.97681,-0.03198,0.2439,8.817,0.137,-6.687
2026-05-23 14:51:23.369,1431422825,179369,2,0.93359,0.30591,0.46802,0.252,-0.695,2.542
2026-05-23 14:51:23.569,1431423025,179569,1,1.00757,0.02075,0.28247,4.466,3.031,-3.664
2026-05-23 14:51:23.569,1431423025,179569,2,0.93799,0.33398,0.45703,-3.321,2.58,2.527
2026-05-23 14:51:23.769,1431423225,179769,1,0.98682,0.02637,0.28906,-3.511,3.603,-2.763
2026-05-23 14:51:23.769,1431423225,179769,2,0.91943,0.31104,0.45264,-6.611,2.267,2.176
2026-05-23 14:51:23.969,1431423425,179969,1,0.95459,-0.0105,0.29712,-6.45,4.046,4.824
2026-05-23 14:51:23.969,1431423425,179969,2,0.93872,0.33447,0.50952,3.748,7.229,1.702
2026-05-23 14:51:24.169,1431423625,180169,1,0.92407,0.00806,0.31958,-4.038,2.779,3.053
2026-05-23 14:51:24.169,1431423625,180169,2,0.90649,0.32373,0.44971,-11.947,-3.168,3.122
2026-05-23 14:51:24.369,1431423825,180369,1,0.97192,-0.0481,0.30518,-4.382,-2.099,2.191
2026-05-23 14:51:24.369,1431423825,180369,2,0.92993,0.30103,0.49414,-4.466,0.649,-1.328
2026-05-23 14:51:24.569,1431424025,180569,1,0.96533,-0.02539,0.33765,-0.359,5.954,1.824
2026-05-23 14:51:24.569,1431424025,180569,2,0.91895,0.34912,0.48779,-5.122,2.771,-3.16
2026-05-23 14:51:24.769,1431424225,180769,1,0.91602,-0.01172,0.33081,-2.481,-0.702,-2.55
2026-05-23 14:51:24.769,1431424225,180769,2,0.90137,0.32446,0.51489,-0.809,-4.015,5.786
2026-05-23 14:51:24.969,1431424425,180969,1,0.95508,-0.02344,0.32544,-4.168,-1.298,1.397
2026-05-23 14:51:24.969,1431424425,180969,2,0.92529,0.32568,0.49829,-3.198,-0.939,2.092
2026-05-23 14:51:25.169,1431424625,181169,1,0.96899,-0.05005,0.2998,-0.168,-3.573,0.954
2026-05-23 14:51:25.169,1431424625,181169,2,0.91162,0.3291,0.46289,-0.26,-0.435,2.496
2026-05-23 14:51:25.369,1431424825,181369,1,0.95801,-0.03955,0.30444,-1.313,-1.382,0.496
2026-05-23 14:51:25.369,1431424825,181369,2,0.92651,0.32593,0.47412,-1.573,-0.13,1.359
2026-05-23 14:51:25.569,1431425025,181569,1,0.96118,-0.04126,0.28784,-3.481,0.908,0.313
2026-05-23 14:51:25.569,1431425025,181569,2,0.92017,0.32935,0.47437,-2.099,1.58,-0.389
2026-05-23 14:51:25.769,1431425225,181769,1,0.96265,-0.04224,0.29077,0.008,0.664,0.29
2026-05-23 14:51:25.769,1431425225,181769,2,0.91479,0.34009,0.46973,2.595,3.847,0.214
2026-05-23 14:51:25.969,1431425425,181969,1,0.96655,-0.04028,0.30176,0.13,0.519,-0.038
2026-05-23 14:51:25.969,1431425425,181969,2,0.90845,0.33765,0.4812,-0.603,1.328,-0.153
2026-05-23 14:51:26.169,1431425625,182169,1,0.96533,-0.02148,0.30249,-3.466,4.16,-0.336
2026-05-23 14:51:26.169,1431425625,182169,2,0.92407,0.35327,0.46484,-0.969,3.802,0.977
2026-05-23 14:51:26.369,1431425825,182369,1,0.94775,-0.03271,0.31909,-2.244,3.573,-1.221
2026-05-23 14:51:26.369,1431425825,182369,2,0.91553,0.35181,0.4873,-1.595,3.481,0.748
2026-05-23 14:51:26.569,1431426025,182569,1,0.93359,-0.02979,0.33643,-2.198,2.756,0.71
2026-05-23 14:51:26.569,1431426025,182569,2,0.90845,0.3501,0.50146,-0.069,3.13,-0.214
2026-05-23 14:51:26.769,1431426225,182769,1,0.93359,-0.05127,0.34619,-2.229,2.244,0.756
2026-05-23 14:51:26.769,1431426225,182769,2,0.91187,0.35376,0.50903,-0.557,-0.16,-0.756
2026-05-23 14:51:26.969,1431426425,182969,1,0.94092,-0.01782,0.34229,1.031,0.344,4.26
2026-05-23 14:51:26.969,1431426425,182969,2,0.90991,0.36548,0.479,-2.176,2.092,2.389
2026-05-23 14:51:27.169,1431426625,183169,1,0.93359,-0.03833,0.34082,-2.481,2.466,-2.931
2026-05-23 14:51:27.169,1431426625,183169,2,0.90991,0.34497,0.50513,-4.412,2.557,1.733
2026-05-23 14:51:27.369,1431426825,183369,1,0.92993,-0.04248,0.34448,-1.832,0.626,2.183
2026-05-23 14:51:27.369,1431426825,183369,2,0.9104,0.35498,0.50073,0.435,0.611,0.786
2026-05-23 14:51:27.569,1431427025,183569,1,0.93921,-0.04736,0.34814,-2.221,0.565,-0.344
2026-05-23 14:51:27.569,1431427025,183569,2,0.90405,0.3479,0.51514,-0.275,1.214,1.244
2026-05-23 14:51:27.769,1431427225,183769,1,0.93774,-0.03394,0.34912,-1.389,0.962,0.122
2026-05-23 14:51:27.769,1431427225,183769,2,0.90771,0.35132,0.51099,-0.145,1.092,1.275
2026-05-23 14:51:27.969,1431427425,183969,1,0.93115,-0.0415,0.34448,-2.473,0.359,1.458
2026-05-23 14:51:27.969,1431427425,183969,2,0.91235,0.35596,0.5127,-1.847,1.863,2.275
2026-05-23 14:51:28.169,1431427625,184169,1,0.927,-0.052,0.35181,-2.282,0.863,0.198
2026-05-23 14:51:28.169,1431427625,184169,2,0.91235,0.35034,0.51099,0.183,2.221,0.931
2026-05-23 14:51:28.369,1431427825,184369,1,0.93018,-0.04883,0.35156,-2.534,0.481,-0.397
2026-05-23 14:51:28.369,1431427825,184369,2,0.91675,0.35303,0.5166,-1.198,1.267,0.947
2026-05-23 14:51:28.569,1431428025,184569,1,0.93555,-0.04419,0.35034,-0.947,0.443,1.489
2026-05-23 14:51:28.569,1431428025,184569,2,0.90845,0.3606,0.49438,-0.267,1.008,1.595
2026-05-23 14:51:28.769,1431428225,184769,1,0.92236,-0.05225,0.35132,-3.076,0.412,-0.779
2026-05-23 14:51:28.769,1431428225,184769,2,0.91333,0.35132,0.51904,-1.321,1.786,2.153
2026-05-23 14:51:28.969,1431428425,184969,1,0.93091,-0.04614,0.34546,-2.359,-0.069,0.099
2026-05-23 14:51:28.969,1431428425,184969,2,0.91479,0.35474,0.52319,-0.824,0.855,1.718
2026-05-23 14:51:29.169,1431428625,185169,1,0.93237,-0.04883,0.35107,-1.305,0.038,-0.832
2026-05-23 14:51:29.169,1431428625,185169,2,0.90698,0.34912,0.51221,-0.847,0.718,1.298
2026-05-23 14:51:29.369,1431428825,185369,1,0.93213,-0.05298,0.35449,-2.435,0.641,-0.389
2026-05-23 14:51:29.369,1431428825,185369,2,0.91016,0.34863,0.51636,-0.954,1.076,1.191
2026-05-23 14:51:29.569,1431429025,185569,1,0.93384,-0.04639,0.34766,-1.351,0.282,-0.282
2026-05-23 14:51:29.569,1431429025,185569,2,0.9104,0.354,0.50293,-0.855,1.153,1.038
2026-05-23 14:51:29.769,1431429225,185769,1,0.92871,-0.04639,0.35596,-2.397,0.214,-0.198
2026-05-23 14:51:29.769,1431429225,185769,2,0.91016,0.34058,0.52051,-0.603,0.939,1.504
2026-05-23 14:51:29.969,1431429425,185969,1,0.93188,-0.0415,0.34814,-1.809,-0.351,-0.321
2026-05-23 14:51:29.969,1431429425,185969,2,0.90845,0.35303,0.50903,-1.183,0.679,1.45
2026-05-23 14:51:30.169,1431429625,186169,1,0.93115,-0.04272,0.35352,-1.137,0.336,-0.046
2026-05-23 14:51:30.169,1431429625,186169,2,0.90869,0.35254,0.51245,-1.275,0.412,1.634
2026-05-23 14:51:30.369,1431429825,186369,1,0.94629,-0.03735,0.34717,-0.824,0.679,-0.939
2026-05-23 14:51:30.369,1431429825,186369,2,0.90796,0.35303,0.51929,-1.893,1.824,1.733
2026-05-23 14:51:30.569,1431430025,186569,1,0.93408,-0.04932,0.35278,-1.061,0.336,-1.435
2026-05-23 14:51:30.569,1431430025,186569,2,0.90723,0.3479,0.51172,-2.756,1.023,1.206
2026-05-23 14:51:30.769,1431430225,186769,1,0.95532,-0.03174,0.34082,-2.038,1.58,-0.519
2026-05-23 14:51:30.769,1431430225,186769,2,0.92554,0.34839,0.49927,-1.29,3.504,-0.252
2026-05-23 14:51:30.969,1431430425,186969,1,0.95923,-0.02393,0.30225,0.275,2.366,-1.237
2026-05-23 14:51:30.969,1431430425,186969,2,0.91821,0.36694,0.52441,-7.389,7.656,-4.725
2026-05-23 14:51:31.169,1431430625,187169,1,0.91675,-0.06641,0.35645,1.282,17.992,-5.481
2026-05-23 14:51:31.169,1431430625,187169,2,0.92236,0.37183,0.5708,-3.977,24.985,-12.656
2026-05-23 14:51:31.369,1431430825,187369,1,0.93335,-0.00342,0.40332,11.496,9.832,-0.992
2026-05-23 14:51:31.369,1431430825,187369,2,0.84619,0.43774,0.6499,-3.412,16.87,-17.13
2026-05-23 14:51:31.569,1431431025,187569,1,0.86328,-0.00439,0.44678,-9.298,20.664,-2.191
2026-05-23 14:51:31.569,1431431025,187569,2,0.80591,0.44238,0.72217,-0.061,23.069,-17.496
2026-05-23 14:51:31.769,1431431225,187769,1,0.88867,0.04419,0.57935,-1.076,8.977,0.634
2026-05-23 14:51:31.769,1431431225,187769,2,0.87134,0.67212,0.71191,-8.519,8.351,-5.832
2026-05-23 14:51:31.969,1431431425,187969,1,0.80713,0.00293,0.59473,-13.328,-13.427,-5.221
2026-05-23 14:51:31.969,1431431425,187969,2,0.72754,0.53882,0.86084,-15.672,-6.695,3.099
2026-05-23 14:51:32.169,1431431625,188169,1,0.86206,0.00049,0.5127,-1.221,-24.58,-4.237
2026-05-23 14:51:32.169,1431431625,188169,2,0.77563,0.47803,0.75708,-0.656,-27.389,9.542
2026-05-23 14:51:32.369,1431431825,188369,1,0.79443,-0.07422,0.38037,1.023,-39.412,0.328
2026-05-23 14:51:32.369,1431431825,188369,2,0.72437,0.42017,0.6062,19.443,-40.58,22.336
2026-05-23 14:51:32.569,1431432025,188569,1,0.89282,-0.01001,0.16187,1.053,-37.557,2.275
2026-05-23 14:51:32.569,1431432025,188569,2,0.84937,0.39404,0.42896,41.359,-37.221,32.802
2026-05-23 14:51:32.769,1431432225,188769,1,1.02759,0.0293,0.04858,-3.313,-35.435,4.397
2026-05-23 14:51:32.769,1431432225,188769,2,0.9082,0.3855,0.40112,-16.427,-12.038,7.153
2026-05-23 14:51:32.969,1431432425,188969,1,1.07324,-0.00806,0.04077,1.321,-1.229,1.763
2026-05-23 14:51:32.969,1431432425,188969,2,0.87793,0.34009,0.30566,-17.107,-3.992,2.916
2026-05-23 14:51:33.169,1431432625,189169,1,1.03955,-0.03638,0.01001,-3.069,-8.977,-2.55
2026-05-23 14:51:33.169,1431432625,189169,2,0.89404,0.28076,0.27686,4.473,-3.076,3.809
2026-05-23 14:51:33.391,1431432847,189391,1,1.04736,-0.01392,0.01831,3.374,2.053,6.176
2026-05-23 14:51:33.391,1431432847,189391,2,0.91797,0.30835,0.28027,9.489,15.725,7.931
2026-05-23 14:51:33.591,1431433047,189591,1,1.05664,-0.0564,-0.00098,6.038,-8.649,5.641
2026-05-23 14:51:33.591,1431433047,189591,2,0.92017,0.30005,0.26001,7.71,-4.809,4.221
2026-05-23 14:51:33.791,1431433247,189791,1,1.05566,-0.02979,-0.02539,-2.321,-5.458,-1.076
2026-05-23 14:51:33.791,1431433247,189791,2,0.90503,0.28882,0.23218,4.817,-11.252,7.015
2026-05-23 14:51:33.991,1431433447,189991,1,1.06519,-0.03491,-0.02002,-1.55,-3.527,-2.458
2026-05-23 14:51:33.991,1431433447,189991,2,0.92334,0.2561,0.21118,1.084,-3.534,0.847
2026-05-23 14:51:34.191,1431433647,190191,1,1.07593,-0.03271,-0.03906,-9.206,3.962,0.267
2026-05-23 14:51:34.191,1431433647,190191,2,0.9292,0.26074,0.20215,-6.137,-2.672,4.863
2026-05-23 14:51:34.391,1431433847,190391,1,1.05688,-0.03735,-0.04126,0.115,-2.565,0.947
2026-05-23 14:51:34.391,1431433847,190391,2,0.9082,0.26147,0.21851,2.153,2.053,1.618
2026-05-23 14:51:34.591,1431434047,190591,1,1.09253,-0.03711,-0.03125,-0.168,3.672,-0.779
2026-05-23 14:51:34.591,1431434047,190591,2,0.92578,0.2605,0.20044,-0.718,2.137,0.145
2026-05-23 14:51:34.791,1431434247,190791,1,1.05493,-0.03882,-0.00928,-2.634,2.74,-0.954
2026-05-23 14:51:34.791,1431434247,190791,2,0.90918,0.26758,0.22144,-0.58,0.42,-0.817
2026-05-23 14:51:34.991,1431434447,190991,1,1.06372,-0.01855,0.0022,-1.901,4.443,0.069
2026-05-23 14:51:34.991,1431434447,190991,2,0.90308,0.2832,0.2085,-0.649,0.855,-3.061
2026-05-23 14:51:35.191,1431434647,191191,1,1.05859,-0.02051,0.0188,-2.786,5.855,-0.603
2026-05-23 14:51:35.191,1431434647,191191,2,0.91528,0.28711,0.21924,0.824,3.351,-0.351
2026-05-23 14:51:35.391,1431434847,191391,1,1.04297,-0.03394,0.03467,-0.214,4.519,-0.053
2026-05-23 14:51:35.391,1431434847,191391,2,0.9126,0.27856,0.21973,-0.893,4.672,-1.092
2026-05-23 14:51:35.591,1431435047,191591,1,1.05493,-0.01636,0.04761,-0.817,2.565,1.252
2026-05-23 14:51:35.591,1431435047,191591,2,0.91406,0.302,0.24487,-0.733,3.824,-0.29
2026-05-23 14:51:35.791,1431435247,191791,1,1.05713,-0.02222,0.05371,-1.382,3.763,-0.351
2026-05-23 14:51:35.791,1431435247,191791,2,0.91187,0.28735,0.23584,-2.947,3.061,0.595
2026-05-23 14:51:35.991,1431435447,191991,1,1.05054,-0.01611,0.06934,1.786,2.649,0.702
2026-05-23 14:51:35.991,1431435447,191991,2,0.91602,0.29736,0.24756,-1.229,3.099,1.0
2026-05-23 14:51:36.191,1431435647,192191,1,1.052,-0.0271,0.07007,-1.573,4.557,-1.855
2026-05-23 14:51:36.191,1431435647,192191,2,0.92358,0.29248,0.25366,-1.748,3.389,1.863
2026-05-23 14:51:36.391,1431435847,192391,1,1.03906,-0.01807,0.07959,-0.069,6.145,0.389
2026-05-23 14:51:36.391,1431435847,192391,2,0.91748,0.3042,0.25342,0.084,6.099,-1.038
2026-05-23 14:51:36.591,1431436047,192591,1,1.04053,-0.01221,0.09619,-1.817,2.038,-0.344
2026-05-23 14:51:36.591,1431436047,192591,2,0.92139,0.3125,0.27515,-1.908,3.725,-1.58
2026-05-23 14:51:36.791,1431436247,192791,1,1.03027,-0.01587,0.10522,-2.443,2.595,-0.084
2026-05-23 14:51:36.791,1431436247,192791,2,0.92163,0.31592,0.28076,-5.267,3.656,-0.649
2026-05-23 14:51:36.991,1431436447,192991,1,1.02856,-0.00977,0.11328,-2.664,1.031,0.183
2026-05-23 14:51:36.991,1431436447,192991,2,0.90698,0.32983,0.29565,0.458,-0.45,1.458
2026-05-23 14:51:37.191,1431436647,193191,1,1.0271,-0.01807,0.12695,-2.962,-0.542,-0.069
2026-05-23 14:51:37.191,1431436647,193191,2,0.91309,0.32495,0.28979,-2.382,1.947,1.336
2026-05-23 14:51:37.391,1431436847,193391,1,1.02979,-0.01465,0.11377,-2.298,-1.145,-0.313
2026-05-23 14:51:37.391,1431436847,193391,2,0.91138,0.3252,0.28516,-2.435,0.183,1.817
2026-05-23 14:51:37.591,1431437047,193591,1,1.03394,-0.01953,0.09863,-2.969,-1.267,-0.244
2026-05-23 14:51:37.591,1431437047,193591,2,0.91846,0.31226,0.27246,-3.748,-1.107,1.153
2026-05-23 14:51:37.791,1431437247,193791,1,1.03735,-0.02173,0.09253,-1.153,-0.496,-0.489
2026-05-23 14:51:37.791,1431437247,193791,2,0.90894,0.31909,0.27222,-2.366,-1.145,0.725
2026-05-23 14:51:37.991,1431437447,193991,1,1.03467,-0.0127,0.09619,-2.061,-0.672,0.389
2026-05-23 14:51:37.991,1431437447,193991,2,0.91699,0.31641,0.28198,0.847,-0.298,2.038
2026-05-23 14:51:38.191,1431437647,194191,1,1.04272,-0.01147,0.09448,-0.443,1.687,0.656
2026-05-23 14:51:38.191,1431437647,194191,2,0.927,0.30786,0.26416,0.092,4.328,1.885
2026-05-23 14:51:38.391,1431437847,194391,1,1.03955,-0.01685,0.09961,-1.153,-0.397,0.321
2026-05-23 14:51:38.391,1431437847,194391,2,0.91187,0.3103,0.27173,-3.924,-1.183,0.733
2026-05-23 14:51:38.591,1431438047,194591,1,1.0332,-0.01953,0.08398,-2.321,1.13,-0.382
2026-05-23 14:51:38.591,1431438047,194591,2,0.92407,0.31079,0.27051,-2.458,1.595,1.695
2026-05-23 14:51:38.791,1431438247,194791,1,1.04395,-0.01392,0.08984,-2.076,-0.45,0.191
2026-05-23 14:51:38.791,1431438247,194791,2,0.91943,0.3186,0.28418,0.252,2.618,1.366
2026-05-23 14:51:38.013,1431437469,195013,1,1.04395,-0.01489,0.09058,-2.618,0.221,-0.366
2026-05-23 14:51:38.013,1431437469,195013,2,0.91992,0.30981,0.27563,-3.076,1.344,1.405
2026-05-23 14:51:39.213,1431438669,195213,1,1.03979,-0.03027,0.09839,-2.924,-0.252,-0.275
2026-05-23 14:51:39.213,1431438669,195213,2,0.91699,0.30884,0.27124,-0.412,-0.405,1.534
2026-05-23 14:51:39.413,1431438869,195413,1,1.03833,-0.0188,0.0979,-1.832,-0.099,-0.237
2026-05-23 14:51:39.413,1431438869,195413,2,0.91406,0.30884,0.26538,-0.748,0.733,1.145
2026-05-23 14:51:39.613,1431439069,195613,1,1.04102,-0.01831,0.09424,-1.847,0.198,-0.198
2026-05-23 14:51:39.613,1431439069,195613,2,0.91528,0.3042,0.26636,-1.389,0.588,0.725
2026-05-23 14:51:39.813,1431439269,195813,1,1.03735,-0.01245,0.09082,-1.656,-0.198,-0.542
2026-05-23 14:51:39.813,1431439269,195813,2,0.91479,0.30566,0.26685,0.046,-0.42,1.382
2026-05-23 14:51:39.013,1431438469,196013,1,1.03979,-0.02148,0.09351,-1.718,0.893,-0.16
2026-05-23 14:51:39.013,1431438469,196013,2,0.91626,0.31128,0.26855,-0.298,2.809,1.053
2026-05-23 14:51:40.213,1431439669,196213,1,1.04224,-0.00708,0.09961,0.794,0.046,0.153
2026-05-23 14:51:40.213,1431439669,196213,2,0.9165,0.31152,0.27173,-1.435,1.542,1.87
2026-05-23 14:51:40.413,1431439869,196413,1,1.0415,-0.01294,0.09473,-3.786,0.031,-0.618
2026-05-23 14:51:40.413,1431439869,196413,2,0.92749,0.30835,0.26392,-2.038,-1.115,1.351
2026-05-23 14:51:40.613,1431440069,196613,1,1.04224,-0.01611,0.0835,-3.038,1.679,0.023
2026-05-23 14:51:40.613,1431440069,196613,2,0.92358,0.32153,0.28174,-2.252,4.916,-0.244
2026-05-23 14:51:40.813,1431440269,196813,1,1.02368,0.00684,0.0769,5.031,23.534,-1.336
2026-05-23 14:51:40.813,1431440269,196813,2,0.81836,0.35034,0.36182,-29.321,37.588,-24.809
2026-05-23 14:51:40.013,1431439469,197013,1,0.9375,-0.0332,0.22021,-15.725,58.679,-2.557
2026-05-23 14:51:40.013,1431439469,197013,2,0.79565,0.36963,0.55225,-18.374,51.053,-11.878
2026-05-23 14:51:41.213,1431440669,197213,1,0.8291,-0.05737,0.43408,-12.229,37.153,0.695
2026-05-23 14:51:41.213,1431440669,197213,2,0.8335,0.42285,0.64233,-16.122,22.374,-10.252
2026-05-23 14:51:41.413,1431440869,197413,1,0.77344,-0.04346,0.55005,-2.061,23.565,4.092
2026-05-23 14:51:41.413,1431440869,197413,2,0.79736,0.46167,0.74023,1.412,14.366,-2.718
2026-05-23 14:51:41.613,1431441069,197613,1,0.78784,-0.10669,0.58154,4.504,-3.038,2.939
2026-05-23 14:51:41.613,1431441069,197613,2,0.89063,0.53613,0.72876,20.519,5.908,0.435
2026-05-23 14:51:41.813,1431441269,197813,1,0.81055,-0.03052,0.56299,-7.031,-8.389,-6.275
2026-05-23 14:51:41.813,1431441269,197813,2,0.83276,0.4314,0.68652,-11.29,-9.023,9.962
2026-05-23 14:51:41.013,1431440469,198013,1,0.84302,-0.104,0.52417,-2.611,-17.962,-0.939
2026-05-23 14:51:41.013,1431440469,198013,2,0.82837,0.39624,0.74292,12.611,-3.695,9.046
2026-05-23 14:51:42.213,1431441669,198213,1,0.87988,-0.07031,0.45874,11.473,-19.015,10.641
2026-05-23 14:51:42.213,1431441669,198213,2,0.86938,0.396,0.66602,4.527,-14.336,12.046
2026-05-23 14:51:42.413,1431441869,198413,1,0.91968,-0.03613,0.3606,-4.977,-23.344,1.16
2026-05-23 14:51:42.413,1431441869,198413,2,0.91138,0.34692,0.54077,1.328,-22.588,12.45
2026-05-23 14:51:42.613,1431442069,198613,1,0.97192,-0.07935,0.27856,-0.786,-14.649,-8.206
2026-05-23 14:51:42.613,1431442069,198613,2,0.97339,0.31689,0.5498,4.695,-11.534,6.718
2026-05-23 14:51:42.813,1431442269,198813,1,0.98706,0.00513,0.22876,9.573,-11.817,1.183
2026-05-23 14:51:42.813,1431442269,198813,2,0.94434,0.31689,0.47192,-1.58,-6.679,7.794
2026-05-23 14:51:42.013,1431441469,199013,1,1.03198,-0.02295,0.21362,-8.267,-3.176,0.611
2026-05-23 14:51:42.013,1431441469,199013,2,0.93823,0.27148,0.42432,-3.519,-2.382,1.664
2026-05-23 14:51:43.213,1431442669,199213,1,1.02002,-0.03638,0.21143,0.168,5.74,0.786
2026-05-23 14:51:43.213,1431442669,199213,2,0.95068,0.26538,0.49731,-6.366,6.954,-3.214
2026-05-23 14:51:43.413,1431442869,199413,1,0.97461,-0.04102,0.26001,-3.626,7.092,1.336
2026-05-23 14:51:43.413,1431442869,199413,2,0.90991,0.31445,0.47925,-4.031,5.985,0.817
2026-05-23 14:51:43.613,1431443069,199613,1,0.95557,-0.05884,0.28247,-1.603,6.374,1.115
2026-05-23 14:51:43.613,1431443069,199613,2,0.90356,0.31592,0.5022,0.282,4.763,-1.878
2026-05-23 14:51:43.813,1431443269,199813,1,0.97314,-0.05103,0.29907,-3.695,-0.794,-0.397
2026-05-23 14:51:43.813,1431443269,199813,2,0.92188,0.31714,0.53638,-6.733,-0.595,-1.458
2026-05-23 14:51:43.013,1431442469,200013,1,0.95264,-0.02515,0.28589,0.748,1.061,0.328
2026-05-23 14:51:43.013,1431442469,200013,2,0.91846,0.3252,0.51538,-3.939,-0.763,1.176
2026-05-23 14:51:44.213,1431443669,200213,1,0.98291,-0.04736,0.28247,-7.771,0.267,-2.023
2026-05-23 14:51:44.213,1431443669,200213,2,0.95215,0.32007,0.51782,-0.672,3.206,0.099
2026-05-23 14:51:44.413,1431443869,200413,1,0.95898,-0.0459,0.30444,2.557,1.84,0.191
2026-05-23 14:51:44.413,1431443869,200413,2,0.90405,0.33203,0.51685,0.191,2.282,0.847
2026-05-23 14:51:44.613,1431444069,200613,1,0.96533,-0.04028,0.30542,-1.076,1.573,-0.031
2026-05-23 14:51:44.613,1431444069,200613,2,0.91968,0.32715,0.5022,0.985,1.695,0.687
2026-05-23 14:51:44.813,1431444269,200813,1,0.94946,-0.03613,0.30493,-1.824,2.344,-1.847
2026-05-23 14:51:44.813,1431444269,200813,2,0.91846,0.32935,0.52148,-0.282,1.489,1.542
2026-05-23 14:51:44.013,1431443469,201013,1,0.95459,-0.02197,0.30957,-1.405,3.351,1.183
2026-05-23 14:51:44.013,1431443469,201013,2,0.9231,0.33154,0.52637,-0.145,2.412,1.031
2026-05-23 14:51:45.213,1431444669,201213,1,0.96069,-0.03271,0.31836,-0.954,3.565,-2.389
2026-05-23 14:51:45.213,1431444669,201213,2,0.91357,0.33716,0.53003,-0.237,3.916,-3.038
2026-05-23 14:51:45.413,1431444869,201413,1,0.94019,-0.0293,0.34106,-2.191,3.244,0.229
2026-05-23 14:51:45.413,1431444869,201413,2,0.90161,0.35938,0.53442,-0.603,1.817,-0.947
2026-05-23 14:51:45.613,1431445069,201613,1,0.92358,-0.02075,0.34351,-0.412,0.603,-0.969
2026-05-23 14:51:45.613,1431445069,201613,2,0.89014,0.3623,0.53589,-0.702,0.282,1.863
2026-05-23 14:51:45.813,1431445269,201813,1,0.94238,-0.0249,0.33325,-0.771,-0.321,0.405
2026-05-23 14:51:45.813,1431445269,201813,2,0.91113,0.34839,0.52148,0.847,-0.374,1.878
2026-05-23 14:51:45.013,1431444469,202013,1,0.94507,-0.02686,0.31763,-2.511,-1.229,0.603
2026-05-23 14:51:45.013,1431444469,202013,2,0.91113,0.35107,0.52197,-1.87,-0.733,2.656
2026-05-23 14:51:46.213,1431445669,202213,1,0.94653,-0.03589,0.32983,-0.298,-1.412,0.366
2026-05-23 14:51:46.213,1431445669,202213,2,0.9126,0.34351,0.51514,0.786,-0.053,2.008
2026-05-23 14:51:46.413,1431445869,202413,1,0.9436,-0.02637,0.31738,-2.557,-0.336,0.107
2026-05-23 14:51:46.413,1431445869,202413,2,0.91724,0.34448,0.52026,-0.595,0.71,1.832
2026-05-23 14:51:46.613,1431446069,202613,1,0.95581,-0.03247,0.31494,-1.229,-0.305,0.389
2026-05-23 14:51:46.613,1431446069,202613,2,0.91577,0.34033,0.51099,-0.786,0.229,1.412
2026-05-23 14:51:46.813,1431446269,202813,1,0.95288,-0.02612,0.3147,-1.817,-0.061,0.313
2026-05-23 14:51:46.813,1431446269,202813,2,0.91138,0.33667,0.51563,-1.206,0.412,1.16
2026-05-23 14:51:46.013,1431445469,203013,1,0.95117,-0.03223,0.30859,-1.534,0.008,-0.107
2026-05-23 14:51:46.013,1431445469,203013,2,0.91309,0.33521,0.51123,-0.756,0.412,1.725
2026-05-23 14:51:47.213,1431446669,203213,1,0.96094,-0.02905,0.30884,-2.802,-0.588,-0.099
2026-05-23 14:51:47.213,1431446669,203213,2,0.92407,0.33667,0.51733,-0.771,-0.336,2.191
2026-05-23 14:51:47.413,1431446869,203413,1,0.95166,-0.03296,0.30396,-1.565,-0.366,0.542
2026-05-23 14:51:47.413,1431446869,203413,2,0.9165,0.33179,0.5,-1.427,0.931,1.87
2026-05-23 14:51:47.613,1431447069,203613,1,0.95825,-0.03931,0.30347,-1.588,0.366,0.298
2026-05-23 14:51:47.613,1431447069,203613,2,0.91479,0.33179,0.5083,-1.053,0.71,1.397
2026-05-23 14:51:47.813,1431447269,203813,1,0.9563,-0.02051,0.31348,-2.229,1.153,0.489
2026-05-23 14:51:47.813,1431447269,203813,2,0.91797,0.33252,0.51147,-1.107,2.153,1.275
2026-05-23 14:51:47.013,1431446469,204013,1,0.9458,-0.03882,0.31738,-1.13,1.305,-0.069
2026-05-23 14:51:47.013,1431446469,204013,2,0.91577,0.33618,0.50586,-1.695,1.542,1.504
2026-05-23 14:51:48.213,1431447669,204213,1,0.94604,-0.03955,0.30981,-2.336,0.931,0.13
2026-05-23 14:51:48.213,1431447669,204213,2,0.91357,0.33813,0.5105,-0.45,1.229,0.962
2026-05-23 14:51:48.413,1431447869,204413,1,0.94751,-0.02539,0.31421,-1.099,0.885,0.053
2026-05-23 14:51:48.413,1431447869,204413,2,0.91382,0.33667,0.51196,-0.328,1.076,1.084
2026-05-23 14:51:48.613,1431448069,204613,1,0.94653,-0.03784,0.31519,-1.992,0.366,-0.099
2026-05-23 14:51:48.613,1431448069,204613,2,0.91943,0.33496,0.5166,-1.153,0.786,1.305
2026-05-23 14:51:48.813,1431448269,204813,1,0.94507,-0.03223,0.31738,-1.756,0.374,0.038
2026-05-23 14:51:48.813,1431448269,204813,2,0.9126,0.34131,0.51025,-0.733,0.832,1.611
2026-05-23 14:51:48.013,1431447469,205013,1,0.9502,-0.02539,0.32397,-1.84,0.931,-0.008
2026-05-23 14:51:48.013,1431447469,205013,2,0.92163,0.34302,0.50659,-1.023,1.344,1.336
2026-05-23 14:51:49.213,1431448669,205213,1,0.95117,-0.03491,0.32373,-1.458,0.74,0.366
2026-05-23 14:51:49.213,1431448669,205213,2,0.91699,0.34717,0.50928,-1.084,1.511,1.382
2026-05-23 14:51:49.413,1431448869,205413,1,0.94946,-0.03589,0.32495,-1.656,0.328,-0.221
2026-05-23 14:51:49.413,1431448869,205413,2,0.91113,0.33667,0.52295,-0.153,1.305,0.931
2026-05-23 14:51:49.613,1431449069,205613,1,0.94727,-0.04321,0.32861,-1.962,0.534,0.237
2026-05-23 14:51:49.613,1431449069,205613,2,0.9165,0.34204,0.51563,-0.763,0.557,1.557
2026-05-23 14:51:49.813,1431449269,205813,1,0.94116,-0.03833,0.32007,-1.779,0.107,-0.13
2026-05-23 14:51:49.813,1431449269,205813,2,0.90747,0.34424,0.52051,-3.427,-0.053,1.656
2026-05-23 14:51:49.013,1431448469,206013,1,0.9458,-0.03687,0.32202,-1.519,0.565,-0.229
2026-05-23 14:51:49.013,1431448469,206013,2,0.90918,0.33911,0.51416,-1.58,0.885,1.397
2026-05-23 14:51:50.213,1431449669,206213,1,0.95435,-0.03735,0.31958,-1.389,0.565,0.16
2026-05-23 14:51:50.213,1431449669,206213,2,0.91162,0.3335,0.51172,-1.618,1.229,1.458
2026-05-23 14:51:50.413,1431449869,206413,1,0.95386,-0.052,0.32251,-2.611,0.275,0.405
2026-05-23 14:51:50.413,1431449869,206413,2,0.91675,0.33472,0.51636,1.061,0.954,1.176
2026-05-23 14:51:50.613,1431450069,206613,1,0.95117,-0.04175,0.33154,-1.466,0.397,0.023
2026-05-23 14:51:50.613,1431450069,206613,2,0.9187,0.33618,0.52051,-0.405,0.74,1.023
2026-05-23 14:51:50.813,1431450269,206813,1,0.948,-0.03833,0.32129,-1.779,-0.092,0.023
2026-05-23 14:51:50.813,1431450269,206813,2,0.90967,0.34399,0.50659,-0.702,0.832,1.435
2026-05-23 14:51:50.013,1431449469,207013,1,0.95313,-0.0354,0.31763,-2.0,0.504,-0.588
2026-05-23 14:51:50.013,1431449469,207013,2,0.91333,0.33521,0.51904,-1.321,0.405,1.611
