datetime,epoch_ms,ts_millis,mpu_id,ax,ay,az,gx,gy,gz
2026-05-21T01:45:20.605584,,,,,,,,,
2026-05-21T01:45:27.727939,,,,,,,,,
2026-05-21 01:45:27.357,1211466813,7357,1,0.41211,-0.20386,-1.08716,-1.046,1.084,-1.534
2026-05-21 01:45:27.357,1211466813,7357,2,0.72974,0.24243,1.12427,20.519,17.87,12.809
2026-05-21 01:45:27.557,1211467013,7557,1,0.38989,-0.18652,-1.13452,-1.191,8.191,-3.603
2026-05-21 01:45:27.557,1211467013,7557,2,0.69678,0.26196,1.1582,15.626,19.695,8.809
2026-05-21 01:45:28.757,1211468213,7757,1,0.42896,-0.19189,-1.12744,0.458,21.939,-3.107
2026-05-21 01:45:28.757,1211468213,7757,2,0.70703,0.17236,1.06909,11.092,5.672,15.977
2026-05-21 01:45:28.957,1211468413,7957,1,0.52393,-0.19263,-1.03369,8.824,49.122,-0.687
2026-05-21 01:45:28.957,1211468413,7957,2,0.82373,0.13208,0.93359,-22.481,-30.84,0.435
2026-05-21 01:45:28.256,1211467712,8256,1,0.76001,-0.25195,-0.81787,10.412,57.221,-0.206
2026-05-21 01:45:28.256,1211467712,8256,2,0.82813,0.04004,0.90942,-10.725,-16.565,5.183
2026-05-21 01:45:28.456,1211467912,8456,1,0.85132,-0.22363,-0.68945,4.282,36.237,-2.29
2026-05-21 01:45:28.456,1211467912,8456,2,0.84692,0.01489,0.85547,53.061,15.931,58.603
2026-05-21 01:45:28.656,1211468112,8656,1,0.90894,-0.25781,-0.60034,8.122,20.687,-1.298
2026-05-21 01:45:28.656,1211468112,8656,2,0.91479,0.03613,0.70093,-36.824,-38.481,-5.611
2026-05-21 01:45:29.856,1211469312,8856,1,0.9812,-0.23267,-0.53589,2.733,12.137,-3.237
2026-05-21 01:45:29.856,1211469312,8856,2,0.93994,-0.09766,0.60767,30.45,-0.87,21.443
2026-05-21 01:45:31.563,1211471019,11563,1,1.00977,-0.22754,-0.45874,4.763,1.305,-2.672
2026-05-21 01:45:31.563,1211471019,11563,2,0.89893,0.00635,0.73511,17.962,44.962,2.878
2026-05-21 01:45:32.763,1211472219,11763,1,1.00293,-0.24854,-0.45923,0.45,-2.573,-1.954
2026-05-21 01:45:32.763,1211472219,11763,2,0.9104,-0.03638,0.75366,-34.023,-16.855,-4.084
2026-05-21 01:45:32.963,1211472419,11963,1,1.00439,-0.22461,-0.45947,-4.42,-0.321,-1.244
2026-05-21 01:45:32.963,1211472419,11963,2,0.98633,-0.00659,0.81128,-3.137,31.42,-22.176
2026-05-21 01:45:32.163,1211471619,12163,1,1.00073,-0.21631,-0.48975,-11.206,-1.519,-0.847
2026-05-21 01:45:32.163,1211471619,12163,2,0.90454,-0.04858,0.72876,6.542,49.786,18.198
2026-05-21 01:45:32.363,1211471819,12363,1,1.00952,-0.17773,-0.4917,-1.763,-1.145,-4.687
2026-05-21 01:45:32.363,1211471819,12363,2,0.93164,-0.07617,0.66968,-47.557,3.389,-4.824
2026-05-21 01:45:32.563,1211472019,12563,1,1.01001,-0.19604,-0.47705,-4.748,0.382,0.45
2026-05-21 01:45:32.563,1211472019,12563,2,0.94409,-0.15308,0.49609,-14.618,-20.244,23.382
2026-05-21 01:45:33.773,1211473229,12773,1,1.02612,-0.17041,-0.45874,2.527,3.359,-1.824
2026-05-21 01:45:33.773,1211473229,12773,2,0.91699,-0.01245,0.72266,1.947,26.481,-5.969
2026-05-21 01:45:33.973,1211473429,12973,1,1.01001,-0.18872,-0.47388,1.573,-1.702,0.725
2026-05-21 01:45:33.973,1211473429,12973,2,0.93921,-0.02441,0.5896,-7.809,-6.649,-17.214
2026-05-21 01:45:33.173,1211472629,13173,1,1.01953,-0.17236,-0.4729,-0.351,1.153,-0.061
2026-05-21 01:45:33.173,1211472629,13173,2,0.93091,0.07471,0.74194,49.115,76.198,-13.382
2026-05-21 01:45:33.373,1211472829,13373,1,1.01538,-0.20313,-0.47388,-2.229,-1.672,3.313
2026-05-21 01:45:33.373,1211472829,13373,2,0.96948,-0.0083,0.62305,-10.695,-25.076,-4.618
2026-05-21 01:45:33.573,1211473029,13573,1,1.00659,-0.21484,-0.48193,-1.275,1.336,-1.176
2026-05-21 01:45:33.573,1211473029,13573,2,0.94067,-0.00732,0.69751,-5.397,-0.786,0.229
2026-05-21 01:45:34.820,1211474276,13820,1,1.01367,-0.18921,-0.47754,-0.832,0.359,-1.588
2026-05-21 01:45:34.820,1211474276,13820,2,0.93604,-0.0144,0.6853,3.885,1.733,3.466
2026-05-21 01:45:34.020,1211473476,14020,1,1.07568,-0.20337,-0.43433,13.153,-6.267,1.656
2026-05-21 01:45:34.020,1211473476,14020,2,0.97192,-0.02832,0.69336,13.351,7.611,1.802
2026-05-21 01:45:34.220,1211473676,14220,1,1.02271,-0.20361,-0.44849,-3.328,-47.183,1.038
2026-05-21 01:45:34.220,1211473676,14220,2,0.93481,0.02783,0.78613,2.863,37.214,-15.038
2026-05-21 01:45:34.420,1211473876,14420,1,0.7002,-0.13062,-0.46899,-2.802,-120.504,14.145
2026-05-21 01:45:34.420,1211473876,14420,2,0.62012,0.07422,0.86279,85.893,132.595,-6.466
2026-05-21 01:45:34.620,1211474076,14620,1,0.18848,-0.20386,-1.21997,-47.038,-151.153,26.214
2026-05-21 01:45:34.620,1211474076,14620,2,0.68237,0.27881,1.09888,-2.176,50.344,-35.664
2026-05-21 01:45:35.820,1211475276,14820,1,0.01904,-0.21387,-1.33252,1.046,-40.855,9.878
2026-05-21 01:45:35.820,1211475276,14820,2,0.39185,0.41992,1.21094,28.985,44.969,0.496
2026-05-21 01:45:35.020,1211474476,15020,1,0.01245,-0.12744,-1.24585,-5.038,6.649,0.053
2026-05-21 01:45:35.020,1211474476,15020,2,0.4082,0.39111,1.33765,-5.672,-21.748,4.489
2026-05-21 01:45:35.220,1211474676,15220,1,0.03687,-0.10742,-1.20972,17.305,29.718,-5.702
2026-05-21 01:45:35.220,1211474676,15220,2,0.41968,0.3186,1.13843,53.023,9.763,17.107
2026-05-21 01:45:35.420,1211474876,15420,1,0.18799,-0.14746,-1.12646,7.427,52.267,12.145
2026-05-21 01:45:35.420,1211474876,15420,2,0.51636,0.33813,1.1853,-11.076,-53.16,7.58
2026-05-21 01:45:35.620,1211475076,15620,1,0.32739,-0.25195,-1.08447,-0.321,30.71,5.435
2026-05-21 01:45:35.620,1211475076,15620,2,0.66235,0.26318,1.14087,-10.824,-2.092,5.305
2026-05-21 01:45:36.820,1211476276,15820,1,0.37891,-0.13354,-1.04858,14.473,9.435,-13.809
2026-05-21 01:45:36.820,1211476276,15820,2,0.60938,0.30151,1.12231,26.534,-8.802,17.702
2026-05-21 01:45:36.020,1211475476,16020,1,0.57886,-0.18726,-1.01904,11.366,11.237,7.115
2026-05-21 01:45:36.020,1211475476,16020,2,0.86133,0.13037,1.18994,-22.786,-53.359,4.115
2026-05-21 01:45:36.220,1211475676,16220,1,0.51489,-0.37085,-1.12036,8.435,43.153,-2.099
2026-05-21 01:45:36.220,1211475676,16220,2,0.90649,0.33789,1.01025,-35.802,-68.015,15.893
2026-05-21 01:45:36.420,1211475876,16420,1,0.62207,-0.36523,-0.9021,14.565,39.527,-1.153
2026-05-21 01:45:36.420,1211475876,16420,2,1.18115,0.03491,1.07544,15.71,62.374,17.489
2026-05-21 01:45:36.671,1211476127,16670,1,0.88184,-0.36963,-0.66479,11.023,50.588,2.74
2026-05-21 01:45:36.671,1211476127,16670,2,0.91626,0.09106,0.63062,48.977,17.252,53.679
2026-05-21 01:45:37.906,1211477362,16906,1,1.07349,-0.30273,-0.46167,12.733,28.649,-19.618
2026-05-21 01:45:37.906,1211477362,16906,2,0.84326,0.01953,0.82056,-15.588,-29.313,29.26
2026-05-21 01:45:37.106,1211476562,17106,1,0.96191,-0.3335,-0.51611,5.42,10.267,7.336
2026-05-21 01:45:37.106,1211476562,17106,2,0.83301,0.10938,0.94458,6.74,9.298,14.557
2026-05-21 01:45:37.306,1211476762,17306,1,0.95508,-0.3877,-0.4895,8.267,12.565,0.374
2026-05-21 01:45:37.306,1211476762,17306,2,0.84351,-0.08765,0.97754,14.695,9.176,76.527
2026-05-21 01:45:37.523,1211476979,17523,1,0.95435,-0.42749,-0.42017,-4.038,19.473,5.763
2026-05-21 01:45:37.523,1211476979,17523,2,0.854,-0.13965,1.01196,-13.565,-19.191,3.695
2026-05-21 01:45:38.723,1211478179,17723,1,0.94238,-0.38403,-0.46436,-11.176,-24.282,-19.336
2026-05-21 01:45:38.723,1211478179,17723,2,0.83081,-0.12061,0.93408,-10.328,-14.878,-1.198
2026-05-21 01:45:38.923,1211478379,17923,1,0.97974,-0.35669,-0.4895,-1.382,-20.145,4.481
2026-05-21 01:45:38.923,1211478379,17923,2,0.8645,-0.17432,0.84546,-11.412,-1.122,-7.779
2026-05-21 01:45:38.123,1211477579,18123,1,0.92944,-0.42993,-0.55811,-16.733,-12.702,5.328
2026-05-21 01:45:38.123,1211477579,18123,2,0.89453,-0.10889,0.98169,8.26,20.695,-4.847
2026-05-21 01:45:41.853,1211481309,20853,1,0.88843,-0.44873,-0.56372,-0.145,-6.076,3.382
2026-05-21 01:45:41.853,1211481309,20853,2,0.87354,-0.06201,0.87158,-1.229,1.176,-0.557
2026-05-21 01:45:41.053,1211480509,21053,1,0.88525,-0.46729,-0.56958,-12.481,0.885,0.718
2026-05-21 01:45:41.053,1211480509,21053,2,0.88013,-0.0686,0.8689,1.168,2.282,2.252
2026-05-21 01:45:41.253,1211480709,21253,1,0.89746,-0.41016,-0.57886,-11.076,-0.809,-3.672
2026-05-21 01:45:41.253,1211480709,21253,2,0.86646,-0.04639,0.8374,-3.26,-5.588,2.191
2026-05-21 01:45:41.453,1211480909,21453,1,0.89453,-0.40771,-0.57959,-5.611,2.328,-1.939
2026-05-21 01:45:41.453,1211480909,21453,2,0.87476,-0.06494,0.86841,2.458,-0.214,8.031
2026-05-21 01:45:41.653,1211481109,21653,1,0.90503,-0.38647,-0.58301,-1.55,1.115,-2.122
2026-05-21 01:45:41.653,1211481109,21653,2,0.9165,-0.07007,0.92578,-5.435,3.374,3.718
2026-05-21 01:45:42.853,1211482309,21853,1,0.90967,-0.37744,-0.57373,-0.45,1.137,-0.992
2026-05-21 01:45:42.853,1211482309,21853,2,0.86523,-0.08447,0.87646,-0.992,2.069,2.023
2026-05-21 01:45:42.053,1211481509,22053,1,0.90991,-0.38428,-0.58594,-5.908,2.672,1.443
2026-05-21 01:45:42.053,1211481509,22053,2,0.86157,-0.09033,0.86621,-1.359,3.183,1.496
2026-05-21 01:45:42.253,1211481709,22253,1,0.91309,-0.40112,-0.57153,-0.26,-0.977,2.489
2026-05-21 01:45:42.253,1211481709,22253,2,0.86719,-0.08594,0.86768,-4.496,-2.573,-2.542
2026-05-21 01:45:42.453,1211481909,22453,1,0.91772,-0.41577,-0.57788,-1.809,-1.168,0.053
2026-05-21 01:45:42.453,1211481909,22453,2,0.87061,-0.08716,0.8667,-1.573,1.305,0.427
2026-05-21 01:45:42.653,1211482109,22653,1,0.90601,-0.4021,-0.57642,-1.473,-0.191,-0.168
2026-05-21 01:45:42.653,1211482109,22653,2,0.87573,-0.08057,0.85083,-0.611,2.107,2.099
2026-05-21 01:45:43.853,1211483309,22853,1,0.90845,-0.39966,-0.57617,-2.466,1.573,-0.794
2026-05-21 01:45:43.853,1211483309,22853,2,0.8728,-0.08008,0.84229,-1.824,1.427,2.0
2026-05-21 01:45:43.053,1211482509,23053,1,0.91431,-0.39429,-0.57056,-1.359,0.908,-0.885
2026-05-21 01:45:43.053,1211482509,23053,2,0.86572,-0.08765,0.86792,-0.527,1.985,2.237
2026-05-21 01:45:43.283,1211482739,23283,1,0.91626,-0.38281,-0.57202,-1.931,0.183,-1.122
2026-05-21 01:45:43.283,1211482739,23283,2,0.86523,-0.09155,0.86157,0.252,2.374,2.511
2026-05-21 01:45:43.483,1211482939,23483,1,0.90234,-0.39209,-0.5708,-1.58,-0.366,0.351
2026-05-21 01:45:43.483,1211482939,23483,2,0.86426,-0.08521,0.86963,-0.771,0.275,0.885
2026-05-21 01:45:43.683,1211483139,23683,1,0.90942,-0.38647,-0.58569,-0.985,-0.221,0.718
2026-05-21 01:45:43.683,1211483139,23683,2,0.86816,-0.08325,0.86182,-1.794,0.756,0.603
2026-05-21 01:45:44.883,1211484339,23883,1,0.90771,-0.39307,-0.57593,-1.504,0.924,0.275
2026-05-21 01:45:44.883,1211484339,23883,2,0.87061,-0.08472,0.86597,-2.504,2.252,0.885
2026-05-21 01:45:44.083,1211483539,24083,1,0.90967,-0.39355,-0.5686,-1.008,0.817,0.244
2026-05-21 01:45:44.083,1211483539,24083,2,0.86133,-0.09082,0.85669,-1.527,2.29,1.191
2026-05-21 01:45:44.283,1211483739,24283,1,0.9082,-0.38965,-0.56445,-0.878,1.496,0.496
2026-05-21 01:45:44.283,1211483739,24283,2,0.86084,-0.08105,0.8562,-4.305,-1.038,0.061
2026-05-21 01:45:44.483,1211483939,24483,1,0.90161,-0.41846,-0.56689,3.916,2.321,3.412
2026-05-21 01:45:44.483,1211483939,24483,2,0.85767,-0.08887,0.87256,0.099,3.0,2.008
2026-05-21 01:45:44.683,1211484139,24683,1,0.90991,-0.41528,-0.55542,0.038,-1.389,-1.74
2026-05-21 01:45:44.683,1211484139,24683,2,0.86743,-0.08398,0.85693,-3.351,-1.557,-0.038
2026-05-21 01:45:45.883,1211485339,24883,1,0.91309,-0.41895,-0.54224,-0.939,-1.076,-0.13
2026-05-21 01:45:45.883,1211485339,24883,2,0.85522,-0.08813,0.86279,-2.153,-1.969,-0.519
2026-05-21 01:45:45.083,1211484539,25083,1,0.91284,-0.42896,-0.54541,-4.244,-0.954,-0.443
2026-05-21 01:45:45.083,1211484539,25083,2,0.87207,-0.09033,0.85132,0.763,1.863,2.206
2026-05-21 01:45:45.283,1211484739,25283,1,0.90332,-0.41211,-0.56055,-1.969,-1.244,0.176
2026-05-21 01:45:45.283,1211484739,25283,2,0.87256,-0.09351,0.86499,-1.252,0.588,0.939
2026-05-21 01:45:45.483,1211484939,25483,1,0.90356,-0.41968,-0.57227,-2.832,1.771,0.107
2026-05-21 01:45:45.483,1211484939,25483,2,0.7124,-0.53589,0.8457,-250.137,67.481,-3.092
2026-05-21 01:45:45.683,1211485139,25683,1,0.86157,-0.4397,-0.58936,-3.153,-2.985,-2.023
2026-05-21 01:45:45.683,1211485139,25683,2,0.90039,-0.15723,0.42285,-68.168,-26.305,12.153
2026-05-21 01:45:46.883,1211486339,25883,1,0.90942,-0.42261,-0.58594,-1.863,1.595,-0.176
2026-05-21 01:45:46.883,1211486339,25883,2,1.03369,-0.21704,0.28198,-6.908,-6.977,-7.649
2026-05-21 01:45:48.568,1211488024,28567,1,0.92603,-0.43555,-0.55298,-28.71,3.679,-2.489
2026-05-21 01:45:48.568,1211488024,28567,2,0.91333,-0.09497,0.71436,1.863,3.817,3.504
2026-05-21 01:45:49.767,1211489223,28767,1,0.90845,-0.39624,-0.57471,-1.046,1.229,-0.847
2026-05-21 01:45:49.767,1211489223,28767,2,0.89478,-0.10376,0.78101,0.206,2.55,2.313
2026-05-21 01:45:49.034,1211488490,29034,1,0.84033,-0.37476,-0.54858,-4.931,6.053,0.901
2026-05-21 01:45:49.034,1211488490,29034,2,0.90625,-0.12256,0.90063,16.802,22.481,0.603
2026-05-21 01:45:49.234,1211488690,29234,1,0.93652,-0.41821,-0.54688,-2.397,0.878,-1.366
2026-05-21 01:45:49.234,1211488690,29234,2,0.61279,-0.11084,1.27637,66.466,97.687,27.809
2026-05-21 01:45:49.434,1211488890,29434,1,0.92407,-0.39478,-0.56738,-18.527,-2.252,7.58
2026-05-21 01:45:49.434,1211488890,29434,2,0.88477,-0.16479,0.78809,-28.244,7.023,-7.122
2026-05-21 01:45:50.902,1211490358,29901,1,0.90088,-0.41431,-0.56738,1.099,-2.893,-2.489
2026-05-21 01:45:50.902,1211490358,29901,2,0.92163,-0.14966,0.62744,-27.588,28.534,-0.336
2026-05-21 01:45:50.101,1211489557,30101,1,0.90356,-0.41992,-0.60034,-5.198,-4.084,-0.214
2026-05-21 01:45:50.101,1211489557,30101,2,0.92236,-0.11157,0.61548,-4.275,-44.779,-5.359
2026-05-21 01:45:50.301,1211489757,30301,1,0.89429,-0.3833,-0.5603,-16.191,2.931,-13.786
2026-05-21 01:45:50.301,1211489757,30301,2,0.96582,-0.12109,0.56494,-0.229,15.359,2.855
2026-05-21 01:45:50.501,1211489957,30501,1,0.86182,-0.3728,-0.57813,-2.412,1.427,-1.153
2026-05-21 01:45:50.501,1211489957,30501,2,0.94238,-0.1123,0.60718,-2.153,-16.878,-4.901
2026-05-21 01:45:50.701,1211490157,30701,1,0.91138,-0.39478,-0.60205,-4.168,-2.931,0.733
2026-05-21 01:45:50.701,1211490157,30701,2,0.96875,-0.10352,0.63794,-1.977,8.702,-0.641
2026-05-21 01:45:51.935,1211491391,30935,1,0.90918,-0.37549,-0.5979,4.328,0.733,-2.84
2026-05-21 01:45:51.935,1211491391,30935,2,1.00342,-0.10767,0.78735,23.84,56.092,2.435
2026-05-21 01:45:51.135,1211490591,31135,1,0.91309,-0.37085,-0.59082,1.954,0.382,-2.13
2026-05-21 01:45:51.135,1211490591,31135,2,0.94287,0.01587,0.62305,-19.214,-2.687,-20.328
2026-05-21 01:45:51.335,1211490791,31335,1,0.88208,-0.36865,-0.53589,4.786,3.26,-2.183
2026-05-21 01:45:51.335,1211490791,31335,2,0.92627,-0.02319,0.72412,-4.702,7.359,7.58
2026-05-21 01:45:51.535,1211490991,31535,1,0.94189,-0.33813,-0.54761,-6.015,9.534,-6.664
2026-05-21 01:45:51.535,1211490991,31535,2,0.91919,-0.10693,0.71533,1.664,-6.794,-1.122
2026-05-21 01:45:52.735,1211492191,31735,1,0.96753,-0.30786,-0.52393,-15.71,0.87,-1.458
2026-05-21 01:45:52.735,1211492191,31735,2,0.89063,-0.04956,0.71875,3.557,20.847,6.55
2026-05-21 01:45:52.935,1211492391,31935,1,0.93188,-0.31396,-0.58203,-7.863,-11.55,3.672
2026-05-21 01:45:52.935,1211492391,31935,2,0.97168,-0.04272,0.75391,16.885,21.458,1.992
2026-05-21 01:45:52.135,1211491591,32135,1,0.9563,-0.34155,-0.65137,0.908,-5.374,4.435
2026-05-21 01:45:52.135,1211491591,32135,2,0.91479,-0.08228,0.7583,3.756,-8.489,-1.977
2026-05-21 01:45:52.335,1211491791,32335,1,0.93799,-0.35303,-0.6167,0.664,-4.458,-0.832
2026-05-21 01:45:52.335,1211491791,32335,2,1.12085,-0.26416,0.54663,16.55,13.802,-4.71
2026-05-21 01:45:52.535,1211491991,32535,1,0.9314,-0.34424,-0.56006,-7.992,0.336,3.275
2026-05-21 01:45:52.535,1211491991,32535,2,1.04004,-0.08154,0.71655,25.55,24.221,-7.908
2026-05-21 01:45:53.767,1211493223,32767,1,0.91675,-0.33154,-0.59888,8.061,-3.969,-2.267
2026-05-21 01:45:53.767,1211493223,32767,2,0.93188,-0.0061,0.71997,-14.206,-9.763,-3.779
2026-05-21 01:45:53.967,1211493423,32967,1,0.91504,-0.35303,-0.60571,-1.176,1.641,1.71
2026-05-21 01:45:53.967,1211493423,32967,2,0.92432,-0.00171,0.70972,-2.573,-4.496,-4.885
2026-05-21 01:45:53.167,1211492623,33167,1,0.92993,-0.34546,-0.58301,0.015,-0.756,-0.145
2026-05-21 01:45:53.167,1211492623,33167,2,0.89624,-0.01196,0.74805,11.023,-1.794,-0.351
2026-05-21 01:45:53.367,1211492823,33367,1,0.91455,-0.35254,-0.59424,-6.328,-2.878,1.084
2026-05-21 01:45:53.367,1211492823,33367,2,0.97095,-0.05103,0.68628,-6.618,23.855,6.626
2026-05-21 01:45:53.567,1211493023,33567,1,0.92603,-0.33862,-0.59131,-5.046,2.42,1.466
2026-05-21 01:45:53.567,1211493023,33567,2,0.93091,-0.02002,0.67114,4.565,2.824,6.763
2026-05-21 01:45:56.300,1211495756,36300,1,0.94263,-0.34985,-0.55322,-10.939,-5.992,10.153
2026-05-21 01:45:56.300,1211495756,36300,2,0.94531,-0.05078,0.69653,9.649,5.412,8.191
2026-05-21 01:45:56.500,1211495956,36500,1,0.91406,-0.34399,-0.60278,-0.168,1.336,4.954
2026-05-21 01:45:56.500,1211495956,36500,2,0.93091,-0.0542,0.72681,-13.519,-1.641,-4.779
2026-05-21 01:45:56.700,1211496156,36700,1,0.92114,-0.39307,-0.56128,0.924,3.069,0.687
2026-05-21 01:45:56.700,1211496156,36700,2,0.94263,-0.03589,0.68433,-7.84,-2.473,0.557
2026-05-21 01:45:57.900,1211497356,36900,1,0.92358,-0.37256,-0.55371,-4.16,2.458,0.374
2026-05-21 01:45:57.900,1211497356,36900,2,0.93237,-0.05005,0.65332,2.557,-0.29,6.397
2026-05-21 01:45:57.100,1211496556,37100,1,0.94263,-0.37671,-0.54395,8.916,-0.733,-5.832
2026-05-21 01:45:57.100,1211496556,37100,2,0.92358,-0.02783,0.69775,7.153,4.74,0.725
2026-05-21 01:45:57.300,1211496756,37300,1,0.93872,-0.37109,-0.56152,-5.031,-3.305,1.206
2026-05-21 01:45:57.300,1211496756,37300,2,0.92944,-0.06079,0.66064,5.603,3.962,2.794
2026-05-21 01:46:00.361,1211499817,40361,1,0.90039,-0.39966,-0.59058,-1.0,-1.107,2.504
2026-05-21 01:46:00.361,1211499817,40361,2,0.93066,-0.03589,0.69751,-1.855,0.229,-0.26
2026-05-21 01:46:00.561,1211500017,40561,1,0.90771,-0.38696,-0.58838,-3.511,-2.641,-0.053
2026-05-21 01:46:00.561,1211500017,40561,2,0.92627,-0.02734,0.69507,-0.74,0.672,-0.26
2026-05-21 01:46:01.761,1211501217,40761,1,0.89746,-0.38599,-0.5957,-2.061,-1.214,-1.107
2026-05-21 01:46:01.761,1211501217,40761,2,0.93604,-0.02173,0.70166,0.206,1.015,1.534
2026-05-21 01:46:01.961,1211501417,40961,1,0.90454,-0.39233,-0.60229,-2.397,0.733,-0.969
2026-05-21 01:46:01.961,1211501417,40961,2,0.93579,-0.0376,0.70288,0.008,2.908,3.565
2026-05-21 01:46:01.161,1211500617,41161,1,0.89941,-0.37524,-0.60132,-1.84,1.099,-1.588
2026-05-21 01:46:01.161,1211500617,41161,2,0.95874,0.02637,0.65186,4.221,1.008,4.13
2026-05-21 01:46:04.264,1211503720,44264,1,0.87476,-0.45728,-0.5564,-2.847,0.015,-1.588
2026-05-21 01:46:04.264,1211503720,44264,2,0.93628,0.01855,0.65454,3.008,4.397,2.595
2026-05-21 01:46:04.464,1211503920,44464,1,0.87061,-0.45972,-0.57886,-6.313,-0.824,-1.977
2026-05-21 01:46:04.464,1211503920,44464,2,0.92212,0.01416,0.69629,3.023,3.947,4.313
2026-05-21 01:46:04.664,1211504120,44664,1,0.87842,-0.44434,-0.58423,-1.763,-1.015,-3.634
2026-05-21 01:46:04.664,1211504120,44664,2,0.93872,0.01392,0.67773,-2.015,3.191,2.031
2026-05-21 01:46:05.864,1211505320,44864,1,0.87573,-0.43091,-0.59595,-2.794,0.649,-2.076
2026-05-21 01:46:05.864,1211505320,44864,2,0.93188,0.00659,0.71606,-3.031,2.099,3.962
2026-05-21 01:46:05.157,1211504613,45157,1,0.89453,-0.42334,-0.58569,-1.893,0.901,-3.733
2026-05-21 01:46:05.157,1211504613,45157,2,0.92358,-0.01538,0.71631,-3.588,-0.863,4.076
2026-05-21 01:46:05.357,1211504813,45357,1,0.90405,-0.40698,-0.58203,-4.122,1.382,-2.389
2026-05-21 01:46:05.357,1211504813,45357,2,0.93262,-0.03125,0.69727,-5.969,-1.763,4.809
2026-05-21 01:46:05.557,1211505013,45557,1,0.89648,-0.40625,-0.57446,-3.695,0.046,-2.359
2026-05-21 01:46:05.557,1211505013,45557,2,0.94653,-0.07007,0.68604,-5.649,0.656,2.061
2026-05-21 01:46:06.757,1211506213,45757,1,0.92407,-0.4231,-0.58423,-2.573,2.504,-2.901
2026-05-21 01:46:06.757,1211506213,45757,2,0.93555,-0.02954,0.6897,-1.901,1.481,1.71
2026-05-21 01:46:06.957,1211506413,45957,1,0.93213,-0.38965,-0.56348,-0.847,0.718,-1.542
2026-05-21 01:46:06.957,1211506413,45957,2,0.93481,-0.04175,0.69141,-2.481,1.557,0.145
2026-05-21 01:46:06.157,1211505613,46157,1,0.85718,-0.38257,-0.57104,-3.214,-3.443,-1.374
2026-05-21 01:46:06.157,1211505613,46157,2,0.9231,-0.03833,0.70264,0.878,2.611,2.573
2026-05-21 01:46:06.357,1211505813,46357,1,0.88403,-0.36963,-0.58276,-3.237,-1.687,-0.427
2026-05-21 01:46:06.357,1211505813,46357,2,0.93335,-0.03223,0.69995,-1.115,2.878,-0.038
2026-05-21 01:46:06.557,1211506013,46557,1,0.85303,-0.36768,-0.59717,-0.015,-4.443,-0.992
2026-05-21 01:46:06.557,1211506013,46557,2,0.92944,-0.04272,0.7146,3.809,3.282,0.756
2026-05-21 01:46:07.757,1211507213,46757,1,0.84131,-0.37769,-0.60474,-0.786,-0.557,0.069
2026-05-21 01:46:07.757,1211507213,46757,2,0.92651,-0.03125,0.71143,-0.489,1.336,1.031
2026-05-21 01:46:07.980,1211507436,46980,1,0.9082,-0.38135,-0.5957,-1.191,1.534,0.649
2026-05-21 01:46:07.980,1211507436,46980,2,0.9353,-0.02954,0.71167,-3.0,1.107,1.87
2026-05-21 01:46:07.180,1211506636,47180,1,0.90405,-0.38232,-0.5896,-0.954,0.756,0.389
2026-05-21 01:46:07.180,1211506636,47180,2,0.92749,-0.04077,0.72681,-0.656,1.885,1.069
2026-05-21 01:46:07.380,1211506836,47380,1,0.90747,-0.38867,-0.58887,-2.374,0.626,-0.374
2026-05-21 01:46:07.380,1211506836,47380,2,0.92627,-0.03735,0.72607,-0.214,0.992,1.679
2026-05-21 01:46:07.580,1211507036,47580,1,0.90942,-0.38403,-0.59253,-1.908,-0.328,-0.725
2026-05-21 01:46:07.580,1211507036,47580,2,0.9292,-0.03394,0.71704,-2.115,0.366,1.137
2026-05-21 01:46:08.780,1211508236,47780,1,0.91528,-0.37598,-0.59717,-2.015,-0.076,-0.13
2026-05-21 01:46:08.780,1211508236,47780,2,0.93066,-0.04053,0.71997,-2.26,-0.618,1.359
2026-05-21 01:46:08.013,1211507469,48013,1,0.90649,-0.38062,-0.59009,-1.351,-0.74,-0.099
2026-05-21 01:46:08.013,1211507469,48013,2,0.92432,-0.03247,0.7019,-3.634,-1.122,0.26
2026-05-21 01:46:08.213,1211507669,48213,1,0.9021,-0.37427,-0.5896,-1.046,1.267,-0.473
2026-05-21 01:46:08.213,1211507669,48213,2,0.93359,-0.03955,0.70825,-1.885,0.542,1.687
2026-05-21 01:46:08.413,1211507869,48413,1,0.90723,-0.38135,-0.58618,-1.305,2.496,0.206
2026-05-21 01:46:08.413,1211507869,48413,2,0.92798,-0.04126,0.70581,1.718,1.626,4.069
2026-05-21 01:46:08.613,1211508069,48613,1,0.91724,-0.37988,-0.57861,-0.473,2.153,1.221
2026-05-21 01:46:08.613,1211508069,48613,2,0.93701,-0.05811,0.69629,-2.069,1.679,0.527
2026-05-21 01:46:09.813,1211509269,48813,1,0.91797,-0.375,-0.58179,-6.092,5.183,3.351
2026-05-21 01:46:09.813,1211509269,48813,2,0.93945,-0.06177,0.69141,-3.573,-0.969,0.527
2026-05-21 01:46:09.013,1211508469,49013,1,0.92017,-0.41992,-0.57788,-0.588,7.786,-0.74
2026-05-21 01:46:09.013,1211508469,49013,2,0.92847,-0.06299,0.68213,1.435,-0.794,4.557
2026-05-21 01:46:09.296,1211508752,49296,1,0.92114,-0.40674,-0.56299,1.435,0.656,1.679
2026-05-21 01:46:09.296,1211508752,49296,2,0.92529,-0.052,0.69385,2.107,2.45,1.565
2026-05-21 01:46:09.496,1211508952,49496,1,0.91016,-0.41211,-0.55981,-3.977,1.282,2.412
2026-05-21 01:46:09.496,1211508952,49496,2,0.92603,-0.06812,0.6875,-1.626,1.137,0.748
2026-05-21 01:46:09.696,1211509152,49696,1,0.91431,-0.40942,-0.54834,-1.519,-2.695,0.344
2026-05-21 01:46:09.696,1211509152,49696,2,0.93091,-0.04126,0.71484,0.565,0.328,2.817
2026-05-21 01:46:13.749,1211513205,52749,1,0.92261,-0.37329,-0.60205,-3.511,0.229,-0.947
2026-05-21 01:46:13.749,1211513205,52749,2,0.93115,-0.0481,0.70557,-0.664,1.588,1.809
2026-05-21 01:46:13.949,1211513405,52949,1,0.91309,-0.36768,-0.59448,-2.153,1.084,0.344
2026-05-21 01:46:13.949,1211513405,52949,2,0.94019,-0.04688,0.71753,-0.939,0.573,1.313
2026-05-21 01:46:13.149,1211512605,53149,1,0.93921,-0.38721,-0.58984,-0.733,0.908,0.069
2026-05-21 01:46:13.149,1211512605,53149,2,0.93286,-0.04468,0.71118,-3.641,-0.038,-1.595
2026-05-21 01:46:13.349,1211512805,53349,1,0.90601,-0.37207,-0.59058,-1.427,0.328,0.565
2026-05-21 01:46:13.349,1211512805,53349,2,0.92554,-0.04126,0.70874,1.298,1.863,0.534
2026-05-21 01:46:13.549,1211513005,53549,1,0.90503,-0.3645,-0.59668,-2.183,1.351,-0.298
2026-05-21 01:46:13.549,1211513005,53549,2,0.91992,-0.03516,0.71729,-1.893,2.122,2.046
2026-05-21 01:46:14.749,1211514205,53749,1,0.90723,-0.36572,-0.61963,-1.176,1.611,-0.229
2026-05-21 01:46:14.749,1211514205,53749,2,0.92627,-0.02808,0.71924,-2.496,0.336,0.565
2026-05-21 01:46:14.949,1211514405,53949,1,0.92114,-0.36011,-0.573,-1.802,0.298,0.725
2026-05-21 01:46:14.949,1211514405,53949,2,0.93774,-0.04663,0.70557,0.473,0.939,0.771
2026-05-21 01:46:14.149,1211513605,54149,1,0.91797,-0.37329,-0.59229,-4.527,1.221,0.214
2026-05-21 01:46:14.149,1211513605,54149,2,0.92505,-0.03687,0.70972,-2.947,-0.504,2.832
2026-05-21 01:46:14.349,1211513805,54349,1,0.90332,-0.36035,-0.55957,-7.695,5.038,-1.267
2026-05-21 01:46:14.349,1211513805,54349,2,0.92065,-0.0437,0.69751,0.435,-1.916,4.992
2026-05-21 01:46:14.549,1211514005,54549,1,0.89307,-0.36011,-0.58643,-0.359,5.718,-0.473
2026-05-21 01:46:14.549,1211514005,54549,2,0.92969,-0.06104,0.72949,-3.847,-0.847,10.916
2026-05-21 01:46:15.749,1211515205,54749,1,0.96997,-0.31543,-0.5083,17.26,-7.779,1.168
2026-05-21 01:46:15.749,1211515205,54749,2,0.92358,-0.0127,0.71533,18.137,7.573,-8.794
2026-05-21 01:46:15.949,1211515405,54949,1,0.9895,-0.34399,-0.43506,-11.397,5.153,-7.29
2026-05-21 01:46:15.949,1211515405,54949,2,0.95337,-0.12256,0.65698,-14.969,-6.115,3.397
2026-05-21 01:46:15.149,1211514605,55149,1,0.92163,-0.36719,-0.55347,4.45,-2.107,0.252
2026-05-21 01:46:15.149,1211514605,55149,2,0.95288,-0.04224,0.69312,-6.099,1.267,-5.366
2026-05-21 01:46:15.349,1211514805,55349,1,0.8811,-0.39795,-0.58228,4.061,-10.137,7.443
2026-05-21 01:46:15.349,1211514805,55349,2,0.91602,-0.03491,0.69531,1.947,4.168,0.924
2026-05-21 01:46:15.549,1211515005,55549,1,0.92847,-0.34888,-0.56934,-7.336,-2.16,-5.191
2026-05-21 01:46:15.549,1211515005,55549,2,0.93823,-0.0564,0.68579,-5.527,1.382,-3.473
2026-05-21 01:46:16.749,1211516205,55749,1,0.92896,-0.34204,-0.5918,1.092,-0.023,0.588
2026-05-21 01:46:16.749,1211516205,55749,2,0.91895,-0.03198,0.74829,-2.107,-0.168,-2.122
2026-05-21 01:46:16.949,1211516405,55949,1,0.93579,-0.36523,-0.58374,-5.015,-0.084,0.931
2026-05-21 01:46:16.949,1211516405,55949,2,0.93042,-0.04248,0.71924,-8.313,-0.359,0.55
2026-05-21 01:46:16.149,1211515605,56149,1,0.8772,-0.36401,-0.61328,-0.824,-0.473,0.298
2026-05-21 01:46:16.149,1211515605,56149,2,0.92334,-0.01489,0.71997,-2.137,0.344,-0.366
2026-05-21 01:46:16.349,1211515805,56349,1,0.91504,-0.39111,-0.59863,-1.748,0.603,0.664
2026-05-21 01:46:16.349,1211515805,56349,2,0.93335,-0.03052,0.71899,-3.046,0.74,1.244
2026-05-21 01:46:16.555,1211516011,56555,1,0.9021,-0.37109,-0.5896,-2.046,0.55,0.069
2026-05-21 01:46:16.555,1211516011,56555,2,0.93237,-0.03198,0.71289,0.58,1.641,1.817
2026-05-21 01:46:17.755,1211517211,56755,1,0.91553,-0.3728,-0.58496,-2.313,0.061,-0.298
2026-05-21 01:46:17.755,1211517211,56755,2,0.927,-0.02979,0.71729,-0.809,0.58,0.725
2026-05-21 01:46:17.955,1211517411,56955,1,0.91162,-0.36865,-0.59644,-2.145,-0.313,-0.496
2026-05-21 01:46:17.955,1211517411,56955,2,0.92554,-0.03247,0.70483,-1.023,0.321,1.267
2026-05-21 01:46:17.155,1211516611,57155,1,0.90796,-0.37109,-0.59937,-0.885,-0.008,-0.878
2026-05-21 01:46:17.155,1211516611,57155,2,0.92993,-0.02905,0.70459,-3.092,0.282,1.389
2026-05-21 01:46:17.355,1211516811,57355,1,0.9126,-0.3606,-0.60181,-1.458,0.855,-0.519
2026-05-21 01:46:17.355,1211516811,57355,2,0.93408,-0.03345,0.71167,-3.496,0.031,0.626
2026-05-21 01:46:17.555,1211517011,57555,1,0.91235,-0.36426,-0.59497,-2.168,0.344,-0.695
2026-05-21 01:46:17.555,1211517011,57555,2,0.93164,-0.03784,0.69946,-1.931,0.588,1.534
2026-05-21 01:46:18.755,1211518211,57755,1,0.91846,-0.36426,-0.5979,-1.687,0.412,0.176
2026-05-21 01:46:18.755,1211518211,57755,2,0.93164,-0.04224,0.69116,-0.397,0.779,1.977
2026-05-21 01:46:18.955,1211518411,57955,1,0.92017,-0.3623,-0.59839,-1.969,-0.557,-0.527
2026-05-21 01:46:18.955,1211518411,57955,2,0.93481,-0.04272,0.69751,-1.412,0.427,1.405
2026-05-21 01:46:18.155,1211517611,58155,1,0.91772,-0.36401,-0.59351,-2.42,0.702,-0.229
2026-05-21 01:46:18.155,1211517611,58155,2,0.93311,-0.04468,0.69141,-1.427,0.84,1.588
2026-05-21 01:46:18.355,1211517811,58355,1,0.91943,-0.35864,-0.58887,-1.84,1.641,-0.107
2026-05-21 01:46:18.355,1211517811,58355,2,0.92529,0.08472,0.69409,-0.481,0.275,-3.221
2026-05-21 01:46:23.457,1211522913,63457,1,0.88745,-0.35938,-0.67041,-2.832,0.878,1.908
2026-05-21 01:46:23.457,1211522913,63457,2,0.93652,0.06787,0.70557,-0.069,-0.107,1.565
2026-05-21 01:46:23.657,1211523113,63657,1,0.88794,-0.33423,-0.66357,-3.092,0.229,1.206
2026-05-21 01:46:23.657,1211523113,63657,2,0.93506,0.04785,0.72363,-4.664,0.053,1.405
2026-05-21 01:46:24.857,1211524313,63857,1,0.88574,-0.34473,-0.65186,-1.107,0.038,-2.183
2026-05-21 01:46:24.857,1211524313,63857,2,0.93628,0.06128,0.69702,-1.817,-0.244,1.878
2026-05-21 01:46:26.482,1211525938,66482,1,0.89941,-0.35474,-0.646,-0.931,-0.504,-1.092
2026-05-21 01:46:26.482,1211525938,66482,2,0.94189,0.05542,0.68506,1.206,1.893,1.427
2026-05-21 01:46:26.682,1211526138,66682,1,0.89624,-0.33789,-0.64526,-1.527,-0.557,-0.71
2026-05-21 01:46:26.682,1211526138,66682,2,0.93579,0.04028,0.70068,0.038,1.313,1.893
2026-05-21 01:46:27.882,1211527338,66882,1,0.89795,-0.32544,-0.64331,-0.954,0.42,-1.29
2026-05-21 01:46:27.882,1211527338,66882,2,0.93677,0.04492,0.68384,-1.672,2.008,0.947
2026-05-21 01:46:27.082,1211526538,67082,1,0.89941,-0.32886,-0.64648,-1.153,0.397,-0.191
2026-05-21 01:46:27.082,1211526538,67082,2,0.93408,0.04468,0.69312,0.412,1.389,1.832
2026-05-21 01:46:27.282,1211526738,67282,1,0.89673,-0.33252,-0.64429,-2.015,0.42,0.076
2026-05-21 01:46:27.282,1211526738,67282,2,0.94336,0.0437,0.70654,-1.618,0.939,0.565
2026-05-21 01:46:27.482,1211526938,67482,1,0.89258,-0.33765,-0.64233,-1.374,0.847,-1.198
2026-05-21 01:46:27.482,1211526938,67482,2,0.93799,0.05493,0.69067,-0.962,0.779,1.733
2026-05-21 01:46:27.682,1211527138,67682,1,0.90088,-0.33521,-0.64575,-2.321,0.733,1.382
2026-05-21 01:46:27.682,1211527138,67682,2,0.93945,0.04712,0.69019,-1.275,0.855,0.779
2026-05-21 01:46:28.913,1211528369,67912,1,0.88672,-0.33765,-0.65356,-2.244,-0.008,0.519
2026-05-21 01:46:28.913,1211528369,67912,2,0.94214,0.05713,0.7063,-0.947,-0.305,0.962
2026-05-21 01:46:28.112,1211527568,68112,1,0.89941,-0.32666,-0.64282,-0.969,0.031,0.092
2026-05-21 01:46:28.112,1211527568,68112,2,0.94629,0.04761,0.68555,1.168,2.168,1.405
2026-05-21 01:46:28.312,1211527768,68312,1,0.89136,-0.3335,-0.66162,-1.053,0.244,0.214
2026-05-21 01:46:28.312,1211527768,68312,2,0.93945,0.05908,0.69214,-0.282,1.794,1.863
2026-05-21 01:46:28.512,1211527968,68512,1,0.89551,-0.34155,-0.64185,-2.336,-0.206,0.298
2026-05-21 01:46:28.512,1211527968,68512,2,0.93481,0.05273,0.66943,-1.023,0.656,1.031
2026-05-21 01:46:29.712,1211529168,68712,1,0.89233,-0.33643,-0.65308,-0.992,0.954,-0.733
2026-05-21 01:46:29.712,1211529168,68712,2,0.93896,0.04053,0.68652,-4.168,0.275,0.733
2026-05-21 01:46:32.783,1211532239,71783,1,0.88428,-0.33105,-0.66748,-4.229,-1.344,-0.702
2026-05-21 01:46:32.783,1211532239,71783,2,0.93384,0.0542,0.69727,-2.58,1.519,0.366
2026-05-21 01:46:32.983,1211532439,71983,1,0.8855,-0.3313,-0.68701,-1.206,0.214,0.092
2026-05-21 01:46:32.983,1211532439,71983,2,0.94141,0.04883,0.6875,-2.366,-1.405,1.176
2026-05-21 01:46:32.183,1211531639,72183,1,0.87646,-0.33545,-0.67773,-1.45,3.351,-0.214
2026-05-21 01:46:32.183,1211531639,72183,2,0.93164,0.05322,0.69409,-4.634,-0.489,1.275
2026-05-21 01:46:32.383,1211531839,72383,1,0.9021,-0.33789,-0.66528,-1.756,0.427,-0.878
2026-05-21 01:46:32.383,1211531839,72383,2,0.93579,0.04761,0.68237,-3.847,0.038,1.153
2026-05-21 01:46:32.583,1211532039,72583,1,0.88965,-0.32471,-0.65601,-0.565,2.252,-0.473
2026-05-21 01:46:32.583,1211532039,72583,2,0.93872,0.04834,0.69922,-1.145,0.832,0.817
2026-05-21 01:46:33.783,1211533239,72783,1,0.90015,-0.32349,-0.65845,-1.313,1.901,0.435
2026-05-21 01:46:33.783,1211533239,72783,2,0.93628,0.0498,0.69946,0.084,2.061,0.878
2026-05-21 01:46:33.983,1211533439,72983,1,0.89526,-0.32544,-0.66113,-1.756,1.214,-0.26
2026-05-21 01:46:33.983,1211533439,72983,2,0.92969,0.05762,0.70337,-1.344,1.389,0.847
2026-05-21 01:46:33.183,1211532639,73183,1,0.89795,-0.32471,-0.63867,-0.603,0.595,-0.328
2026-05-21 01:46:33.183,1211532639,73183,2,0.93433,0.05566,0.69214,-0.237,1.313,1.718
2026-05-21 01:46:33.383,1211532839,73383,1,0.89746,-0.33398,-0.65015,-1.466,0.611,0.527
2026-05-21 01:46:33.383,1211532839,73383,2,0.93628,0.05322,0.69678,-0.74,1.565,1.435
2026-05-21 01:46:33.623,1211533079,73623,1,0.8999,-0.33423,-0.64697,-1.55,0.748,-0.053
2026-05-21 01:46:33.623,1211533079,73623,2,0.93286,0.05054,0.69482,-0.618,1.382,1.542
2026-05-21 01:46:34.823,1211534279,73823,1,0.8916,-0.33911,-0.64648,-2.191,0.473,-0.061
2026-05-21 01:46:34.823,1211534279,73823,2,0.94238,0.03857,0.69458,-0.641,1.107,1.473
2026-05-21 01:46:34.023,1211533479,74023,1,0.90381,-0.33643,-0.6499,-1.733,0.542,-0.031
2026-05-21 01:46:34.023,1211533479,74023,2,0.93286,0.04565,0.69336,-1.153,1.023,1.275
2026-05-21 01:46:34.223,1211533679,74223,1,0.90552,-0.3335,-0.64795,-1.511,0.664,-0.046
2026-05-21 01:46:34.223,1211533679,74223,2,0.93823,0.05005,0.69189,-0.038,0.626,1.489
2026-05-21 01:46:34.423,1211533879,74423,1,0.90063,-0.33765,-0.64648,-2.305,0.412,0.015
2026-05-21 01:46:34.423,1211533879,74423,2,0.93359,0.0481,0.69312,-1.0,1.061,1.115
2026-05-21 01:46:34.623,1211534079,74623,1,0.89819,-0.32764,-0.64795,-1.885,0.046,-0.351
2026-05-21 01:46:34.623,1211534079,74623,2,0.9353,0.04492,0.69312,-1.382,1.191,1.252
2026-05-21 01:46:35.823,1211535279,74823,1,0.90063,-0.33936,-0.64209,-1.351,0.359,-0.29
2026-05-21 01:46:35.823,1211535279,74823,2,0.94043,0.05005,0.68896,-0.45,0.779,1.519
2026-05-21 01:46:35.023,1211534479,75023,1,0.89429,-0.3335,-0.64941,-1.718,0.321,-0.099
2026-05-21 01:46:35.023,1211534479,75023,2,0.93335,0.05493,0.69922,-1.496,0.557,1.527
2026-05-21 01:46:35.223,1211534679,75223,1,0.90503,-0.34521,-0.64063,-2.198,-0.115,-0.229
2026-05-21 01:46:35.223,1211534679,75223,2,0.93921,0.0459,0.68115,-0.427,1.504,1.466
2026-05-21 01:46:35.423,1211534879,75423,1,0.89551,-0.33398,-0.66064,-4.252,0.275,-1.954
2026-05-21 01:46:35.423,1211534879,75423,2,0.92456,0.04736,0.70215,1.153,0.565,2.641
2026-05-21 01:46:35.623,1211535079,75623,1,0.85181,-0.35986,-0.67847,-2.595,5.573,-7.244
2026-05-21 01:46:35.623,1211535079,75623,2,0.91699,0.05811,0.69214,-7.191,-6.16,6.733
2026-05-21 01:46:36.823,1211536279,75823,1,0.92554,-0.28516,-0.61475,-11.29,15.756,-2.519
2026-05-21 01:46:36.823,1211536279,75823,2,0.95166,-0.02539,0.64819,-3.74,-8.947,22.252
2026-05-21 01:46:36.023,1211535479,76023,1,0.96802,-0.25562,-0.59277,-5.763,7.313,7.374
2026-05-21 01:46:36.023,1211535479,76023,2,0.96704,-0.10889,0.65161,-5.458,-3.16,16.718
2026-05-21 01:46:36.223,1211535679,76223,1,0.92944,-0.28857,-0.59229,-24.435,8.855,10.099
2026-05-21 01:46:36.223,1211535679,76223,2,0.94214,-0.13916,0.61694,-6.962,-1.038,7.595
2026-05-21 01:46:39.345,1211538801,79345,1,0.9668,-0.33643,-0.55859,-11.069,18.344,27.55
2026-05-21 01:46:39.345,1211538801,79345,2,0.89893,-0.14404,0.59326,-23.099,7.115,2.42
2026-05-21 01:46:39.545,1211539001,79545,1,0.94556,-0.27173,-0.58228,-13.786,12.916,11.397
2026-05-21 01:46:39.545,1211539001,79545,2,0.89209,-0.13599,0.67822,-11.786,-1.153,-12.397
2026-05-21 01:46:40.745,1211540201,79745,1,0.93628,-0.37012,-0.57324,-2.336,0.931,4.443
2026-05-21 01:46:40.745,1211540201,79745,2,0.93994,-0.07104,0.64038,0.687,1.534,-1.55
2026-05-21 01:46:40.945,1211540401,79945,1,0.91382,-0.35254,-0.60449,-0.504,-1.504,2.779
2026-05-21 01:46:40.945,1211540401,79945,2,0.94629,-0.06885,0.66504,1.649,1.679,1.023
2026-05-21 01:46:40.145,1211539601,80145,1,0.91016,-0.35596,-0.60791,-2.664,2.748,0.221
2026-05-21 01:46:40.145,1211539601,80145,2,0.94092,-0.09204,0.66846,0.573,0.282,4.282
2026-05-21 01:46:40.353,1211539809,80353,1,0.92749,-0.34863,-0.57764,-1.847,2.74,-1.153
2026-05-21 01:46:40.353,1211539809,80353,2,0.94165,-0.09399,0.65942,-1.107,0.603,4.519
2026-05-21 01:46:40.553,1211540009,80553,1,0.93774,-0.33374,-0.56958,-1.557,1.0,-0.595
2026-05-21 01:46:40.553,1211540009,80553,2,0.93872,-0.10352,0.65283,1.107,0.473,3.84
2026-05-21 01:46:41.761,1211541217,80761,1,0.94238,-0.33618,-0.5752,-2.29,1.756,1.786
2026-05-21 01:46:41.761,1211541217,80761,2,0.93701,-0.11279,0.65039,1.481,3.191,2.198
2026-05-21 01:46:41.961,1211541417,80961,1,0.93896,-0.33691,-0.57202,-4.221,2.076,3.42
2026-05-21 01:46:41.961,1211541417,80961,2,0.94312,-0.10742,0.6416,-0.603,1.618,0.847
2026-05-21 01:46:41.173,1211540629,81173,1,0.93115,-0.35352,-0.56348,-2.038,-1.275,2.282
2026-05-21 01:46:41.173,1211540629,81173,2,0.93921,-0.10376,0.66064,-1.84,2.382,-0.901
2026-05-21 01:46:41.373,1211540829,81373,1,0.91724,-0.36035,-0.58691,-1.198,-1.496,1.031
2026-05-21 01:46:41.373,1211540829,81373,2,0.94141,-0.09692,0.66846,0.473,2.069,0.252
2026-05-21 01:46:41.573,1211541029,81573,1,0.92261,-0.36255,-0.57153,-1.542,-0.153,0.595
2026-05-21 01:46:41.573,1211541029,81573,2,0.93457,-0.09521,0.65894,-0.466,1.977,1.84
2026-05-21 01:46:42.773,1211542229,81773,1,0.9248,-0.37183,-0.57349,-1.611,1.389,-0.153
2026-05-21 01:46:42.773,1211542229,81773,2,0.93237,-0.09204,0.66431,-0.519,1.672,1.863
2026-05-21 01:46:42.973,1211542429,81973,1,0.92627,-0.37573,-0.56274,-1.504,1.107,-0.809
2026-05-21 01:46:42.973,1211542429,81973,2,0.93335,-0.10205,0.65527,-1.13,1.015,2.359
2026-05-21 01:46:42.174,1211541630,82174,1,0.92529,-0.36279,-0.57617,-1.26,1.0,-0.718
2026-05-21 01:46:42.174,1211541630,82174,2,0.92871,-0.09985,0.65747,-2.015,1.16,1.74
2026-05-21 01:46:42.374,1211541830,82374,1,0.93408,-0.36938,-0.56152,-1.656,0.527,-0.26
2026-05-21 01:46:42.374,1211541830,82374,2,0.93433,-0.11035,0.6626,-1.084,1.046,1.718
2026-05-21 01:46:42.574,1211542030,82574,1,0.92676,-0.3645,-0.57617,-1.626,-0.084,-0.71
2026-05-21 01:46:42.574,1211542030,82574,2,0.93091,-0.11597,0.66406,-1.763,0.58,0.679
2026-05-21 01:46:43.774,1211543230,82774,1,0.92847,-0.36523,-0.56665,-2.046,-0.359,-0.763
2026-05-21 01:46:43.774,1211543230,82774,2,0.93555,-0.10938,0.65234,-1.0,0.672,1.267
2026-05-21 01:46:43.974,1211543430,82974,1,0.92432,-0.35986,-0.56348,-1.924,-0.366,-0.435
2026-05-21 01:46:43.974,1211543430,82974,2,0.93945,-0.11108,0.66406,-0.168,1.198,1.603
2026-05-21 01:46:43.174,1211542630,83174,1,0.92822,-0.36133,-0.57666,-0.779,-0.489,-0.496
2026-05-21 01:46:43.174,1211542630,83174,2,0.93311,-0.10303,0.65747,-1.351,0.611,1.099
2026-05-21 01:46:43.374,1211542830,83374,1,0.93018,-0.35132,-0.56421,-1.542,-0.405,-0.466
2026-05-21 01:46:43.374,1211542830,83374,2,0.93481,-0.11133,0.67163,-1.733,0.511,2.305
2026-05-21 01:46:43.574,1211543030,83574,1,0.92847,-0.35498,-0.56763,-1.504,0.397,-0.412
2026-05-21 01:46:43.574,1211543030,83574,2,0.93555,-0.10645,0.66211,-0.802,1.466,1.618
2026-05-21 01:46:44.774,1211544230,83774,1,0.92993,-0.36426,-0.5708,-1.244,-0.137,-0.267
2026-05-21 01:46:44.774,1211544230,83774,2,0.93188,-0.10474,0.65674,0.061,1.725,1.588
2026-05-21 01:46:44.974,1211544430,83974,1,0.93188,-0.35693,-0.56934,-1.45,0.206,-0.573
2026-05-21 01:46:44.974,1211544430,83974,2,0.93555,-0.1106,0.66479,-1.267,1.328,1.122
2026-05-21 01:46:44.174,1211543630,84174,1,0.9187,-0.3606,-0.56641,-1.603,0.145,0.168
2026-05-21 01:46:44.174,1211543630,84174,2,0.93555,-0.10474,0.65771,-0.702,1.519,1.42
2026-05-21 01:46:44.374,1211543830,84374,1,0.9314,-0.35474,-0.57983,-1.786,0.649,-0.145
2026-05-21 01:46:44.374,1211543830,84374,2,0.93457,-0.11475,0.65625,-0.855,0.824,1.221
2026-05-21 01:46:44.574,1211544030,84574,1,0.93188,-0.36182,-0.57568,-1.45,0.153,-0.099
2026-05-21 01:46:44.574,1211544030,84574,2,0.93433,-0.10474,0.66284,-0.588,1.244,1.344
2026-05-21 01:46:45.774,1211545230,84774,1,0.93433,-0.35547,-0.56909,-1.649,0.275,-0.183
2026-05-21 01:46:45.774,1211545230,84774,2,0.93481,-0.11011,0.6582,-1.176,1.031,1.29
2026-05-21 01:46:47.630,1211547086,87630,1,0.90601,-0.36865,-0.6084,7.389,-5.26,-7.565
2026-05-21 01:46:47.630,1211547086,87630,2,0.94409,-0.08203,0.66821,5.13,3.458,4.603
2026-05-21 01:46:48.848,1211548304,87847,1,0.92383,-0.32959,-0.59521,1.214,1.099,-4.573
2026-05-21 01:46:48.848,1211548304,87847,2,0.93311,-0.10742,0.66357,-0.511,3.107,7.466
2026-05-21 01:46:48.047,1211547503,88047,1,0.90308,-0.31934,-0.61768,-2.786,6.13,-6.191
2026-05-21 01:46:48.047,1211547503,88047,2,0.9248,-0.13745,0.69019,-4.198,-1.504,8.168
2026-05-21 01:46:48.247,1211547703,88247,1,0.92651,-0.27686,-0.56665,-8.954,17.038,-4.313
2026-05-21 01:46:48.247,1211547703,88247,2,0.92236,-0.19312,0.66675,-10.252,-4.046,11.351
2026-05-21 01:46:48.453,1211547909,88453,1,0.99048,-0.2561,-0.51807,-3.641,5.687,0.557
2026-05-21 01:46:48.453,1211547909,88453,2,0.92529,-0.22485,0.6377,-2.328,-0.351,2.511
2026-05-21 01:46:48.653,1211548109,88653,1,0.99023,-0.27466,-0.50659,-3.42,0.26,5.076
2026-05-21 01:46:48.653,1211548109,88653,2,0.927,-0.04175,0.6792,4.794,2.924,3.198
2026-05-21 01:46:52.810,1211552266,91810,1,0.88452,-0.41357,-0.6062,-0.221,-0.557,-0.947
2026-05-21 01:46:52.810,1211552266,91810,2,0.93066,-0.02783,0.68408,-2.908,-2.038,2.359
2026-05-21 01:46:52.010,1211551466,92010,1,0.88135,-0.40894,-0.59131,-0.29,0.656,-1.328
2026-05-21 01:46:52.010,1211551466,92010,2,0.94043,-0.04224,0.6731,-1.107,0.588,1.176
2026-05-21 01:46:52.235,1211551691,92235,1,0.90552,-0.41211,-0.57764,-2.634,1.405,-0.191
2026-05-21 01:46:52.235,1211551691,92235,2,0.94775,-0.04517,0.67236,-1.183,1.092,0.87
2026-05-21 01:46:52.435,1211551891,92435,1,0.89502,-0.41138,-0.58472,-1.87,0.504,-1.229
2026-05-21 01:46:52.435,1211551891,92435,2,0.94409,-0.04761,0.67627,-0.076,1.015,1.015
2026-05-21 01:46:52.635,1211552091,92635,1,0.89868,-0.40869,-0.57788,-0.519,0.092,-0.191
2026-05-21 01:46:52.635,1211552091,92635,2,0.94019,-0.03857,0.67627,-0.038,1.275,1.656
2026-05-21 01:46:53.835,1211553291,92835,1,0.90112,-0.41309,-0.5791,-1.511,-0.725,-0.244
2026-05-21 01:46:53.835,1211553291,92835,2,0.93677,-0.05103,0.67847,-1.099,0.626,1.344
2026-05-21 01:46:53.035,1211552491,93035,1,0.89624,-0.4231,-0.58569,0.221,-2.198,-0.42
2026-05-21 01:46:53.035,1211552491,93035,2,0.93555,-0.0437,0.66699,-0.466,-0.359,0.718
2026-05-21 01:46:53.235,1211552691,93235,1,0.89355,-0.41284,-0.59009,-0.496,-2.603,0.183
2026-05-21 01:46:53.235,1211552691,93235,2,0.91333,-0.03442,0.68506,-3.924,-1.573,-1.244
2026-05-21 01:46:53.435,1211552891,93435,1,0.88745,-0.42383,-0.6001,0.206,-3.122,0.26
2026-05-21 01:46:53.435,1211552891,93435,2,0.94434,-0.03662,0.66699,-0.847,1.824,-0.649
2026-05-21 01:46:54.795,1211554251,93795,1,0.8894,-0.42188,-0.59937,-0.992,-0.405,1.137
2026-05-21 01:46:54.795,1211554251,93795,2,0.93335,-0.03589,0.66528,0.153,2.84,1.252
2026-05-21 01:46:54.995,1211554451,93995,1,0.87305,-0.42578,-0.61206,-1.718,0.969,0.099
2026-05-21 01:46:54.995,1211554451,93995,2,0.94434,-0.02954,0.67554,-0.916,1.595,1.58
2026-05-21 01:46:54.195,1211553651,94195,1,0.8833,-0.42969,-0.5957,-1.366,1.107,-0.26
2026-05-21 01:46:54.195,1211553651,94195,2,0.94067,-0.02612,0.67432,-0.183,1.664,2.542
2026-05-21 01:46:54.395,1211553851,94395,1,0.88501,-0.42114,-0.60083,-1.534,0.794,-0.763
2026-05-21 01:46:54.395,1211553851,94395,2,0.94067,-0.0293,0.67407,-0.977,0.328,1.794
2026-05-21 01:46:54.595,1211554051,94595,1,0.88867,-0.42334,-0.60791,-2.405,1.282,-0.695
2026-05-21 01:46:54.595,1211554051,94595,2,0.93799,-0.03809,0.67261,-0.916,1.191,2.229
2026-05-21 01:46:55.795,1211555251,94795,1,0.87842,-0.4231,-0.59692,-1.962,1.221,-1.069
2026-05-21 01:46:55.795,1211555251,94795,2,0.93311,-0.04126,0.66602,-2.0,0.855,2.664
2026-05-21 01:46:55.995,1211555451,94995,1,0.89795,-0.42822,-0.59155,-2.74,8.015,-3.107
2026-05-21 01:46:55.995,1211555451,94995,2,0.93311,-0.02002,0.66138,1.718,3.328,5.786
2026-05-21 01:46:55.195,1211554651,95195,1,0.89526,-0.38257,-0.59766,-7.076,12.038,1.756
2026-05-21 01:46:55.195,1211554651,95195,2,0.93359,-0.07031,0.68164,-4.679,2.206,5.252
2026-05-21 01:46:55.395,1211554851,95395,1,0.91602,-0.3877,-0.55835,-11.389,18.321,-2.794
2026-05-21 01:46:55.395,1211554851,95395,2,0.91479,-0.10474,0.66895,-7.084,-2.191,4.351
2026-05-21 01:46:55.595,1211555051,95595,1,0.94067,-0.3833,-0.50317,-9.901,12.626,-2.153
2026-05-21 01:46:55.595,1211555051,95595,2,0.94043,-0.07959,0.6355,-5.557,-0.748,2.16
2026-05-21 01:46:56.795,1211556251,95795,1,0.95728,-0.39893,-0.48804,-3.901,2.053,0.733
2026-05-21 01:46:56.795,1211556251,95795,2,0.92749,-0.11938,0.64624,-3.527,1.252,1.092
2026-05-21 01:46:56.995,1211556451,95995,1,0.95532,-0.38257,-0.4707,1.924,0.656,0.847
2026-05-21 01:46:56.995,1211556451,95995,2,0.95044,-0.09424,0.60522,-8.618,-3.893,-1.771
2026-05-21 01:46:56.195,1211555651,96195,1,0.94629,-0.38232,-0.49341,-4.366,-0.092,3.435
2026-05-21 01:46:56.195,1211555651,96195,2,0.93677,-0.09546,0.63232,-0.962,1.733,-3.153
2026-05-21 01:46:56.408,1211555864,96408,1,0.94165,-0.3916,-0.50293,-1.985,1.916,0.168
2026-05-21 01:46:56.408,1211555864,96408,2,0.93604,-0.0874,0.62109,-9.641,-2.634,-3.084
2026-05-21 01:46:56.608,1211556064,96608,1,0.93433,-0.40869,-0.4812,-4.74,-0.344,6.702
2026-05-21 01:46:56.608,1211556064,96608,2,0.9563,-0.07715,0.62256,0.641,1.939,0.725
2026-05-21 01:46:57.808,1211557264,96808,1,0.93506,-0.38867,-0.49609,-3.374,1.344,1.374
2026-05-21 01:46:57.808,1211557264,96808,2,0.89453,-0.11377,0.66772,3.443,3.26,2.901
2026-05-21 01:46:57.008,1211556464,97008,1,0.91211,-0.42212,-0.48462,3.802,-0.87,-0.092
2026-05-21 01:46:57.008,1211556464,97008,2,0.94067,-0.0708,0.62524,5.641,7.45,3.748
2026-05-21 01:46:57.208,1211556664,97208,1,0.95361,-0.39648,-0.4873,3.565,5.641,5.145
2026-05-21 01:46:57.208,1211556664,97208,2,0.96289,-0.08862,0.59692,-0.664,-4.053,2.237
2026-05-21 01:46:57.408,1211556864,97408,1,0.89404,-0.46021,-0.48511,-5.809,2.359,2.313
2026-05-21 01:46:57.408,1211556864,97408,2,0.9541,-0.11108,0.59131,0.847,-4.107,5.153
2026-05-21 01:46:57.608,1211557064,97608,1,0.92188,-0.49072,-0.46021,-6.992,3.328,6.481
2026-05-21 01:46:57.608,1211557064,97608,2,0.93604,-0.11597,0.63086,13.45,2.115,9.511
2026-05-21 01:46:58.808,1211558264,97808,1,0.91089,-0.44019,-0.50122,-2.901,2.252,-3.214
2026-05-21 01:46:58.808,1211558264,97808,2,0.92505,-0.12402,0.63379,2.595,-1.901,3.473
2026-05-21 01:46:58.008,1211557464,98008,1,0.94092,-0.45093,-0.48242,-7.74,-4.229,-5.061
2026-05-21 01:46:58.008,1211557464,98008,2,0.94946,-0.12354,0.625,8.916,5.244,7.947
2026-05-21 01:46:58.301,1211557757,98301,1,0.96191,-0.37061,-0.51245,-24.344,14.107,5.679
2026-05-21 01:46:58.301,1211557757,98301,2,0.9231,-0.15454,0.68042,4.229,-7.229,-0.099
2026-05-21 01:46:58.501,1211557957,98501,1,0.88965,-0.51685,-0.58447,-11.42,-15.679,10.771
2026-05-21 01:46:58.501,1211557957,98501,2,0.88013,-0.14282,0.66895,1.092,1.924,4.45
2026-05-21 01:46:58.701,1211558157,98701,1,0.9563,-0.47974,-0.57031,-34.473,8.275,25.107
2026-05-21 01:46:58.701,1211558157,98701,2,1.03174,-0.07227,0.43115,-116.061,2.824,-22.962
2026-05-21 01:46:59.901,1211559357,98901,1,0.92651,-0.26123,-0.68018,-18.145,-0.817,10.603
2026-05-21 01:46:59.901,1211559357,98901,2,0.88135,-0.08887,0.75781,7.275,-7.176,-24.58
2026-05-21 01:46:59.101,1211558557,99101,1,0.78955,-0.46411,-0.71094,22.366,-26.489,-8.626
2026-05-21 01:46:59.101,1211558557,99101,2,0.90747,0.04053,0.60962,-0.832,-2.466,-2.008
2026-05-21 01:46:59.314,1211558770,99314,1,0.75562,-0.46484,-0.75098,-7.076,8.206,1.519
2026-05-21 01:46:59.314,1211558770,99314,2,0.94727,-0.02515,0.64209,-2.092,-2.229,6.901
2026-05-21 01:46:59.514,1211558970,99514,1,0.81714,-0.46802,-0.65308,5.473,2.656,-1.107
2026-05-21 01:46:59.514,1211558970,99514,2,0.94531,-0.05493,0.61938,9.481,5.145,5.084
2026-05-21 01:47:00.714,1211560170,99714,1,0.84375,-0.49927,-0.65063,7.16,7.969,6.794
2026-05-21 01:47:00.714,1211560170,99714,2,0.93799,-0.05542,0.63696,12.321,14.985,7.817
2026-05-21 01:47:00.914,1211560370,99914,1,0.83643,-0.50244,-0.63647,2.328,4.916,1.313
2026-05-21 01:47:00.914,1211560370,99914,2,0.9209,-0.05444,0.67358,0.328,4.832,2.214
2026-05-21 01:47:00.114,1211559570,100114,1,0.82324,-0.52295,-0.60864,0.412,3.992,-2.626
2026-05-21 01:47:00.114,1211559570,100114,2,0.93848,-0.05762,0.66162,3.511,5.489,4.756
2026-05-21 01:47:00.314,1211559770,100314,1,0.86011,-0.47876,-0.60352,-2.191,-2.45,-4.351
2026-05-21 01:47:00.314,1211559770,100314,2,0.93188,-0.06494,0.66895,1.031,-3.29,2.214
2026-05-21 01:47:00.514,1211559970,100514,1,0.83862,-0.49243,-0.61353,-0.878,-5.321,-2.282
2026-05-21 01:47:00.514,1211559970,100514,2,0.948,-0.05322,0.65356,-4.878,-5.641,-1.237
2026-05-21 01:47:01.714,1211561170,100714,1,0.8252,-0.47949,-0.63257,-1.58,-7.656,0.328
2026-05-21 01:47:01.714,1211561170,100714,2,0.98315,-0.05859,0.63232,-6.908,-4.275,-1.817
2026-05-21 01:47:01.914,1211561370,100914,1,0.7981,-0.49341,-0.64355,-2.145,-5.397,1.649
2026-05-21 01:47:01.914,1211561370,100914,2,0.95801,-0.03638,0.6123,-6.878,-5.427,-2.214
2026-05-21 01:47:01.168,1211560624,101168,1,0.80811,-0.47534,-0.66602,-0.595,-4.16,4.023
2026-05-21 01:47:01.168,1211560624,101168,2,0.96045,-0.02832,0.5791,-11.756,-7.885,-4.183
2026-05-21 01:47:01.368,1211560824,101368,1,0.79639,-0.48242,-0.67993,3.405,-8.344,4.718
2026-05-21 01:47:01.368,1211560824,101368,2,0.9646,0.01318,0.5498,-12.763,-3.901,-5.122
2026-05-21 01:47:01.568,1211561024,101568,1,0.77954,-0.52881,-0.68335,4.74,-5.023,5.71
2026-05-21 01:47:01.568,1211561024,101568,2,0.9353,-0.0105,0.59351,-32.718,-12.855,-16.649
2026-05-21 01:47:02.768,1211562224,101768,1,0.79175,-0.48242,-0.68359,10.855,-10.206,15.977
2026-05-21 01:47:02.768,1211562224,101768,2,0.83472,-0.28638,0.87305,83.679,18.008,-18.779
2026-05-21 01:47:02.968,1211562424,101968,1,0.65186,-0.60986,-0.69263,26.107,-22.183,18.817
2026-05-21 01:47:02.968,1211562424,101968,2,1.0918,-0.09277,0.79541,-46.115,-2.802,12.092
2026-05-21 01:47:05.732,1211565188,104732,1,0.88013,-0.51611,-0.50244,-11.985,13.809,-2.206
2026-05-21 01:47:05.732,1211565188,104732,2,0.92505,-0.18896,0.83203,-6.13,16.756,9.885
2026-05-21 01:47:05.957,1211565413,104957,1,0.90576,-0.49487,-0.47046,2.351,2.412,-10.45
2026-05-21 01:47:05.957,1211565413,104957,2,0.9248,-0.05078,0.69189,-3.542,3.756,0.565
2026-05-21 01:47:05.157,1211564613,105157,1,0.91357,-0.50977,-0.49731,6.305,1.809,-0.198
2026-05-21 01:47:05.157,1211564613,105157,2,0.93311,-0.05493,0.65845,5.771,13.901,6.435
2026-05-21 01:47:05.357,1211564813,105357,1,0.87964,-0.52612,-0.49023,-2.573,8.321,4.641
2026-05-21 01:47:05.357,1211564813,105357,2,0.92236,-0.05786,0.74683,7.557,3.191,7.214
2026-05-21 01:47:05.557,1211565013,105557,1,0.90918,-0.4895,-0.46313,-3.733,1.237,1.771
2026-05-21 01:47:05.557,1211565013,105557,2,0.9126,-0.05347,0.7749,0.634,3.336,2.863
2026-05-21 01:47:06.757,1211566213,105757,1,0.92554,-0.49634,-0.43652,-3.603,-4.557,2.214
2026-05-21 01:47:06.757,1211566213,105757,2,0.91895,-0.08203,0.73926,-0.298,0.916,2.015
2026-05-21 01:47:06.957,1211566413,105957,1,0.88965,-0.50244,-0.46973,-6.656,-1.931,-1.305
2026-05-21 01:47:06.957,1211566413,105957,2,0.92407,-0.07324,0.74023,-2.473,0.542,0.626
2026-05-21 01:47:06.157,1211565613,106157,1,0.87891,-0.50977,-0.48413,3.84,-3.328,-7.29
2026-05-21 01:47:06.157,1211565613,106157,2,0.92896,-0.04956,0.71948,-2.573,2.328,0.687
2026-05-21 01:47:06.357,1211565813,106357,1,0.90552,-0.48779,-0.51074,-5.275,-2.092,1.832
2026-05-21 01:47:06.357,1211565813,106357,2,0.92627,-0.05981,0.72217,-4.641,4.298,-1.244
2026-05-21 01:47:06.557,1211566013,106557,1,0.87012,-0.46094,-0.57593,-0.389,4.359,-1.443
2026-05-21 01:47:06.557,1211566013,106557,2,0.927,-0.09229,0.73047,-3.26,3.779,0.885
2026-05-21 01:47:07.757,1211567213,106757,1,0.9082,-0.47681,-0.52173,23.076,-15.137,-14.023
2026-05-21 01:47:07.757,1211567213,106757,2,0.93213,-0.05322,0.68066,1.328,-13.427,15.618
2026-05-21 01:47:07.957,1211567413,106957,1,0.88672,-0.50269,-0.51245,19.252,-7.374,-15.542
2026-05-21 01:47:07.957,1211567413,106957,2,0.9585,-0.08838,0.71606,6.069,13.145,8.679
2026-05-21 01:47:07.157,1211566613,107157,1,0.92627,-0.44043,-0.50391,5.893,-3.954,-10.55
2026-05-21 01:47:07.157,1211566613,107157,2,0.93945,-0.11719,0.65552,4.733,10.626,4.695
2026-05-21 01:47:07.357,1211566813,107357,1,0.92163,-0.42456,-0.49146,-3.092,0.786,-5.771
2026-05-21 01:47:07.357,1211566813,107357,2,1.06592,-0.11401,0.97485,-245.916,-135.557,24.13
2026-05-21 01:47:07.557,1211567013,107557,1,0.93652,-0.4165,-0.46704,-2.893,8.473,-4.519
2026-05-21 01:47:07.557,1211567013,107557,2,0.95166,-0.26514,0.45996,4.458,-7.542,-3.664
2026-05-21 01:47:08.769,1211568225,107769,1,0.94165,-0.42114,-0.47388,2.55,-0.206,-3.313
2026-05-21 01:47:08.769,1211568225,107769,2,0.90454,-0.27393,0.50562,73.985,13.45,-9.0
2026-05-21 01:47:08.969,1211568425,107969,1,0.91724,-0.40576,-0.44922,-2.275,1.305,9.344
2026-05-21 01:47:08.969,1211568425,107969,2,0.79028,-0.09033,0.64136,2.649,-58.824,-3.511
2026-05-21 01:47:08.169,1211567625,108169,1,0.86426,-0.52783,-0.6123,41.481,-60.359,34.191
2026-05-21 01:47:08.169,1211567625,108169,2,0.90259,-0.16943,0.65527,-12.26,-8.626,-12.275
2026-05-21 01:47:08.369,1211567825,108369,1,0.80859,-0.58569,-0.60571,-1.26,-32.481,11.794
2026-05-21 01:47:08.369,1211567825,108369,2,0.91772,-0.15894,0.71509,21.809,-0.626,0.336
2026-05-21 01:47:08.569,1211568025,108569,1,0.65894,-0.30054,-0.05225,-113.137,-18.221,-27.107
2026-05-21 01:47:08.569,1211568025,108569,2,0.89233,-0.16699,0.72754,-1.588,5.405,1.679
2026-05-21 01:47:09.796,1211569252,108796,1,0.927,-0.44019,-0.47217,-3.504,2.679,1.298
2026-05-21 01:47:09.796,1211569252,108796,2,0.48047,0.4104,0.27197,22.679,-61.557,-21.443
2026-05-21 01:47:09.996,1211569452,108996,1,0.9292,-0.56055,-0.5769,-5.252,-33.13,54.924
2026-05-21 01:47:09.996,1211569452,108996,2,0.94385,-0.15942,0.62524,-0.779,54.626,6.313
2026-05-21 01:47:09.196,1211568652,109196,1,0.83838,-0.61694,-0.55249,-6.122,-19.534,2.412
2026-05-21 01:47:09.196,1211568652,109196,2,0.84424,-0.17285,0.8479,1.26,9.458,8.855
2026-05-21 01:47:09.396,1211568852,109396,1,0.79248,-0.62402,-0.5376,-6.695,8.916,0.489
2026-05-21 01:47:09.396,1211568852,109396,2,0.84253,-0.22437,0.89038,23.145,-22.916,-19.603
2026-05-21 01:47:09.596,1211569052,109596,1,0.80737,-0.60083,-0.5376,1.511,-0.015,1.16
2026-05-21 01:47:09.596,1211569052,109596,2,0.68579,-0.09912,0.92407,26.672,14.863,15.534
2026-05-21 01:47:10.796,1211570252,109796,1,0.83276,-0.57104,-0.51807,-4.137,0.87,4.58
2026-05-21 01:47:10.796,1211570252,109796,2,0.87915,-0.12598,0.83228,11.489,1.405,3.168
2026-05-21 01:47:10.996,1211570452,109996,1,0.80957,-0.59839,-0.5144,-1.855,-0.099,3.511
2026-05-21 01:47:10.996,1211570452,109996,2,0.88501,-0.1123,0.75635,-67.794,-6.977,5.122
2026-05-21 01:47:10.196,1211569652,110196,1,0.81738,-0.62451,-0.53784,-7.145,10.313,-2.115
2026-05-21 01:47:10.196,1211569652,110196,2,0.85474,-0.13892,0.8252,-17.298,-13.534,2.298
2026-05-21 01:47:10.396,1211569852,110396,1,0.84766,-0.47437,-0.40405,-14.611,1.611,-0.305
2026-05-21 01:47:10.396,1211569852,110396,2,0.80811,-0.05029,0.77783,-2.588,-14.855,-1.153
2026-05-21 01:47:10.680,1211570136,110680,1,0.84106,-0.55273,-0.5686,13.458,-42.0,37.634
2026-05-21 01:47:10.680,1211570136,110680,2,0.88281,-0.18701,0.72729,2.221,-3.756,-0.817
2026-05-21 01:47:11.880,1211571336,110880,1,0.60352,-0.6377,-0.6189,-11.893,-56.305,50.71
2026-05-21 01:47:11.880,1211571336,110880,2,0.91602,-0.21338,0.68262,-3.985,7.397,0.656
2026-05-21 01:47:11.080,1211570536,111080,1,0.26318,-0.84668,-0.57056,18.573,-29.0,56.427
2026-05-21 01:47:11.080,1211570536,111080,2,0.89673,-0.17896,0.73999,2.908,3.771,-0.229
2026-05-21 01:47:11.280,1211570736,111280,1,0.2041,-0.91309,-0.5979,5.664,-6.977,13.802
2026-05-21 01:47:11.280,1211570736,111280,2,0.93872,-0.22119,0.71069,-4.305,-6.87,-2.496
2026-05-21 01:47:11.480,1211570936,111480,1,0.20068,-0.91162,-0.53174,11.366,22.786,-3.893
2026-05-21 01:47:11.480,1211570936,111480,2,0.92285,-0.12378,0.76636,11.534,14.351,-3.496
2026-05-21 01:47:11.687,1211571143,111687,1,0.25195,-0.9165,-0.48511,23.573,-42.565,-16.031
2026-05-21 01:47:11.687,1211571143,111687,2,0.85742,-0.07104,0.71069,-31.015,7.565,-0.786
2026-05-21 01:47:12.887,1211572343,111887,1,0.47534,-0.90796,-0.32178,-27.473,124.275,10.924
2026-05-21 01:47:12.887,1211572343,111887,2,0.90381,-0.12695,0.74854,0.214,3.595,2.672
2026-05-21 01:47:12.087,1211571543,112087,1,0.50391,-0.92236,-0.32178,-0.893,18.359,-5.595
2026-05-21 01:47:12.087,1211571543,112087,2,0.93896,-0.12866,0.75098,1.634,-6.473,-1.046
2026-05-21 01:47:12.287,1211571743,112287,1,0.52563,-0.91333,-0.29565,-1.046,7.87,-2.924
2026-05-21 01:47:12.287,1211571743,112287,2,0.89087,-0.11963,0.74683,6.443,4.084,1.687
2026-05-21 01:47:12.487,1211571943,112487,1,0.49316,-0.81055,-0.17285,49.71,16.618,-3.687
2026-05-21 01:47:12.487,1211571943,112487,2,0.91577,-0.13208,0.75708,-0.099,1.84,2.298
2026-05-21 01:47:12.687,1211572143,112687,1,0.28638,-1.04834,-0.15942,105.565,-42.87,-42.053
2026-05-21 01:47:12.687,1211572143,112687,2,0.90771,-0.13208,0.76392,0.13,0.824,2.305
2026-05-21 01:47:13.887,1211573343,112887,1,0.61694,-0.96973,-0.22681,-38.611,31.42,30.908
2026-05-21 01:47:13.887,1211573343,112887,2,0.89771,-0.15894,0.74414,-8.176,-10.221,17.191
2026-05-21 01:47:13.087,1211572543,113087,1,0.52515,-0.84863,-0.04932,108.611,1.359,-31.397
2026-05-21 01:47:13.087,1211572543,113087,2,1.12622,-0.51416,1.11499,-250.137,-87.382,31.313
2026-05-21 01:47:13.287,1211572743,113287,1,0.64819,-0.84326,-0.15503,-3.664,48.687,-17.237
2026-05-21 01:47:13.287,1211572743,113287,2,0.99707,-0.33838,0.72949,-21.344,-2.504,6.977
2026-05-21 01:47:16.978,1211576434,115978,1,0.83276,-0.79346,-0.40186,-13.16,25.771,8.771
2026-05-21 01:47:16.978,1211576434,115978,2,0.91577,-0.21094,0.65161,-2.55,1.687,0.649
2026-05-21 01:47:16.178,1211575634,116178,1,0.84741,-0.70093,-0.15625,31.672,27.496,-2.053
2026-05-21 01:47:16.178,1211575634,116178,2,0.88232,-0.20752,0.70239,5.771,1.626,4.45
2026-05-21 01:47:16.397,1211575853,116396,1,0.77075,-0.56055,-0.11133,7.542,21.885,-1.366
2026-05-21 01:47:16.397,1211575853,116396,2,0.90527,-0.2168,0.6731,-1.031,0.351,1.023
2026-05-21 01:47:16.596,1211576052,116596,1,0.83008,-0.70947,-0.00659,25.863,-40.885,12.786
2026-05-21 01:47:16.596,1211576052,116596,2,0.91724,-0.22388,0.64355,-0.107,-0.015,1.504
2026-05-21 01:47:17.796,1211577252,116796,1,0.70532,-0.66089,0.05493,4.435,21.87,35.71
2026-05-21 01:47:17.796,1211577252,116796,2,1.23828,-0.34473,0.71997,2.198,16.183,5.321
2026-05-21 01:47:17.103,1211576559,117103,1,0.67554,-0.96167,0.40771,-149.954,204.878,101.588
2026-05-21 01:47:17.103,1211576559,117103,2,0.86816,-0.20703,0.65039,5.634,2.183,-1.71
2026-05-21 01:47:17.324,1211576780,117324,1,0.61743,-0.80737,0.35303,47.679,-4.565,38.183
2026-05-21 01:47:17.324,1211576780,117324,2,0.90332,-0.23804,0.61353,-15.153,1.786,-2.122
2026-05-21 01:47:17.524,1211576980,117524,1,0.56348,-0.78857,0.56396,58.275,3.947,-8.855
2026-05-21 01:47:17.524,1211576980,117524,2,0.82764,-0.24707,0.60205,-19.29,-1.939,-11.664
2026-05-21 01:47:18.724,1211578180,117724,1,0.32178,-0.68506,0.53003,155.244,-67.771,185.183
2026-05-21 01:47:18.724,1211578180,117724,2,0.88916,-0.05322,0.62451,0.237,6.656,-1.649
2026-05-21 01:47:18.924,1211578380,117924,1,-0.07227,-0.20654,1.36084,-82.58,80.496,-13.756
2026-05-21 01:47:18.924,1211578380,117924,2,0.92676,-0.18237,0.66382,1.489,-11.855,1.359
2026-05-21 01:47:18.124,1211577580,118124,1,-0.00757,-0.28394,0.97168,24.656,55.366,-43.069
2026-05-21 01:47:18.124,1211577580,118124,2,0.95874,-0.20361,0.62378,-8.55,1.771,8.817
2026-05-21 01:47:18.324,1211577780,118324,1,-0.08179,-0.42993,0.68018,-37.931,25.58,-9.092
2026-05-21 01:47:18.324,1211577780,118324,2,0.94116,-0.21069,0.66919,-0.214,1.748,3.328
2026-05-21 01:47:18.524,1211577980,118524,1,0.01221,-0.30005,0.74951,-65.954,-8.031,-58.924
2026-05-21 01:47:18.524,1211577980,118524,2,0.90796,-0.19849,0.64844,3.092,-5.908,2.718
2026-05-21 01:47:19.724,1211579180,118724,1,0.05127,-0.28345,0.84082,17.908,-1.786,3.458
2026-05-21 01:47:19.724,1211579180,118724,2,0.9292,-0.20776,0.61548,-0.702,1.023,0.817
2026-05-21 01:47:19.924,1211579380,118924,1,0.10669,-0.42627,0.7854,29.397,27.901,13.794
2026-05-21 01:47:19.924,1211579380,118924,2,0.91382,-0.19238,0.61572,-1.466,2.427,3.824
2026-05-21 01:47:19.124,1211578580,119124,1,0.09839,-0.26392,0.83813,18.099,-45.832,13.947
2026-05-21 01:47:19.124,1211578580,119124,2,0.92139,-0.16724,0.54175,-25.756,-9.214,-2.969
2026-05-21 01:47:19.324,1211578780,119324,1,0.26538,-0.07227,0.71362,82.183,-96.748,13.092
2026-05-21 01:47:19.324,1211578780,119324,2,0.94751,-0.25708,0.55078,-11.176,-8.466,-0.496
2026-05-21 01:47:19.524,1211578980,119524,1,0.31274,0.15576,0.76733,-31.656,48.137,-73.542
2026-05-21 01:47:19.524,1211578980,119524,2,0.9248,-0.27734,0.55396,4.313,0.412,2.321
2026-05-21 01:47:20.724,1211580180,119724,1,0.1792,-0.05273,0.84326,37.885,-43.695,-12.069
2026-05-21 01:47:20.724,1211580180,119724,2,0.93774,-0.21948,0.59888,-1.992,5.252,2.954
2026-05-21 01:47:20.924,1211580380,119924,1,0.30737,-0.0354,0.76245,-33.863,-18.87,22.099
2026-05-21 01:47:20.924,1211580380,119924,2,0.9231,-0.22827,0.59937,-1.481,1.916,2.282
2026-05-21 01:47:20.173,1211579629,120173,1,0.14673,-0.13037,0.83398,-16.641,-0.916,-7.137
2026-05-21 01:47:20.173,1211579629,120173,2,0.92725,-0.22925,0.59326,0.145,0.618,1.931
2026-05-21 01:47:20.373,1211579829,120373,1,0.12354,-0.12988,0.85352,7.641,-20.374,1.359
2026-05-21 01:47:20.373,1211579829,120373,2,0.92847,-0.22681,0.60156,-1.176,0.771,0.588
2026-05-21 01:47:20.573,1211580029,120573,1,0.19092,-0.0459,0.77954,-3.489,6.954,3.0
2026-05-21 01:47:20.573,1211580029,120573,2,0.93433,-0.23267,0.59277,0.069,-0.084,2.069
2026-05-21 01:47:21.773,1211581229,120773,1,0.11572,0.14673,0.84546,16.351,95.405,-30.901
2026-05-21 01:47:21.773,1211581229,120773,2,0.92896,-0.21582,0.57129,0.481,0.542,-0.435
2026-05-21 01:47:21.973,1211581429,120973,1,0.36865,0.10474,0.82617,-9.916,17.046,-6.351
2026-05-21 01:47:21.973,1211581429,120973,2,0.92188,-0.23291,0.58521,-1.221,0.611,0.481
2026-05-21 01:47:24.749,1211584205,123749,1,0.31104,-0.00586,0.79712,27.16,47.382,0.618
2026-05-21 01:47:24.749,1211584205,123749,2,0.91772,-0.20361,0.60913,-2.802,2.573,1.153
2026-05-21 01:47:24.968,1211584424,123968,1,0.25952,0.11792,1.61792,-4.817,101.344,34.565
2026-05-21 01:47:24.968,1211584424,123968,2,0.93213,-0.18335,0.66113,13.618,21.473,-3.542
2026-05-21 01:47:24.168,1211583624,124168,1,-0.02295,0.08252,0.77271,-59.649,-43.099,-11.023
2026-05-21 01:47:24.168,1211583624,124168,2,0.92041,-0.21802,0.59009,1.504,-0.885,1.771
2026-05-21 01:47:24.368,1211583824,124368,1,0.15771,0.05835,0.68433,-26.481,28.443,4.748
2026-05-21 01:47:24.368,1211583824,124368,2,0.95532,-0.29907,0.5437,-30.221,-28.137,4.427
2026-05-21 01:47:24.568,1211584024,124568,1,0.11914,-0.36255,0.9624,-92.763,-154.672,32.824
2026-05-21 01:47:24.568,1211584024,124568,2,0.92114,-0.22925,0.47925,-12.817,-2.168,-0.443
2026-05-21 01:47:25.768,1211585224,124768,1,0.03662,-0.13257,0.91309,86.794,-67.427,-82.87
2026-05-21 01:47:25.768,1211585224,124768,2,0.94165,-0.25195,0.56079,-5.534,0.046,0.496
2026-05-21 01:47:25.968,1211585424,124968,1,-0.00415,0.00049,0.70728,37.267,28.832,-16.908
2026-05-21 01:47:25.968,1211585424,124968,2,0.92896,-0.23779,0.55713,-0.16,-0.481,0.015
2026-05-21 01:47:25.168,1211584624,125168,1,0.16772,-0.32129,1.03076,36.664,-25.061,-3.115
2026-05-21 01:47:25.168,1211584624,125168,2,0.92798,-0.24292,0.56616,-0.046,-1.695,1.71
2026-05-21 01:47:25.368,1211584824,125368,1,-0.23584,-0.34375,0.87061,-32.366,-63.435,-74.771
2026-05-21 01:47:25.368,1211584824,125368,2,0.93286,-0.25342,0.55518,-1.901,0.061,1.031
2026-05-21 01:47:25.568,1211585024,125568,1,0.48193,-0.50024,0.71069,-52.565,-35.641,-153.573
2026-05-21 01:47:25.568,1211585024,125568,2,0.92139,-0.24561,0.5564,-2.443,0.817,1.702
2026-05-21 01:47:26.768,1211586224,125768,1,0.61621,-0.64795,-0.63525,-250.137,-42.099,-188.053
2026-05-21 01:47:26.768,1211586224,125768,2,0.91821,-0.22363,0.76489,66.626,47.832,-4.496
2026-05-21 01:47:26.968,1211586424,125968,1,0.88062,-0.13477,-0.42139,-112.794,-140.023,-117.267
2026-05-21 01:47:26.968,1211586424,125968,2,0.96265,-0.32886,0.64258,-1.84,-0.542,6.031
2026-05-21 01:47:26.168,1211585624,126168,1,0.75879,0.0874,-0.58643,-70.802,83.29,45.802
2026-05-21 01:47:26.168,1211585624,126168,2,0.91235,-0.20459,0.69336,9.298,2.275,5.206
2026-05-21 01:47:26.368,1211585824,126368,1,0.93774,-0.03052,-0.7417,58.153,-34.366,-27.16
2026-05-21 01:47:26.368,1211585824,126368,2,0.91919,-0.2002,0.67163,-2.84,0.771,0.336
2026-05-21 01:47:26.568,1211586024,126568,1,0.76611,0.08887,-0.7832,-25.672,-14.794,-26.351
2026-05-21 01:47:26.568,1211586024,126568,2,0.9082,-0.17041,0.71606,3.26,0.504,2.656
2026-05-21 01:47:27.830,1211587286,126829,1,0.87402,-0.0415,-0.82617,5.962,0.069,10.809
2026-05-21 01:47:27.830,1211587286,126829,2,0.91016,-0.18701,0.71582,1.725,1.656,3.382
2026-05-21 01:47:27.029,1211586485,127029,1,0.80542,0.02319,-0.86304,-14.672,-5.695,-3.008
2026-05-21 01:47:27.029,1211586485,127029,2,0.8999,-0.17505,0.72534,-2.244,-0.183,1.298
2026-05-21 01:47:27.229,1211586685,127229,1,0.74658,0.08252,-0.83716,-15.344,-35.794,-14.137
2026-05-21 01:47:27.229,1211586685,127229,2,0.90894,-0.17896,0.72339,-6.008,-4.527,-2.939
2026-05-21 01:47:27.429,1211586885,127429,1,0.72998,0.03906,-0.80225,48.84,3.573,-5.84
2026-05-21 01:47:27.429,1211586885,127429,2,0.86914,-0.17896,0.76343,-7.107,2.718,-1.595
2026-05-21 01:47:27.629,1211587085,127629,1,0.82861,-0.06006,-0.80151,26.672,6.084,-0.939
2026-05-21 01:47:27.629,1211587085,127629,2,0.90088,-0.12573,0.81494,8.0,9.649,-1.748
2026-05-21 01:47:28.839,1211588295,127839,1,0.79736,-0.01123,-0.78638,-40.809,-27.824,14.977
2026-05-21 01:47:28.839,1211588295,127839,2,0.86182,-0.12549,0.82056,-9.046,-2.534,-3.435
2026-05-21 01:47:28.098,1211587554,128098,1,0.73975,0.06958,-0.90063,-12.779,-10.863,3.756
2026-05-21 01:47:28.098,1211587554,128098,2,0.87817,-0.11377,0.81348,5.832,2.153,1.115
2026-05-21 01:47:28.298,1211587754,128298,1,0.71118,0.05591,-0.90771,-5.26,-7.595,7.603
2026-05-21 01:47:28.298,1211587754,128298,2,0.84229,0.08911,0.53662,-164.763,-4.847,-19.382
2026-05-21 01:47:28.498,1211587954,128498,1,0.72095,0.03979,-0.94409,-12.611,-22.992,19.351
2026-05-21 01:47:28.498,1211587954,128498,2,0.95825,-0.31372,0.59009,-26.802,14.992,4.443
2026-05-21 01:47:28.701,1211588157,128701,1,0.78247,-0.02954,-0.95776,-1.084,17.992,2.008
2026-05-21 01:47:28.701,1211588157,128701,2,0.89136,-0.19775,0.69385,-10.191,-36.908,-4.046
2026-05-21 01:47:29.901,1211589357,128901,1,0.7251,0.0083,-0.88208,1.618,3.931,-8.611
2026-05-21 01:47:29.901,1211589357,128901,2,0.91895,-0.22681,0.69678,-20.916,-10.794,2.046
2026-05-21 01:47:29.101,1211588557,129101,1,0.80054,0.01172,-0.88721,1.878,-13.74,-6.702
2026-05-21 01:47:29.101,1211588557,129101,2,0.95142,-0.21313,0.69019,60.107,33.351,3.511
2026-05-21 01:47:29.301,1211588757,129301,1,0.77368,-0.00073,-0.91626,-1.053,24.885,8.595
2026-05-21 01:47:29.301,1211588757,129301,2,0.91602,-0.1084,0.55786,-71.679,-36.557,-8.702
2026-05-21 01:47:29.501,1211588957,129501,1,0.80249,-0.02271,-0.8562,7.863,34.13,3.641
2026-05-21 01:47:29.501,1211588957,129501,2,0.90332,-0.15112,0.72339,2.282,6.771,-0.55
2026-05-21 01:47:30.718,1211590174,129718,1,0.84766,-0.15332,-0.81982,-1.359,-13.496,4.534
2026-05-21 01:47:30.718,1211590174,129718,2,0.90894,-0.14331,0.71191,2.229,0.107,0.557
2026-05-21 01:47:30.918,1211590374,129918,1,0.9231,-0.16309,0.04419,-21.443,-14.382,0.519
2026-05-21 01:47:30.918,1211590374,129918,2,0.91602,-0.16602,0.68359,-4.115,-4.191,0.252
2026-05-21 01:47:30.118,1211589574,130118,1,0.84155,-0.09766,-0.79785,-0.954,-28.786,-12.847
2026-05-21 01:47:30.118,1211589574,130118,2,0.90601,-0.14429,0.70654,6.176,2.725,3.344
2026-05-21 01:47:30.318,1211589774,130318,1,0.84009,-0.06982,-0.85229,1.885,4.076,-3.023
2026-05-21 01:47:30.318,1211589774,130318,2,0.90601,-0.14307,0.75757,0.351,-15.229,-3.084
2026-05-21 01:47:30.518,1211589974,130518,1,0.82959,-0.05005,-0.90039,-4.115,-6.71,-0.985
2026-05-21 01:47:30.518,1211589974,130518,2,0.86694,-0.11694,0.77686,-2.618,-0.71,-1.137
2026-05-21 01:47:31.718,1211591174,130718,1,0.86304,0.01196,-0.78223,-45.916,13.687,0.924
2026-05-21 01:47:31.718,1211591174,130718,2,0.8999,-0.12061,0.73877,-6.695,-3.534,0.527
2026-05-21 01:47:31.918,1211591374,130918,1,0.82275,0.01733,-0.85962,15.71,-23.45,1.42
2026-05-21 01:47:31.918,1211591374,130918,2,0.91748,-0.10767,0.72949,-6.092,-3.649,2.611
2026-05-21 01:47:31.118,1211590574,131118,1,0.78564,-0.02759,-0.96436,-27.305,3.58,4.45
2026-05-21 01:47:31.118,1211590574,131118,2,1.04443,-0.15674,0.63916,7.908,-8.672,2.489
2026-05-21 01:47:31.318,1211590774,131318,1,0.74927,-0.19482,-0.64185,24.008,-6.855,-3.817
2026-05-21 01:47:31.318,1211590774,131318,2,0.95288,-0.13599,0.71655,-4.863,-5.115,1.176
2026-05-21 01:47:31.578,1211591034,131578,1,0.86548,-0.07739,-0.79297,5.733,1.557,-5.42
2026-05-21 01:47:31.578,1211591034,131578,2,0.92114,-0.15771,0.71606,6.153,3.168,7.763
2026-05-21 01:47:32.778,1211592234,131778,1,0.87109,-0.05518,-0.77271,-0.58,1.237,-2.588
2026-05-21 01:47:32.778,1211592234,131778,2,0.90869,-0.14478,0.70508,2.725,3.344,3.992
2026-05-21 01:47:32.978,1211592434,131978,1,0.91504,0.03882,-0.74878,-17.847,-12.504,-1.244
2026-05-21 01:47:32.978,1211592434,131978,2,0.91089,-0.12329,0.71753,17.153,3.802,12.145
2026-05-21 01:47:32.178,1211591634,132178,1,0.94971,-0.06592,-0.78882,4.42,-19.702,5.328
2026-05-21 01:47:32.178,1211591634,132178,2,0.92749,-0.15454,0.65967,1.45,2.672,1.847
2026-05-21 01:47:32.378,1211591834,132378,1,0.84619,-0.09644,-0.75366,-3.809,6.565,-0.344
2026-05-21 01:47:32.378,1211591834,132378,2,0.89136,-0.1106,0.75269,1.359,12.832,-1.046
2026-05-21 01:47:32.613,1211592069,132613,1,0.8772,-0.10596,-0.77319,-1.015,-3.29,1.221
2026-05-21 01:47:32.613,1211592069,132613,2,0.91846,-0.13354,0.72437,15.397,-0.55,0.771
2026-05-21 01:47:33.974,1211593430,132974,1,0.85327,-0.04932,-0.86548,9.656,1.45,4.221
2026-05-21 01:47:33.974,1211593430,132974,2,0.8916,-0.09277,0.76465,18.878,-8.405,2.893
2026-05-21 01:47:33.174,1211592630,133174,1,0.84668,-0.16064,-0.8125,-16.145,6.802,17.038
2026-05-21 01:47:33.174,1211592630,133174,2,0.91626,-0.17578,0.52588,-113.656,-34.527,-12.649
2026-05-21 01:47:33.497,1211592953,133497,1,0.88232,-0.15771,-0.77832,-6.069,-0.771,7.779
2026-05-21 01:47:33.497,1211592953,133497,2,1.00854,-0.05176,0.49561,-250.137,22.626,-8.099
2026-05-21 01:47:33.697,1211593153,133697,1,0.87817,-0.14233,-0.76245,3.13,-17.221,2.061
2026-05-21 01:47:33.697,1211593153,133697,2,1.1582,-0.08813,0.31543,250.13,-1.763,41.397
2026-05-21 01:47:34.897,1211594353,133897,1,0.8103,-0.17261,-0.82983,9.244,-9.237,0.771
2026-05-21 01:47:34.897,1211594353,133897,2,0.90991,-0.13843,0.16479,152.771,3.015,-29.855
2026-05-21 01:47:34.097,1211593553,134097,1,0.84595,-0.17456,-0.80737,-3.672,1.679,2.412
2026-05-21 01:47:34.097,1211593553,134097,2,0.97998,-0.16504,0.46167,36.947,35.26,13.321
2026-05-21 01:47:34.297,1211593753,134297,1,0.82739,-0.17212,-0.82568,2.122,-5.504,-1.099
2026-05-21 01:47:34.297,1211593753,134297,2,1.00269,-0.20288,0.53711,-14.656,23.718,-0.786
2026-05-21 01:47:34.497,1211593953,134497,1,0.84595,-0.16577,-0.78418,-10.275,-5.267,3.275
2026-05-21 01:47:34.497,1211593953,134497,2,0.84839,-0.15527,0.55957,-5.107,-1.328,-0.809
2026-05-21 01:47:34.697,1211594153,134697,1,0.84546,-0.16138,-0.80811,-6.794,-3.534,-0.725
2026-05-21 01:47:34.697,1211594153,134697,2,0.97534,-0.22974,0.54028,57.901,5.115,10.366
2026-05-21 01:47:35.897,1211595353,134897,1,0.8501,-0.17017,-0.82715,4.794,-1.511,-7.13
2026-05-21 01:47:35.897,1211595353,134897,2,0.93701,-0.15283,0.6311,8.366,3.366,5.26
2026-05-21 01:47:35.097,1211594553,135097,1,0.83472,-0.12427,-0.81055,-4.962,-3.183,-0.71
2026-05-21 01:47:35.097,1211594553,135097,2,0.92822,-0.16162,0.66357,8.641,1.313,7.641
2026-05-21 01:47:38.189,1211597645,138189,1,0.22266,-0.78174,-0.83862,-35.664,15.603,-33.603
2026-05-21 01:47:38.189,1211597645,138189,2,0.93823,0.33301,0.52173,-4.954,-11.802,35.145
2026-05-21 01:47:38.389,1211597845,138389,1,0.41577,-0.59912,-0.84937,-35.26,27.107,-33.496
2026-05-21 01:47:38.389,1211597845,138389,2,0.98218,0.1958,0.45947,-56.0,-9.321,46.145
2026-05-21 01:47:38.589,1211598045,138589,1,0.59546,-0.45776,-0.88281,-28.756,24.824,-31.649
2026-05-21 01:47:38.589,1211598045,138589,2,0.89526,0.05615,0.47021,6.985,-30.641,26.092
2026-05-21 01:47:39.789,1211599245,138789,1,0.72168,-0.26147,-0.87573,-24.733,22.893,-36.84
2026-05-21 01:47:39.789,1211599245,138789,2,0.95776,-0.12158,0.48926,-4.16,10.137,11.275
2026-05-21 01:47:39.989,1211599445,138989,1,0.70703,-0.17944,-0.86084,-9.092,-7.26,-23.847
2026-05-21 01:47:39.989,1211599445,138989,2,0.95044,-0.16455,0.51489,2.924,-0.863,12.282
2026-05-21 01:47:39.361,1211598817,139361,1,0.86938,-0.04956,-0.87939,7.74,-4.046,-16.954
2026-05-21 01:47:39.361,1211598817,139361,2,0.92773,-0.146,0.58228,2.122,9.359,8.504
2026-05-21 01:47:39.564,1211599020,139564,1,0.75317,-0.0835,-0.89648,-7.405,-2.618,4.954
2026-05-21 01:47:39.564,1211599020,139564,2,0.92236,-0.2063,0.56836,0.969,7.42,4.023
2026-05-21 01:47:40.764,1211600220,139764,1,0.76636,-0.10059,-0.91064,-4.382,-2.26,1.191
2026-05-21 01:47:40.764,1211600220,139764,2,0.93945,-0.18896,0.58057,0.412,1.916,0.481
2026-05-21 01:47:40.964,1211600420,139964,1,0.76685,-0.08252,-0.88867,-0.168,1.565,0.008
2026-05-21 01:47:40.964,1211600420,139964,2,0.90552,-0.17651,0.60498,29.664,28.557,-17.336
2026-05-21 01:47:40.164,1211599620,140164,1,0.79639,-0.0918,-0.88818,6.55,1.221,-0.351
2026-05-21 01:47:40.164,1211599620,140164,2,0.92358,-0.17041,0.7229,26.702,2.824,-1.015
2026-05-21 01:47:40.364,1211599820,140364,1,0.78149,-0.09717,-0.87134,-2.176,-1.061,-0.58
2026-05-21 01:47:40.364,1211599820,140364,2,0.94751,-0.11597,0.64819,-3.695,-3.031,1.435
2026-05-21 01:47:40.564,1211600020,140564,1,0.75977,-0.09009,-0.91772,-5.412,0.969,-4.076
2026-05-21 01:47:40.564,1211600020,140564,2,0.93115,-0.11279,0.64258,-2.786,4.458,-0.664
2026-05-21 01:47:41.764,1211601220,140764,1,0.81616,-0.07983,-0.89355,1.626,1.878,1.397
2026-05-21 01:47:41.764,1211601220,140764,2,0.90259,-0.09131,0.7168,2.947,-11.137,4.557
2026-05-21 01:47:41.964,1211601420,140964,1,0.75879,-0.09351,-0.90259,-0.908,0.412,7.45
2026-05-21 01:47:41.964,1211601420,140964,2,0.87915,-0.1167,0.61621,13.595,-3.565,11.069
2026-05-21 01:47:41.164,1211600620,141164,1,0.76489,-0.09937,-0.88477,0.947,1.626,0.885
2026-05-21 01:47:41.164,1211600620,141164,2,0.95093,-0.14453,0.66626,3.45,12.344,-2.206
2026-05-21 01:47:41.364,1211600820,141364,1,0.78662,-0.14307,-0.88208,9.786,0.977,2.0
2026-05-21 01:47:41.364,1211600820,141364,2,0.93066,-0.07349,0.40723,21.954,5.344,4.435
2026-05-21 01:47:41.564,1211601020,141564,1,0.78223,-0.14087,-0.87207,-1.061,2.267,3.985
2026-05-21 01:47:41.564,1211601020,141564,2,0.93896,-0.15747,0.5835,5.267,6.382,-2.931
2026-05-21 01:47:42.764,1211602220,141764,1,0.77271,-0.16577,-0.88647,2.885,-1.115,2.557
2026-05-21 01:47:42.764,1211602220,141764,2,0.93115,-0.1311,0.60571,2.221,3.344,-0.634
2026-05-21 01:47:42.023,1211601479,142023,1,0.74683,-0.21997,-0.89258,-10.16,2.634,13.466
2026-05-21 01:47:42.023,1211601479,142023,2,0.9397,-0.15698,0.62622,-8.427,-1.962,11.069
2026-05-21 01:47:42.223,1211601679,142223,1,0.76929,-0.15601,-0.85913,-17.26,15.863,8.305
2026-05-21 01:47:42.223,1211601679,142223,2,0.93823,-0.18628,0.62134,-13.954,-3.702,5.099
2026-05-21 01:47:42.423,1211601879,142423,1,0.83643,-0.10181,-0.81836,8.855,8.084,-5.618
2026-05-21 01:47:42.423,1211601879,142423,2,0.90088,-0.18359,0.6167,13.046,-15.527,-3.092
2026-05-21 01:47:42.623,1211602079,142623,1,0.8584,-0.20801,-0.73975,24.42,23.267,-4.351
2026-05-21 01:47:42.623,1211602079,142623,2,0.91406,-0.20361,0.57544,-0.038,1.557,5.069
2026-05-21 01:47:43.823,1211603279,142823,1,0.89917,-0.2771,-0.65186,-11.473,3.718,2.473
2026-05-21 01:47:43.823,1211603279,142823,2,0.94238,-0.18701,0.57104,3.382,4.031,5.298
2026-05-21 01:47:43.023,1211602479,143023,1,0.88892,-0.23364,-0.7229,-7.153,2.618,9.626
2026-05-21 01:47:43.023,1211602479,143023,2,0.94507,-0.21436,0.54517,3.313,1.74,2.634
2026-05-21 01:47:43.223,1211602679,143223,1,0.91772,-0.26392,-0.71436,0.26,-0.595,5.634
2026-05-21 01:47:43.223,1211602679,143223,2,0.94189,-0.2063,0.55737,-12.74,-8.061,-6.412
2026-05-21 01:47:43.423,1211602879,143423,1,0.81079,-0.32739,-0.72754,-18.985,-4.58,-1.008
2026-05-21 01:47:43.423,1211602879,143423,2,0.95313,-0.21094,0.52783,-1.237,1.344,0.733
2026-05-21 01:47:43.623,1211603079,143623,1,0.84692,-0.27588,-0.75171,-10.359,4.496,2.527
2026-05-21 01:47:43.623,1211603079,143623,2,0.93872,-0.18701,0.54932,4.168,8.954,5.405
2026-05-21 01:47:44.823,1211604279,143823,1,0.82642,-0.21826,-0.79565,0.435,-2.351,-9.0
2026-05-21 01:47:44.823,1211604279,143823,2,0.95093,-0.20068,0.55518,-2.939,8.015,-2.038
2026-05-21 01:47:44.023,1211603479,144023,1,0.90649,-0.21265,-0.68408,21.359,-12.473,-27.565
2026-05-21 01:47:44.023,1211603479,144023,2,0.88818,-0.17529,0.55225,-15.374,-14.046,-12.504
2026-05-21 01:47:44.223,1211603679,144223,1,0.86694,-0.21143,-0.76001,-7.351,-9.626,10.031
2026-05-21 01:47:44.223,1211603679,144223,2,0.93188,-0.1665,0.56689,9.489,3.573,7.107
2026-05-21 01:47:44.423,1211603879,144423,1,0.81494,-0.19238,-0.82471,8.206,-6.809,0.42
2026-05-21 01:47:44.423,1211603879,144423,2,0.93506,-0.13623,0.57666,-10.26,-1.344,-0.695
2026-05-21 01:47:44.623,1211604079,144623,1,0.88159,-0.21509,-0.729,5.328,2.992,-2.031
2026-05-21 01:47:44.623,1211604079,144623,2,0.94238,-0.12793,0.54272,24.573,1.878,17.176
2026-05-21 01:47:45.096,1211604552,145095,1,0.91577,-0.17358,-0.6853,-16.298,5.649,-3.053
2026-05-21 01:47:45.096,1211604552,145095,2,0.93628,-0.19604,0.62524,19.069,7.229,13.656
2026-05-21 01:47:45.295,1211604751,145295,1,0.88818,-0.15869,-0.73413,-9.046,-3.832,-1.855
2026-05-21 01:47:45.295,1211604751,145295,2,0.96069,0.17773,0.45947,1.885,-7.947,7.603
2026-05-21 01:47:45.495,1211604951,145495,1,0.86377,-0.13428,-0.76636,-1.069,-1.802,3.313
2026-05-21 01:47:45.495,1211604951,145495,2,0.90332,-0.25879,0.58032,-20.939,-4.58,0.985
2026-05-21 01:47:45.695,1211605151,145695,1,0.88818,-0.1416,-0.73071,-0.092,2.87,-1.664
2026-05-21 01:47:45.695,1211605151,145695,2,0.92944,-0.24585,0.62085,2.176,2.557,0.344
2026-05-21 01:47:46.895,1211606351,145895,1,0.90576,-0.17334,-0.71045,12.573,-3.603,-3.305
2026-05-21 01:47:46.895,1211606351,145895,2,0.9209,-0.21191,0.66626,2.511,1.763,1.786
2026-05-21 01:47:46.095,1211605551,146095,1,0.88135,-0.20288,-0.74878,12.58,-1.015,-6.718
2026-05-21 01:47:46.095,1211605551,146095,2,0.9292,-0.23193,0.60938,7.023,3.42,3.771
2026-05-21 01:47:46.295,1211605751,146295,1,0.896,-0.15771,-0.72949,1.389,-1.779,-1.176
2026-05-21 01:47:46.295,1211605751,146295,2,0.92017,-0.21118,0.62061,4.046,1.168,2.748
2026-05-21 01:47:46.495,1211605951,146495,1,0.87573,-0.20752,-0.75098,-10.008,0.275,2.977
2026-05-21 01:47:46.495,1211605951,146495,2,0.90552,-0.24243,0.64233,12.389,9.939,7.969
2026-05-21 01:47:46.695,1211606151,146695,1,0.90625,-0.14111,-0.729,3.038,3.145,-7.069
2026-05-21 01:47:46.695,1211606151,146695,2,0.90479,-0.22144,0.65747,-4.901,2.771,-2.214
2026-05-21 01:47:47.895,1211607351,146895,1,0.88379,-0.18506,-0.73779,0.237,2.328,0.603
2026-05-21 01:47:47.895,1211607351,146895,2,0.91333,-0.23218,0.64746,8.573,3.435,5.985
2026-05-21 01:47:47.095,1211606551,147095,1,0.91528,-0.17578,-0.72607,-10.183,5.359,5.336
2026-05-21 01:47:47.095,1211606551,147095,2,0.91748,-0.26343,0.62988,10.916,0.328,6.58
2026-05-21 01:47:47.295,1211606751,147295,1,0.89624,-0.18628,-0.72705,-5.122,-2.13,5.58
2026-05-21 01:47:47.295,1211606751,147295,2,0.90649,-0.26807,0.66577,-4.313,-1.763,-0.672
2026-05-21 01:47:47.495,1211606951,147495,1,0.87988,-0.16431,-0.75146,2.702,-1.748,1.962
2026-05-21 01:47:47.495,1211606951,147495,2,0.90869,-0.22437,0.6377,-1.198,3.053,-0.099
2026-05-21 01:47:48.710,1211608166,147710,1,0.90186,-0.19556,-0.74756,-1.626,-1.412,2.115
2026-05-21 01:47:48.710,1211608166,147710,2,0.91895,-0.24927,0.64404,8.008,6.221,3.389
2026-05-21 01:47:48.910,1211608366,147910,1,0.87646,-0.21851,-0.72168,9.153,-4.58,-1.489
2026-05-21 01:47:48.910,1211608366,147910,2,0.90674,-0.23828,0.63623,-18.458,-7.443,-6.244
2026-05-21 01:47:48.110,1211607566,148110,1,0.84351,-0.22705,-0.74805,-2.344,-0.389,3.328
2026-05-21 01:47:48.110,1211607566,148110,2,0.91943,-0.2168,0.61938,-3.382,-1.122,0.962
2026-05-21 01:47:48.310,1211607766,148310,1,0.9104,-0.23511,-0.72705,-0.489,9.084,5.229
2026-05-21 01:47:48.310,1211607766,148310,2,0.91406,-0.23633,0.63452,11.947,9.42,9.42
2026-05-21 01:47:48.510,1211607966,148510,1,0.90283,-0.21582,-0.72827,-8.13,1.031,2.099
2026-05-21 01:47:48.510,1211607966,148510,2,0.90967,-0.24048,0.64185,-4.985,-0.634,-1.176
2026-05-21 01:47:48.710,1211608166,148710,1,0.87354,-0.22876,-0.74121,-1.824,-1.977,-0.901
2026-05-21 01:47:48.710,1211608166,148710,2,0.90771,-0.22461,0.63574,-4.847,-1.382,-1.191
2026-05-21 01:47:49.910,1211609366,148910,1,0.89209,-0.22241,-0.75317,0.511,-1.588,2.214
2026-05-21 01:47:49.910,1211609366,148910,2,0.91016,-0.23804,0.63818,-3.389,-3.336,-3.153
2026-05-21 01:47:49.110,1211608566,149110,1,0.85034,-0.24072,-0.77173,1.756,-6.191,0.962
2026-05-21 01:47:49.110,1211608566,149110,2,0.93506,-0.22339,0.61597,-9.389,-1.916,-4.71
2026-05-21 01:47:49.310,1211608766,149310,1,0.8208,-0.25562,-0.77979,5.26,-6.214,-0.618
2026-05-21 01:47:49.310,1211608766,149310,2,0.93652,-0.18921,0.58008,-5.74,-2.443,-2.374
2026-05-21 01:47:49.510,1211608966,149510,1,0.83057,-0.22925,-0.80298,-2.267,-2.008,-12.641
2026-05-21 01:47:49.510,1211608966,149510,2,0.93774,-0.20093,0.58984,-1.237,4.412,2.389
2026-05-21 01:47:49.710,1211609166,149710,1,0.80933,-0.2085,-0.78345,-5.26,1.435,-5.649
2026-05-21 01:47:49.710,1211609166,149710,2,0.92358,-0.19897,0.6189,5.901,3.275,4.519
2026-05-21 01:47:50.910,1211610366,149910,1,0.84863,-0.2041,-0.78418,3.641,3.679,-2.824
2026-05-21 01:47:50.910,1211610366,149910,2,0.90039,-0.20996,0.57056,-1.969,-2.603,1.099
2026-05-21 01:47:50.110,1211609566,150110,1,0.86621,-0.21216,-0.76172,-1.053,4.802,-8.725
2026-05-21 01:47:50.110,1211609566,150110,2,0.91821,-0.21289,0.63721,-2.756,5.321,0.954
2026-05-21 01:47:50.310,1211609766,150310,1,0.90283,-0.19458,-0.76514,7.26,7.672,-8.588
2026-05-21 01:47:50.310,1211609766,150310,2,0.92407,-0.23413,0.6333,-7.115,-1.198,0.832
2026-05-21 01:47:51.740,1211611196,150740,1,0.93042,-0.1416,-0.71289,-18.0,1.87,4.244
2026-05-21 01:47:51.740,1211611196,150740,2,0.92383,-0.21216,0.5708,1.985,-3.176,4.84
2026-05-21 01:47:51.940,1211611396,150940,1,0.90918,-0.09839,-0.72681,-15.237,-4.656,10.863
2026-05-21 01:47:51.940,1211611396,150940,2,0.93262,-0.27734,0.58911,1.603,1.656,3.595
2026-05-21 01:47:51.140,1211610596,151140,1,0.86377,-0.10693,-0.7832,-6.672,-4.695,8.466
2026-05-21 01:47:51.140,1211610596,151140,2,0.89966,-0.22998,0.66357,-12.878,-6.008,-5.053
2026-05-21 01:47:51.340,1211610796,151340,1,0.87573,-0.17212,-0.76172,0.122,2.374,-1.649
2026-05-21 01:47:51.340,1211610796,151340,2,0.93042,-0.20215,0.59497,-3.786,-0.13,-0.176
2026-05-21 01:47:51.541,1211610997,151541,1,0.87305,-0.1731,-0.75049,0.344,1.252,2.183
2026-05-21 01:47:51.541,1211610997,151541,2,0.92554,-0.19165,0.58716,5.656,3.023,3.992
2026-05-21 01:47:52.741,1211612197,151741,1,0.90063,-0.17236,-0.7395,-2.573,5.924,1.725
2026-05-21 01:47:52.741,1211612197,151741,2,0.92822,-0.23218,0.59692,-4.496,-2.328,-0.405
2026-05-21 01:47:52.007,1211611463,152007,1,0.89868,-0.15259,-0.72778,-3.702,-0.244,-4.366
2026-05-21 01:47:52.007,1211611463,152007,2,0.93335,-0.23584,0.57813,-4.534,-1.542,-1.107
2026-05-21 01:47:52.207,1211611663,152207,1,0.90234,-0.14795,-0.72998,0.885,-1.969,-6.45
2026-05-21 01:47:52.207,1211611663,152207,2,0.92578,-0.21606,0.58813,2.489,0.443,2.962
2026-05-21 01:47:52.420,1211611876,152420,1,0.89404,-0.11621,-0.74023,0.031,0.786,-5.183
2026-05-21 01:47:52.420,1211611876,152420,2,0.93481,-0.23999,0.57544,-9.328,-2.55,-0.779
2026-05-21 01:47:52.620,1211612076,152620,1,0.88257,-0.13232,-0.72192,2.863,-0.901,-10.977
2026-05-21 01:47:52.620,1211612076,152620,2,0.94604,-0.21021,0.55835,-3.611,-4.023,0.58
2026-05-21 01:47:53.820,1211613276,152820,1,0.87744,-0.11011,-0.77612,-1.473,-4.191,-3.878
2026-05-21 01:47:53.820,1211613276,152820,2,0.96851,-0.24194,0.54443,5.382,-0.595,5.221
2026-05-21 01:47:53.020,1211612476,153020,1,0.9353,-0.04858,-0.77954,-3.687,1.725,-0.947
2026-05-21 01:47:53.020,1211612476,153020,2,0.94019,-0.23828,0.61157,-2.099,1.977,2.26
2026-05-21 01:47:53.220,1211612676,153220,1,0.90698,-0.07324,-0.74097,-3.351,0.672,-0.206
2026-05-21 01:47:53.220,1211612676,153220,2,0.94849,-0.2439,0.53564,0.244,-2.794,3.069
2026-05-21 01:47:53.422,1211612878,153422,1,0.9248,-0.06787,-0.65967,8.435,-7.763,-8.603
2026-05-21 01:47:53.422,1211612878,153422,2,0.82959,-0.21582,0.51855,-5.122,10.214,-0.565
2026-05-21 01:47:53.622,1211613078,153622,1,0.89063,-0.0564,-0.73975,-0.702,-8.672,-8.023
2026-05-21 01:47:53.622,1211613078,153622,2,1.01123,-0.27515,0.49072,2.84,8.565,8.817
2026-05-21 01:47:54.822,1211614278,153822,1,0.84058,0.00903,-0.86035,-11.565,2.893,3.298
2026-05-21 01:47:54.822,1211614278,153822,2,0.948,-0.28467,0.61646,-10.466,0.855,-6.099
2026-05-21 01:47:54.022,1211613478,154022,1,0.88062,-0.01392,-0.70532,3.42,-14.176,-6.954
2026-05-21 01:47:54.022,1211613478,154022,2,0.87378,-0.14209,0.63428,10.748,9.107,-1.794
2026-05-21 01:47:54.222,1211613678,154222,1,0.87622,-0.01367,-0.68213,7.702,-18.008,-2.969
2026-05-21 01:47:54.222,1211613678,154222,2,0.96191,-0.09912,0.65894,2.916,1.924,1.626
2026-05-21 01:47:57.272,1211616728,157272,1,0.80957,-0.16309,-0.82959,-0.084,1.206,4.153
2026-05-21 01:47:57.272,1211616728,157272,2,0.93726,-0.10474,0.61377,5.481,-1.58,7.29
2026-05-21 01:47:57.472,1211616928,157472,1,0.81079,-0.18652,-0.82886,-4.267,3.71,2.511
2026-05-21 01:47:57.472,1211616928,157472,2,0.94653,-0.14063,0.6416,-9.565,0.397,-2.069
2026-05-21 01:47:57.677,1211617133,157677,1,0.82446,-0.16968,-0.81006,1.733,-1.489,0.748
2026-05-21 01:47:57.677,1211617133,157677,2,0.94653,-0.12939,0.61963,-3.069,-0.618,-2.214
2026-05-21 01:47:58.877,1211618333,157877,1,0.823,-0.20093,-0.82446,-2.916,2.992,0.527
2026-05-21 01:47:58.877,1211618333,157877,2,0.94751,-0.16211,0.63574,-1.122,2.641,1.771
2026-05-21 01:47:58.077,1211617533,158077,1,0.79907,-0.18066,-0.83252,2.916,-1.878,-3.061
2026-05-21 01:47:58.077,1211617533,158077,2,0.95044,-0.15039,0.61597,0.16,5.603,1.221
2026-05-21 01:47:58.277,1211617733,158277,1,0.82056,-0.18311,-0.82227,1.695,-1.824,0.023
2026-05-21 01:47:58.277,1211617733,158277,2,0.94775,-0.14209,0.6106,9.893,3.573,5.328
2026-05-21 01:47:58.477,1211617933,158477,1,0.8147,-0.19409,-0.80322,-5.244,2.992,-4.511
2026-05-21 01:47:58.477,1211617933,158477,2,0.93604,-0.14307,0.59888,-2.206,4.214,1.015
2026-05-21 01:47:58.677,1211618133,158677,1,0.8125,-0.18677,-0.79321,1.061,-1.74,-1.664
2026-05-21 01:47:58.677,1211618133,158677,2,0.94507,-0.13037,0.59473,8.664,6.313,5.053
2026-05-21 01:47:59.877,1211619333,158877,1,0.83374,-0.23706,-0.82813,-6.183,4.29,0.198
2026-05-21 01:47:59.877,1211619333,158877,2,0.94116,-0.13013,0.60669,-14.366,0.687,-1.275
2026-05-21 01:48:02.788,1211622244,161787,1,0.81982,-0.1853,-0.82715,-1.534,-2.313,3.229
2026-05-21 01:48:02.788,1211622244,161787,2,0.92017,-0.1438,0.63452,-19.305,-5.489,-4.038
2026-05-21 01:48:02.033,1211621489,162032,1,0.81396,-0.1748,-0.80005,0.542,-4.473,-1.618
2026-05-21 01:48:02.033,1211621489,162032,2,0.95068,-0.16748,0.57324,5.931,6.832,1.565
2026-05-21 01:48:02.232,1211621688,162232,1,0.82471,-0.20654,-0.81177,-5.588,-1.878,1.427
2026-05-21 01:48:02.232,1211621688,162232,2,0.92798,-0.15894,0.61768,6.87,4.977,6.71
2026-05-21 01:48:02.432,1211621888,162432,1,0.81274,-0.21143,-0.8186,-3.16,2.611,4.496
2026-05-21 01:48:02.432,1211621888,162432,2,0.93091,-0.19067,0.62402,1.481,3.122,3.542
2026-05-21 01:48:02.632,1211622088,162632,1,0.8396,-0.20117,-0.80371,-0.13,2.443,0.427
2026-05-21 01:48:02.632,1211622088,162632,2,0.93115,-0.17212,0.62891,-2.298,3.794,0.496
2026-05-21 01:48:03.832,1211623288,162832,1,0.85205,-0.22803,-0.78687,-1.74,0.786,2.473
2026-05-21 01:48:03.832,1211623288,162832,2,0.92871,-0.18188,0.63794,1.466,3.901,2.672
2026-05-21 01:48:03.032,1211622488,163032,1,0.84033,-0.21362,-0.79883,-6.397,3.817,1.672
2026-05-21 01:48:03.032,1211622488,163032,2,0.93018,-0.17773,0.62988,1.901,6.153,3.534
2026-05-21 01:48:03.232,1211622688,163232,1,0.84009,-0.21484,-0.77148,-2.351,7.771,-0.069
2026-05-21 01:48:03.232,1211622688,163232,2,0.91846,-0.16455,0.68384,-5.565,-2.137,2.786
2026-05-21 01:48:03.432,1211622888,163432,1,0.89185,-0.20752,-0.74609,-11.168,4.145,1.611
2026-05-21 01:48:03.432,1211622888,163432,2,0.9646,-0.26196,0.6897,-19.718,-5.771,-0.031
2026-05-21 01:48:03.702,1211623158,163702,1,0.89697,-0.23267,-0.74756,-3.885,3.168,0.061
2026-05-21 01:48:03.702,1211623158,163702,2,1.04639,-0.12988,0.81201,26.557,23.534,37.206
2026-05-21 01:48:06.699,1211626155,166699,1,0.91846,-0.11816,-0.6853,-1.481,7.672,-19.153
2026-05-21 01:48:06.699,1211626155,166699,2,0.91357,-0.19067,0.70532,-3.076,0.053,-2.618
2026-05-21 01:48:07.899,1211627355,166899,1,0.92725,-0.16162,-0.65942,-0.374,-6.13,-10.107
2026-05-21 01:48:07.899,1211627355,166899,2,0.91577,-0.13818,0.6626,-2.794,2.824,-1.13
2026-05-21 01:48:07.099,1211626555,167099,1,0.87964,-0.12476,-0.77368,-6.809,-8.885,2.344
2026-05-21 01:48:07.099,1211626555,167099,2,0.92456,-0.17798,0.64697,-7.351,-0.947,-2.489
2026-05-21 01:48:07.299,1211626755,167299,1,0.8103,-0.16479,-0.80933,-2.466,-6.176,-8.382
2026-05-21 01:48:07.299,1211626755,167299,2,0.90894,-0.15649,0.66943,10.099,4.725,5.008
2026-05-21 01:48:07.499,1211626955,167499,1,0.82104,-0.1438,-0.82153,3.542,1.214,-9.298
2026-05-21 01:48:07.499,1211626955,167499,2,0.95215,-0.17969,0.68359,12.244,5.718,9.084
2026-05-21 01:48:08.732,1211628188,167732,1,0.84668,-0.18628,-0.81348,-11.931,13.496,10.053
2026-05-21 01:48:08.732,1211628188,167732,2,0.85425,0.01416,0.45532,8.588,-1.107,30.29
2026-05-21 01:48:08.932,1211628388,167932,1,0.8916,-0.05688,-0.7688,-12.931,8.641,6.611
2026-05-21 01:48:08.932,1211628388,167932,2,0.87524,-0.25098,0.75708,-18.115,-6.084,-12.557
2026-05-21 01:48:08.132,1211627588,168132,1,0.89331,-0.14453,-0.76294,1.603,1.901,6.427
2026-05-21 01:48:08.132,1211627588,168132,2,0.88306,-0.23047,0.71313,-26.008,-8.359,-10.931
2026-05-21 01:48:08.332,1211627788,168332,1,0.87354,-0.16919,-0.7627,14.962,4.252,11.763
2026-05-21 01:48:08.332,1211627788,168332,2,0.90845,-0.20459,0.6626,-9.298,-6.992,-6.427
2026-05-21 01:48:08.532,1211627988,168532,1,0.87036,-0.25,-0.7168,-0.832,2.649,10.924
2026-05-21 01:48:08.532,1211627988,168532,2,0.90503,-0.1814,0.66528,3.641,1.191,5.053
2026-05-21 01:48:11.683,1211631139,171683,1,0.88086,-0.13696,-0.75269,-3.557,0.046,0.786
2026-05-21 01:48:11.683,1211631139,171683,2,0.92578,-0.19751,0.65942,5.534,3.702,5.588
2026-05-21 01:48:12.883,1211632339,171883,1,0.88623,-0.14111,-0.76147,-0.595,0.061,-0.427
2026-05-21 01:48:12.883,1211632339,171883,2,0.91968,-0.19458,0.67261,-1.244,2.0,0.389
2026-05-21 01:48:12.083,1211631539,172083,1,0.88208,-0.13599,-0.74805,-1.504,-0.45,-0.13
2026-05-21 01:48:12.083,1211631539,172083,2,0.92603,-0.19653,0.70801,-1.763,1.069,1.74
2026-05-21 01:48:12.283,1211631739,172283,1,0.88013,-0.15381,-0.75073,-1.916,-1.366,1.099
2026-05-21 01:48:12.283,1211631739,172283,2,0.91504,-0.19849,0.67529,-0.656,1.473,1.29
2026-05-21 01:48:12.483,1211631939,172483,1,0.88062,-0.14063,-0.76074,-1.244,-0.42,0.412
2026-05-21 01:48:12.483,1211631939,172483,2,0.92017,-0.18848,0.67432,0.046,1.267,1.183
2026-05-21 01:48:12.683,1211632139,172683,1,0.87598,-0.14526,-0.76367,-1.74,-0.351,0.771
2026-05-21 01:48:12.683,1211632139,172683,2,0.91479,-0.18457,0.67432,-0.87,1.359,1.237
2026-05-21 01:48:13.883,1211633339,172883,1,0.87622,-0.14697,-0.76172,-1.351,0.053,0.42
2026-05-21 01:48:13.883,1211633339,172883,2,0.91724,-0.1897,0.67139,-0.87,1.832,1.076
2026-05-21 01:48:13.083,1211632539,173083,1,0.87793,-0.15161,-0.75781,-2.282,0.473,0.206
2026-05-21 01:48:13.083,1211632539,173083,2,0.9165,-0.1875,0.67261,-3.099,0.832,0.389
2026-05-21 01:48:13.283,1211632739,173283,1,0.87598,-0.1582,-0.76465,-2.267,0.069,0.16
2026-05-21 01:48:13.283,1211632739,173283,2,0.91797,-0.19312,0.67529,0.031,0.145,2.107
2026-05-21 01:48:13.483,1211632939,173483,1,0.88135,-0.15234,-0.76538,-4.885,-1.679,0.092
2026-05-21 01:48:13.483,1211632939,173483,2,0.92163,-0.20142,0.64868,2.237,-3.695,2.939
2026-05-21 01:48:13.683,1211633139,173683,1,0.87671,-0.11572,-0.76782,-7.756,-2.733,-4.519
2026-05-21 01:48:13.683,1211633139,173683,2,0.91968,-0.18652,0.65723,-6.534,1.405,-2.557
2026-05-21 01:48:14.883,1211634339,173883,1,0.86133,-0.1167,-0.78687,-3.908,-3.313,-4.427
2026-05-21 01:48:14.883,1211634339,173883,2,0.91064,-0.17334,0.66919,-3.71,1.649,3.282
2026-05-21 01:48:14.083,1211633539,174083,1,0.84741,-0.0979,-0.79102,-5.618,-3.679,-1.84
2026-05-21 01:48:14.083,1211633539,174083,2,0.91919,-0.20142,0.68652,-5.603,1.145,3.87
2026-05-21 01:48:17.211,1211636667,177211,1,0.82886,-0.19971,-0.81006,-4.885,-0.489,-4.191
2026-05-21 01:48:17.211,1211636667,177211,2,0.90991,-0.12451,0.71094,-3.374,0.344,3.374
2026-05-21 01:48:17.411,1211636867,177411,1,0.83301,-0.19946,-0.78809,-5.099,2.275,-2.695
2026-05-21 01:48:17.411,1211636867,177411,2,0.90918,-0.1189,0.70776,1.802,1.962,5.519
2026-05-21 01:48:17.611,1211637067,177611,1,0.83813,-0.17822,-0.80029,-2.061,0.924,-1.489
2026-05-21 01:48:17.611,1211637067,177611,2,0.91309,-0.1438,0.71436,-0.298,1.351,2.229
2026-05-21 01:48:18.811,1211638267,177811,1,0.83301,-0.1897,-0.81812,-4.702,2.145,1.779
2026-05-21 01:48:18.811,1211638267,177811,2,0.90723,-0.15112,0.70605,-7.298,-1.313,0.099
2026-05-21 01:48:18.169,1211637625,178169,1,0.81348,-0.19263,-0.7605,-1.153,0.748,1.046
2026-05-21 01:48:18.169,1211637625,178169,2,0.90942,-0.15381,0.75073,2.489,1.008,0.511
2026-05-21 01:48:18.369,1211637825,178369,1,0.84399,-0.19312,-0.80298,0.13,1.046,0.29
2026-05-21 01:48:18.369,1211637825,178369,2,0.92676,-0.15015,0.71753,-2.847,1.863,2.55
2026-05-21 01:48:18.569,1211638025,178569,1,0.83057,-0.18921,-0.77686,-12.145,-6.321,-5.252
2026-05-21 01:48:18.569,1211638025,178569,2,0.9314,-0.14258,0.71362,2.565,0.733,2.534
2026-05-21 01:48:19.769,1211639225,178769,1,0.79956,-0.15259,-0.82764,-3.511,-2.427,-3.702
2026-05-21 01:48:19.769,1211639225,178769,2,0.91504,-0.16382,0.73633,-4.916,0.786,2.969
2026-05-21 01:48:19.969,1211639425,178969,1,0.79468,-0.12109,-0.8479,-6.611,-1.344,-3.794
2026-05-21 01:48:19.969,1211639425,178969,2,0.90259,-0.15747,0.74146,-1.137,2.733,1.351
2026-05-21 01:48:19.169,1211638625,179169,1,0.79736,-0.12158,-0.83984,1.702,-1.511,-0.351
2026-05-21 01:48:19.169,1211638625,179169,2,0.89893,-0.1626,0.71289,-2.16,0.282,2.985
2026-05-21 01:48:19.369,1211638825,179369,1,0.81641,-0.10645,-0.82568,-1.962,2.74,2.008
2026-05-21 01:48:19.369,1211638825,179369,2,0.89941,-0.18066,0.74487,-6.122,-3.336,-1.275
2026-05-21 01:48:19.569,1211639025,179569,1,0.81128,-0.12744,-0.8208,2.053,0.954,4.412
2026-05-21 01:48:19.569,1211639025,179569,2,0.91211,-0.16382,0.73828,-0.107,-0.481,-4.771
2026-05-21 01:48:20.769,1211640225,179769,1,0.8208,-0.17798,-0.83618,5.794,-0.031,2.252
2026-05-21 01:48:20.769,1211640225,179769,2,0.91821,-0.12573,0.70239,2.321,1.031,-1.588
2026-05-21 01:48:20.013,1211639469,180012,1,0.83594,-0.17969,-0.80078,-3.718,3.344,10.107
2026-05-21 01:48:20.013,1211639469,180012,2,0.89795,-0.13989,0.70679,-8.481,6.412,-4.664
2026-05-21 01:48:20.212,1211639668,180212,1,0.77539,-0.18188,-0.85718,17.397,-3.901,-2.244
2026-05-21 01:48:20.212,1211639668,180212,2,0.86255,-0.12793,0.77808,10.855,-2.305,-10.748
2026-05-21 01:48:20.412,1211639868,180412,1,0.80225,-0.28076,-0.83496,-4.939,-0.336,4.321
2026-05-21 01:48:20.412,1211639868,180412,2,0.91968,-0.06909,0.72314,-1.344,1.573,2.504
2026-05-21 01:48:20.612,1211640068,180612,1,0.802,-0.23779,-0.83081,-9.344,1.038,4.947
2026-05-21 01:48:20.612,1211640068,180612,2,0.92969,-0.06104,0.74219,1.672,1.107,0.779
2026-05-21 01:48:21.812,1211641268,180812,1,0.78857,-0.24536,-0.8418,-0.366,-0.985,0.969
2026-05-21 01:48:21.812,1211641268,180812,2,0.90771,-0.12378,0.73975,-1.626,1.16,2.092
2026-05-21 01:48:24.979,1211644435,183979,1,0.81665,-0.19019,-0.83984,-2.634,1.855,0.305
2026-05-21 01:48:24.979,1211644435,183979,2,0.9104,-0.13013,0.74121,-1.481,0.313,1.122
2026-05-21 01:48:24.179,1211643635,184179,1,0.81201,-0.19214,-0.82251,0.183,2.725,0.038
2026-05-21 01:48:24.179,1211643635,184179,2,0.90698,-0.1228,0.73022,-1.771,-0.122,-0.313
2026-05-21 01:48:24.379,1211643835,184379,1,0.81982,-0.19141,-0.81812,-0.573,1.748,0.985
2026-05-21 01:48:24.379,1211643835,184379,2,0.91357,-0.11816,0.72729,-4.061,-0.282,0.038
2026-05-21 01:48:24.579,1211644035,184579,1,0.82813,-0.22607,-0.8042,-2.893,0.565,0.534
2026-05-21 01:48:24.579,1211644035,184579,2,0.91992,-0.12329,0.7207,-3.191,0.649,1.534
2026-05-21 01:48:25.105,1211644561,185105,1,0.82886,-0.19873,-0.80786,-2.412,-0.679,0.893
2026-05-21 01:48:25.105,1211644561,185105,2,0.91064,-0.11548,0.72314,-2.443,-0.023,0.664
2026-05-21 01:48:25.305,1211644761,185305,1,0.8291,-0.19897,-0.81641,-4.985,-1.305,-0.901
2026-05-21 01:48:25.305,1211644761,185305,2,0.9126,-0.1228,0.73438,-2.618,-0.779,3.511
2026-05-21 01:48:25.505,1211644961,185505,1,0.79468,-0.17334,-0.8562,-0.275,0.313,-0.641
2026-05-21 01:48:25.505,1211644961,185505,2,0.91846,-0.13159,0.66479,1.969,6.527,-1.405
2026-05-21 01:48:26.795,1211646251,185795,1,0.86035,-0.18579,-0.71313,-1.924,-3.58,3.29
2026-05-21 01:48:26.795,1211646251,185795,2,0.88452,-0.10181,0.67358,-0.786,5.076,-1.237
2026-05-21 01:48:26.062,1211645518,186061,1,0.8457,-0.18774,-0.75146,0.939,3.595,1.634
2026-05-21 01:48:26.062,1211645518,186061,2,0.92383,-0.1272,0.72607,1.725,1.534,-1.038
2026-05-21 01:48:26.261,1211645717,186261,1,0.82813,-0.20386,-0.7854,-1.794,2.878,-0.069
2026-05-21 01:48:26.261,1211645717,186261,2,0.91846,-0.13501,0.7251,0.321,1.351,1.718
2026-05-21 01:48:26.461,1211645917,186461,1,0.82642,-0.1792,-0.80591,-2.397,0.397,-2.374
2026-05-21 01:48:26.461,1211645917,186461,2,0.91211,-0.13013,0.74072,1.901,2.267,2.771
2026-05-21 01:48:26.661,1211646117,186661,1,0.81616,-0.18652,-0.82446,-1.206,-1.046,-0.527
2026-05-21 01:48:26.661,1211646117,186661,2,0.91431,-0.13208,0.72632,-0.519,1.458,0.878
2026-05-21 01:48:27.861,1211647317,186861,1,0.82153,-0.19141,-0.8252,-1.45,0.328,0.351
2026-05-21 01:48:27.861,1211647317,186861,2,0.91577,-0.12231,0.73633,-2.733,0.702,0.198
2026-05-21 01:48:27.061,1211646517,187061,1,0.83032,-0.1814,-0.81909,-1.969,1.107,0.519
2026-05-21 01:48:27.061,1211646517,187061,2,0.91382,-0.12671,0.73218,-3.16,0.725,0.603
2026-05-21 01:48:27.261,1211646717,187261,1,0.82275,-0.19092,-0.81421,-1.626,1.275,0.176
2026-05-21 01:48:27.261,1211646717,187261,2,0.91064,-0.12769,0.73682,-1.221,0.328,1.397
2026-05-21 01:48:27.461,1211646917,187461,1,0.82324,-0.19043,-0.8186,-1.389,-0.038,-0.626
2026-05-21 01:48:27.461,1211646917,187461,2,0.91089,-0.1228,0.7312,-2.183,0.504,0.939
2026-05-21 01:48:27.670,1211647126,187670,1,0.82031,-0.18652,-0.82153,-1.573,0.45,-0.588
2026-05-21 01:48:27.670,1211647126,187670,2,0.91064,-0.12476,0.73047,0.382,1.214,1.489
2026-05-21 01:48:28.870,1211648326,187870,1,0.82568,-0.18628,-0.80688,-2.244,-0.74,0.344
2026-05-21 01:48:28.870,1211648326,187870,2,0.90967,-0.12964,0.72485,-1.649,0.702,0.664
2026-05-21 01:48:28.070,1211647526,188070,1,0.82617,-0.18164,-0.80493,-1.282,1.893,-0.267
2026-05-21 01:48:28.070,1211647526,188070,2,0.91479,-0.12939,0.72681,-3.954,-0.527,0.786
2026-05-21 01:48:28.270,1211647726,188270,1,0.82178,-0.18945,-0.8252,-1.748,0.817,0.145
2026-05-21 01:48:28.270,1211647726,188270,2,0.91919,-0.12964,0.7229,-3.244,0.168,0.779
2026-05-21 01:48:28.513,1211647969,188512,1,0.84106,-0.18921,-0.80811,-2.977,0.42,-0.336
2026-05-21 01:48:28.513,1211647969,188512,2,0.92139,-0.13965,0.72412,0.924,0.282,2.244
2026-05-21 01:48:29.712,1211649168,188712,1,0.82202,-0.18823,-0.81543,-0.985,-0.664,0.023
2026-05-21 01:48:29.712,1211649168,188712,2,0.91846,-0.13354,0.71191,-0.771,1.046,1.183
2026-05-21 01:48:29.912,1211649368,188912,1,0.82227,-0.19116,-0.81274,-2.679,0.389,0.672
2026-05-21 01:48:29.912,1211649368,188912,2,0.91968,-0.12402,0.71265,-0.099,2.725,2.061
2026-05-21 01:48:29.112,1211648568,189112,1,0.82178,-0.1958,-0.81006,-2.626,1.725,-0.122
2026-05-21 01:48:29.112,1211648568,189112,2,0.91846,-0.12573,0.73975,-3.298,1.809,1.885
2026-05-21 01:48:29.312,1211648768,189312,1,0.83496,-0.17188,-0.79565,-1.405,4.527,-0.603
2026-05-21 01:48:29.312,1211648768,189312,2,0.92188,-0.1228,0.73022,0.87,-3.038,7.679
2026-05-21 01:48:29.512,1211648968,189512,1,0.84326,-0.19312,-0.7959,-3.832,6.779,-0.389
2026-05-21 01:48:29.512,1211648968,189512,2,0.92749,-0.14893,0.70532,-0.87,-3.931,5.824
2026-05-21 01:48:30.712,1211650168,189712,1,0.88306,-0.19043,-0.74341,-3.023,2.908,0.061
2026-05-21 01:48:30.712,1211650168,189712,2,0.93506,-0.15405,0.6792,-3.313,-1.389,4.557
2026-05-21 01:48:30.912,1211650368,189912,1,0.88477,-0.17456,-0.75732,-3.947,0.771,-0.863
2026-05-21 01:48:30.912,1211650368,189912,2,0.9187,-0.17114,0.7063,-0.191,0.351,1.649
2026-05-21 01:48:30.112,1211649568,190112,1,0.87402,-0.17212,-0.76904,0.229,-0.13,0.359
2026-05-21 01:48:30.112,1211649568,190112,2,0.91138,-0.16577,0.70288,3.305,-0.511,-0.435
2026-05-21 01:48:30.421,1211649877,190421,1,0.86011,-0.16138,-0.77344,-6.87,0.282,-1.13
2026-05-21 01:48:30.421,1211649877,190421,2,0.91748,-0.15649,0.71045,3.237,3.183,-0.344
2026-05-21 01:48:30.621,1211650077,190621,1,0.86011,-0.17822,-0.76343,-4.29,1.099,1.374
2026-05-21 01:48:30.621,1211650077,190621,2,0.91553,-0.17603,0.70947,-0.664,3.038,1.069
2026-05-21 01:48:31.821,1211651277,190821,1,0.87134,-0.1792,-0.76221,-2.962,1.473,0.489
2026-05-21 01:48:31.821,1211651277,190821,2,0.90552,-0.16113,0.71387,-2.046,0.855,0.153
2026-05-21 01:48:31.021,1211650477,191021,1,0.87769,-0.17944,-0.76123,-1.344,1.031,0.389
2026-05-21 01:48:31.021,1211650477,191021,2,0.90283,-0.16846,0.70923,-0.855,0.992,1.0
2026-05-21 01:48:31.221,1211650677,191221,1,0.87109,-0.17798,-0.75806,-0.771,-0.107,-0.305
2026-05-21 01:48:31.221,1211650677,191221,2,0.91626,-0.15552,0.6897,1.863,0.725,1.626
2026-05-21 01:48:31.421,1211650877,191421,1,0.8772,-0.19141,-0.75464,-3.687,-0.618,0.611
2026-05-21 01:48:31.421,1211650877,191421,2,0.91455,-0.1687,0.69995,-1.137,-0.214,2.916
2026-05-21 01:48:31.621,1211651077,191621,1,0.87231,-0.18213,-0.76733,-3.061,-1.328,-0.275
2026-05-21 01:48:31.621,1211651077,191621,2,0.91504,-0.1582,0.70361,0.824,0.908,1.115
2026-05-21 01:48:32.821,1211652277,191821,1,0.86743,-0.1897,-0.76025,-2.0,-0.908,0.611
2026-05-21 01:48:32.821,1211652277,191821,2,0.91968,-0.16455,0.70459,-2.214,0.13,0.878
2026-05-21 01:48:32.021,1211651477,192021,1,0.86108,-0.18433,-0.75952,-2.107,-0.802,0.405
2026-05-21 01:48:32.021,1211651477,192021,2,0.91821,-0.16016,0.70337,0.893,1.26,1.87
2026-05-21 01:48:32.318,1211651774,192318,1,0.86621,-0.18262,-0.7688,-2.321,0.015,0.137
2026-05-21 01:48:32.318,1211651774,192318,2,0.9104,-0.15991,0.70117,-1.038,1.122,1.817
2026-05-21 01:48:32.518,1211651974,192518,1,0.86523,-0.17847,-0.77148,-1.885,0.718,-0.244
2026-05-21 01:48:32.518,1211651974,192518,2,0.9209,-0.16455,0.69971,-2.45,1.611,1.015
2026-05-21 01:48:33.718,1211653174,192718,1,0.86597,-0.17578,-0.7666,-1.969,1.55,0.374
2026-05-21 01:48:33.718,1211653174,192718,2,0.91089,-0.16919,0.69678,-2.359,0.45,1.397
2026-05-21 01:48:33.918,1211653374,192918,1,0.87207,-0.18066,-0.75439,-2.031,-0.191,0.061
2026-05-21 01:48:33.918,1211653374,192918,2,0.92212,-0.16528,0.69409,-0.076,1.336,1.679
2026-05-21 01:48:33.118,1211652574,193118,1,0.86548,-0.18286,-0.76782,-1.786,-0.008,-0.137
2026-05-21 01:48:33.118,1211652574,193118,2,0.91333,-0.16528,0.69995,1.16,1.725,1.038
2026-05-21 01:48:33.324,1211652780,193324,1,0.86841,-0.17334,-0.7605,-1.573,0.45,0.771
2026-05-21 01:48:33.324,1211652780,193324,2,0.91138,-0.16699,0.70386,-1.427,1.183,1.405
2026-05-21 01:48:33.524,1211652980,193524,1,0.86035,-0.18188,-0.76538,-0.855,0.908,0.046
2026-05-21 01:48:33.524,1211652980,193524,2,0.9104,-0.17139,0.71143,-2.038,0.42,0.542
2026-05-21 01:48:34.724,1211654180,193724,1,0.85791,-0.18335,-0.77808,-1.733,0.794,-0.069
2026-05-21 01:48:34.724,1211654180,193724,2,0.91211,-0.16333,0.70776,-2.809,0.847,0.336
2026-05-21 01:48:34.924,1211654380,193924,1,0.86841,-0.18408,-0.75806,-1.977,0.466,-0.084
2026-05-21 01:48:34.924,1211654380,193924,2,0.9165,-0.15674,0.70044,-1.695,0.947,0.84
2026-05-21 01:48:34.124,1211653580,194124,1,0.86768,-0.18384,-0.76782,-2.336,-0.298,0.344
2026-05-21 01:48:34.124,1211653580,194124,2,0.91577,-0.16357,0.698,-0.427,1.611,0.672
2026-05-21 01:48:40.993,1211660449,199993,1,0.87109,-0.17432,-0.75781,-2.023,0.588,0.115
2026-05-21 01:48:40.993,1211660449,199993,2,0.91309,-0.17993,0.69067,-1.366,1.198,0.786
2026-05-21 01:48:40.389,1211659845,200389,1,0.87061,-0.17212,-0.75879,-1.435,0.115,0.42
2026-05-21 01:48:40.389,1211659845,200389,2,0.91553,-0.17871,0.70386,-0.206,0.542,1.061
2026-05-21 01:48:40.589,1211660045,200589,1,0.85718,-0.17358,-0.75952,-4.817,-2.466,2.672
2026-05-21 01:48:40.589,1211660045,200589,2,0.89429,-0.16992,0.73462,1.16,-2.374,2.13
2026-05-21 01:48:43.651,1211663107,203651,1,0.73071,-0.24121,-0.91577,-1.076,-0.244,-0.611
2026-05-21 01:48:43.651,1211663107,203651,2,0.96094,-0.22876,0.55786,-4.702,-2.756,-0.237
2026-05-21 01:48:44.851,1211664307,203851,1,0.7417,-0.23267,-0.90723,-2.405,-0.374,0.725
2026-05-21 01:48:44.851,1211664307,203851,2,0.94482,-0.18311,0.56226,-1.519,-2.176,3.053
2026-05-21 01:48:44.051,1211663507,204051,1,0.74805,-0.22461,-0.90625,-1.55,-1.824,0.802
2026-05-21 01:48:44.051,1211663507,204051,2,0.89893,-0.11108,0.53589,3.679,-1.931,-0.626
2026-05-21 01:48:44.251,1211663707,204251,1,0.73169,-0.22412,-0.90479,-1.252,-4.275,2.397
2026-05-21 01:48:44.251,1211663707,204251,2,0.93018,-0.18115,0.56714,-4.817,-2.649,1.015
2026-05-21 01:48:44.451,1211663907,204451,1,0.7124,-0.24414,-0.92285,-1.061,-4.863,2.71
2026-05-21 01:48:44.451,1211663907,204451,2,0.91406,-0.19507,0.5,-1.885,0.366,-1.771
2026-05-21 01:48:44.653,1211664109,204653,1,0.69409,-0.23682,-0.94287,-1.748,-6.908,2.908
2026-05-21 01:48:44.653,1211664109,204653,2,0.81592,-0.30737,0.72998,7.511,15.588,2.656
2026-05-21 01:48:45.853,1211665309,204853,1,0.63159,-0.25,-0.93823,0.725,-3.336,0.122
2026-05-21 01:48:45.853,1211665309,204853,2,0.94214,-0.16406,0.53833,0.305,5.42,0.977
2026-05-21 01:48:45.053,1211664509,205053,1,0.68726,-0.26196,-0.9585,-1.573,-0.626,-0.496
2026-05-21 01:48:45.053,1211664509,205053,2,0.96021,-0.1731,0.55688,-4.756,-7.893,0.267
2026-05-21 01:48:45.253,1211664709,205253,1,0.66333,-0.24316,-0.94141,-1.267,-3.344,-0.221
2026-05-21 01:48:45.253,1211664709,205253,2,0.9165,-0.18506,0.60669,7.092,12.55,0.382
2026-05-21 01:48:45.453,1211664909,205453,1,0.65625,-0.25806,-0.9646,-2.962,-2.542,0.321
2026-05-21 01:48:45.453,1211664909,205453,2,0.94238,-0.15991,0.53687,0.13,3.046,1.779
2026-05-21 01:48:48.478,1211667934,208478,1,0.68359,-0.30493,-1.00439,-10.107,6.237,-2.511
2026-05-21 01:48:48.478,1211667934,208478,2,0.94067,-0.16113,0.56567,2.275,13.992,-2.718
2026-05-21 01:48:48.678,1211668134,208678,1,0.73975,-0.24316,-0.91211,-13.855,26.496,-6.519
2026-05-21 01:48:48.678,1211668134,208678,2,0.92993,-0.15259,0.63574,8.618,13.336,4.351
2026-05-21 01:48:49.878,1211669334,208878,1,0.7937,-0.19531,-0.83105,-5.908,28.389,-7.214
2026-05-21 01:48:49.878,1211669334,208878,2,0.92871,-0.15527,0.66528,2.58,8.672,9.45
2026-05-21 01:48:49.078,1211668534,209078,1,0.87183,-0.17725,-0.75073,-4.908,20.763,-3.099
2026-05-21 01:48:49.078,1211668534,209078,2,0.95117,-0.17651,0.71558,-1.389,1.267,8.427
2026-05-21 01:48:49.278,1211668734,209278,1,0.94385,-0.1731,-0.75122,-1.397,6.504,-3.069
2026-05-21 01:48:49.278,1211668734,209278,2,0.90674,-0.21777,0.67261,-3.351,8.947,1.504
2026-05-21 01:48:49.478,1211668934,209478,1,0.9126,-0.16138,-0.71069,-1.267,9.832,-3.084
2026-05-21 01:48:49.478,1211668934,209478,2,0.86938,-0.22607,0.7002,1.779,-3.008,7.244
2026-05-21 01:48:49.678,1211669134,209678,1,0.93066,-0.15918,-0.67627,2.954,15.191,-1.336
2026-05-21 01:48:49.678,1211669134,209678,2,0.88794,-0.23315,0.63867,-2.42,6.756,8.527
2026-05-21 01:48:50.878,1211670334,209878,1,0.94067,-0.1665,-0.64502,-4.916,6.336,-0.351
2026-05-21 01:48:50.878,1211670334,209878,2,0.90601,-0.24707,0.69019,-0.916,-0.557,2.969
2026-05-21 01:48:50.078,1211669534,210078,1,0.96558,-0.16113,-0.63501,0.122,-0.969,0.382
2026-05-21 01:48:50.078,1211669534,210078,2,0.9187,-0.26123,0.64795,1.374,-0.374,1.191
2026-05-21 01:48:50.320,1211669776,210320,1,0.95923,-0.1521,-0.63354,-1.786,1.794,-1.382
2026-05-21 01:48:50.320,1211669776,210320,2,0.89478,-0.25488,0.67651,0.481,3.962,2.58
2026-05-21 01:48:50.520,1211669976,210520,1,0.94897,-0.14868,-0.63745,-2.443,0.107,-0.87
2026-05-21 01:48:50.520,1211669976,210520,2,0.89526,-0.26953,0.69751,1.015,2.313,3.191
2026-05-21 01:48:51.720,1211671176,210720,1,0.95703,-0.13916,-0.63281,-1.947,1.962,-0.939
2026-05-21 01:48:51.720,1211671176,210720,2,0.89307,-0.25317,0.69751,0.519,1.771,2.26
2026-05-21 01:48:51.920,1211671376,210920,1,0.95435,-0.14795,-0.63745,-1.275,-0.366,-0.687
2026-05-21 01:48:51.920,1211671376,210920,2,0.91089,-0.27319,0.75757,-1.244,0.527,2.687
2026-05-21 01:48:51.120,1211670576,211120,1,0.9375,-0.13647,-0.6543,1.878,-1.366,-1.344
2026-05-21 01:48:51.120,1211670576,211120,2,0.89551,-0.23291,0.68506,1.321,-1.092,1.382
2026-05-21 01:48:54.932,1211674388,213932,1,0.90552,-0.17114,-0.70264,-1.947,-0.679,0.908
2026-05-21 01:48:54.932,1211674388,213932,2,0.90405,-0.23755,0.6875,-3.115,-0.534,0.221
2026-05-21 01:48:57.034,1211676490,217034,1,0.90894,-0.16064,-0.70508,-2.679,-0.168,0.473
2026-05-21 01:48:57.034,1211676490,217034,2,0.90234,-0.24243,0.69043,-0.832,0.878,1.435
2026-05-21 01:48:57.234,1211676690,217234,1,0.91846,-0.16675,-0.70313,-1.603,1.084,0.084
2026-05-21 01:48:57.234,1211676690,217234,2,0.90161,-0.23926,0.69409,-0.282,1.481,1.672
2026-05-21 01:48:57.434,1211676890,217434,1,0.91333,-0.16235,-0.69727,-1.206,1.107,-0.519
2026-05-21 01:48:57.434,1211676890,217434,2,0.89844,-0.2395,0.69434,0.115,3.466,1.748
2026-05-21 01:48:57.634,1211677090,217634,1,0.91333,-0.1626,-0.68799,-1.817,0.542,0.168
2026-05-21 01:48:57.634,1211677090,217634,2,0.90063,-0.23511,0.68774,0.137,2.031,1.847
2026-05-21 01:48:58.898,1211678354,217898,1,0.91333,-0.16479,-0.69604,-1.718,0.55,0.153
2026-05-21 01:48:58.898,1211678354,217898,2,0.89697,-0.23608,0.70313,-1.366,0.802,0.901
2026-05-21 01:48:58.098,1211677554,218098,1,0.91504,-0.16602,-0.69922,-1.992,1.076,0.221
2026-05-21 01:48:58.098,1211677554,218098,2,0.89819,-0.24146,0.70508,-0.527,2.389,1.328
2026-05-21 01:48:58.298,1211677754,218298,1,0.91284,-0.16675,-0.69604,-0.366,0.061,-0.473
2026-05-21 01:48:58.298,1211677754,218298,2,0.90259,-0.24097,0.69214,-0.916,1.489,1.511
2026-05-21 01:48:58.498,1211677954,218498,1,0.91089,-0.16675,-0.69385,-2.504,0.107,0.176
2026-05-21 01:48:58.498,1211677954,218498,2,0.89941,-0.24341,0.68896,,0.641,1.672
2026-05-21 01:48:58.698,1211678154,218698,1,0.91284,-0.1709,-0.69702,-2.206,0.588,1.672
2026-05-21 01:48:58.698,1211678154,218698,2,0.90088,-0.23706,0.67847,-2.786,0.794,-0.046
2026-05-21 01:48:59.905,1211679361,218905,1,0.90674,-0.18066,-0.69409,-0.168,-0.565,-0.145
2026-05-21 01:48:59.905,1211679361,218905,2,0.9043,-0.23535,0.68066,-3.641,-0.374,-0.656
2026-05-21 01:48:59.105,1211678561,219105,1,0.92236,-0.16968,-0.70117,-2.16,-0.092,0.26
2026-05-21 01:48:59.105,1211678561,219105,2,0.91309,-0.24512,0.62061,2.672,-1.069,0.656
2026-05-21 01:48:59.305,1211678761,219305,1,0.9082,-0.16895,-0.69678,-3.473,1.16,-0.427
2026-05-21 01:48:59.305,1211678761,219305,2,0.90332,-0.23364,0.67505,0.305,0.496,2.328
2026-05-21 01:48:59.505,1211678961,219505,1,0.90674,-0.16699,-0.71069,-2.031,0.153,-0.863
2026-05-21 01:48:59.505,1211678961,219505,2,0.90503,-0.2334,0.68506,-2.137,0.473,0.679
2026-05-21 01:48:59.705,1211679161,219705,1,0.90918,-0.17188,-0.70361,-2.084,0.366,0.611
2026-05-21 01:48:59.705,1211679161,219705,2,0.90576,-0.23608,0.67334,-0.084,2.305,1.832
2026-05-21 01:49:00.905,1211680361,219905,1,0.91406,-0.17212,-0.70728,-1.931,0.725,0.389
2026-05-21 01:49:00.905,1211680361,219905,2,0.89893,-0.23462,0.68481,-1.664,0.458,0.511
2026-05-21 01:49:00.105,1211679561,220105,1,0.90723,-0.17114,-0.70728,-1.336,0.557,1.038
2026-05-21 01:49:00.105,1211679561,220105,2,0.89795,-0.22827,0.69312,-1.206,1.275,0.87
2026-05-21 01:49:00.305,1211679761,220305,1,0.90796,-0.16821,-0.71411,-1.382,0.779,0.802
2026-05-21 01:49:00.305,1211679761,220305,2,0.91016,-0.22534,0.69189,-0.107,1.954,1.603
2026-05-21 01:49:00.505,1211679961,220505,1,0.9104,-0.1748,-0.71704,-2.16,-0.107,0.893
2026-05-21 01:49:00.505,1211679961,220505,2,0.89844,-0.23413,0.68799,-0.321,1.527,1.473
2026-05-21 01:49:00.705,1211680161,220705,1,0.90479,-0.1853,-0.71289,-1.908,-0.649,0.557
2026-05-21 01:49:00.705,1211680161,220705,2,0.89917,-0.22729,0.67847,1.565,1.023,2.763
2026-05-21 01:49:01.905,1211681361,220905,1,0.91357,-0.19043,-0.68701,-2.794,-1.458,-0.305
2026-05-21 01:49:01.905,1211681361,220905,2,0.9021,-0.21436,0.72949,9.71,-1.718,1.214
2026-05-21 01:49:01.105,1211680561,221105,1,0.8877,-0.18799,-0.74292,-5.061,-18.145,3.504
2026-05-21 01:49:01.105,1211680561,221105,2,0.90088,-0.24902,0.62891,-20.458,-18.702,1.794
2026-05-21 01:49:01.305,1211680761,221305,1,0.85547,-0.15942,-0.77075,1.74,-20.924,1.733
2026-05-21 01:49:01.305,1211680761,221305,2,0.89014,-0.23218,0.54858,-38.664,-32.809,6.618
2026-05-21 01:49:01.505,1211680961,221505,1,0.79712,-0.20898,-0.89453,8.29,-17.053,2.29
2026-05-21 01:49:01.505,1211680961,221505,2,0.91162,-0.29883,0.46094,-4.565,-5.832,-0.763
2026-05-21 01:49:04.643,1211684099,224643,1,0.75806,-0.27637,-0.8877,-0.008,0.893,0.183
2026-05-21 01:49:04.643,1211684099,224643,2,0.93921,-0.24463,0.42407,-0.725,1.008,1.855
2026-05-21 01:49:05.843,1211685299,224843,1,0.75171,-0.26074,-0.87036,-2.611,0.878,-0.656
2026-05-21 01:49:05.843,1211685299,224843,2,0.93555,-0.24585,0.45508,1.176,4.763,1.573
2026-05-21 01:49:05.043,1211684499,225043,1,0.73022,-0.25854,-0.86548,-0.962,2.206,-1.435
2026-05-21 01:49:05.043,1211684499,225043,2,0.93677,-0.23535,0.45972,2.229,4.863,2.626
2026-05-21 01:49:05.243,1211684699,225243,1,0.73877,-0.24365,-0.87036,-0.275,2.183,-1.626
2026-05-21 01:49:05.243,1211684699,225243,2,0.94067,-0.24072,0.45288,2.053,5.641,1.527
2026-05-21 01:49:05.474,1211684930,225474,1,0.7373,-0.25488,-0.86548,-0.962,1.031,-1.405
2026-05-21 01:49:05.474,1211684930,225474,2,0.93311,-0.23877,0.45728,1.038,3.573,2.458
2026-05-21 01:49:05.674,1211685130,225674,1,0.75146,-0.24805,-0.87695,-1.321,2.504,-1.145
2026-05-21 01:49:05.674,1211685130,225674,2,0.9375,-0.23901,0.45703,1.527,4.885,1.504
2026-05-21 01:49:06.874,1211686330,225874,1,0.7627,-0.25342,-0.86353,-0.55,1.229,-1.16
2026-05-21 01:49:06.874,1211686330,225874,2,0.93457,-0.23315,0.4519,-1.885,-0.321,0.29
2026-05-21 01:49:06.074,1211685530,226074,1,0.76172,-0.2478,-0.86084,-4.176,-1.885,0.412
2026-05-21 01:49:06.074,1211685530,226074,2,0.93774,-0.23975,0.4519,-0.947,0.053,1.992
2026-05-21 01:49:06.274,1211685730,226274,1,0.75781,-0.24414,-0.88647,-2.718,-1.863,0.542
2026-05-21 01:49:06.274,1211685730,226274,2,0.92651,-0.24707,0.50024,-2.664,2.725,-1.656
2026-05-21 01:49:06.474,1211685930,226474,1,0.74976,-0.25635,-0.87622,0.252,0.992,0.611
2026-05-21 01:49:06.474,1211685930,226474,2,0.94067,-0.23096,0.45923,-0.504,2.397,-0.473
2026-05-21 01:49:06.674,1211686130,226674,1,0.74902,-0.26489,-0.87646,-2.641,0.855,0.252
2026-05-21 01:49:06.674,1211686130,226674,2,0.93628,-0.22314,0.4458,-0.809,1.412,1.084
2026-05-21 01:49:07.874,1211687330,226874,1,0.75,-0.25977,-0.86133,-2.282,1.176,0.496
2026-05-21 01:49:07.874,1211687330,226874,2,0.93921,-0.22754,0.46777,-0.611,1.267,2.084
2026-05-21 01:49:07.074,1211686530,227074,1,0.75391,-0.25757,-0.87671,-2.458,0.305,0.496
2026-05-21 01:49:07.074,1211686530,227074,2,0.93726,-0.22729,0.45679,-1.107,0.664,1.58
2026-05-21 01:49:07.493,1211686949,227493,1,0.74585,-0.2478,-0.89087,-1.237,-0.115,-0.084
2026-05-21 01:49:07.493,1211686949,227493,2,0.94336,-0.22949,0.45215,-1.626,0.969,1.137
2026-05-21 01:49:07.693,1211687149,227693,1,0.74365,-0.25342,-0.8772,-1.275,0.664,0.313
2026-05-21 01:49:07.693,1211687149,227693,2,0.93506,-0.22119,0.45166,-0.427,2.58,1.542
2026-05-21 01:49:08.893,1211688349,227893,1,0.74268,-0.2644,-0.88135,-1.412,0.687,-0.176
2026-05-21 01:49:08.893,1211688349,227893,2,0.94189,-0.23193,0.45557,-0.863,1.832,1.435
2026-05-21 01:49:08.093,1211687549,228093,1,0.75854,-0.26001,-0.87549,-2.282,0.641,-0.328
2026-05-21 01:49:08.093,1211687549,228093,2,0.94092,-0.229,0.45215,0.374,2.282,1.756
2026-05-21 01:49:08.293,1211687749,228293,1,0.75952,-0.25415,-0.86401,-2.916,0.023,0.115
2026-05-21 01:49:08.293,1211687749,228293,2,0.93774,-0.23315,0.46265,-0.634,1.359,1.183
2026-05-21 01:49:08.493,1211687949,228493,1,0.74854,-0.25415,-0.87598,-2.092,-1.0,0.573
2026-05-21 01:49:08.493,1211687949,228493,2,0.94385,-0.23145,0.45581,-0.336,1.153,1.359
2026-05-21 01:49:08.693,1211688149,228693,1,0.74585,-0.25952,-0.8833,-2.748,-0.992,0.626
2026-05-21 01:49:08.693,1211688149,228693,2,0.94385,-0.23901,0.45654,-0.802,1.046,1.229
2026-05-21 01:49:09.893,1211689349,228893,1,0.7439,-0.25659,-0.88013,-1.87,0.679,0.015
2026-05-21 01:49:09.893,1211689349,228893,2,0.94263,-0.2356,0.47412,-1.603,-0.008,1.969
2026-05-21 01:49:09.093,1211688549,229093,1,0.7439,-0.24951,-0.87939,-1.527,0.863,-0.336
2026-05-21 01:49:09.093,1211688549,229093,2,0.93994,-0.23779,0.46436,-1.107,-1.779,0.847
2026-05-21 01:49:09.312,1211688768,229312,1,0.74634,-0.24609,-0.8938,22.763,0.557,-6.588
2026-05-21 01:49:09.312,1211688768,229312,2,0.93481,-0.21704,0.44727,-4.298,-9.466,-3.511
2026-05-21 01:49:09.512,1211688968,229512,1,0.74634,-0.2771,-0.86499,-2.626,0.359,-1.221
2026-05-21 01:49:09.512,1211688968,229512,2,0.93262,-0.22778,0.43457,-1.916,0.046,1.901
2026-05-21 01:49:10.712,1211690168,229712,1,0.75317,-0.26221,-0.86108,-3.092,1.489,0.985
2026-05-21 01:49:10.712,1211690168,229712,2,0.94775,-0.2251,0.43677,-1.038,2.206,1.542
2026-05-21 01:49:10.912,1211690368,229912,1,0.76318,-0.2876,-0.9248,-9.794,2.763,-0.809
2026-05-21 01:49:10.912,1211690368,229912,2,0.98389,-0.27344,0.47803,16.626,24.321,-14.176
2026-05-21 01:49:10.112,1211689568,230112,1,0.75195,-0.22119,-0.84619,-6.916,21.298,-3.107
2026-05-21 01:49:10.112,1211689568,230112,2,0.90283,-0.23022,0.6814,1.527,2.198,2.069
2026-05-21 01:49:13.931,1211693387,232931,1,0.97681,-0.15308,-0.6084,-2.046,2.244,1.031
2026-05-21 01:49:13.931,1211693387,232931,2,0.90894,-0.2439,0.66357,1.87,4.305,2.634
2026-05-21 01:49:13.147,1211692603,233147,1,0.97046,-0.15308,-0.61108,-2.611,0.55,0.26
2026-05-21 01:49:13.147,1211692603,233147,2,0.90869,-0.23608,0.66968,-0.313,0.649,1.229
2026-05-21 01:49:13.347,1211692803,233347,1,0.97339,-0.15479,-0.59937,-1.527,-0.931,1.298
2026-05-21 01:49:13.347,1211692803,233347,2,0.90234,-0.23975,0.6792,-0.137,1.687,1.664
2026-05-21 01:49:13.547,1211693003,233547,1,0.96704,-0.15601,-0.60889,-1.702,-1.725,1.069
2026-05-21 01:49:13.547,1211693003,233547,2,0.90649,-0.24121,0.66479,-1.534,0.748,0.649
2026-05-21 01:49:14.747,1211694203,233747,1,0.9668,-0.16284,-0.61035,-1.588,-2.58,0.053
2026-05-21 01:49:14.747,1211694203,233747,2,0.90625,-0.23999,0.66016,1.221,1.366,2.794
2026-05-21 01:49:14.947,1211694403,233947,1,0.9624,-0.16504,-0.62158,-1.374,-1.412,-0.305
2026-05-21 01:49:14.947,1211694403,233947,2,0.90332,-0.24536,0.66187,-0.809,1.573,1.687
2026-05-21 01:49:14.147,1211693603,234147,1,0.95728,-0.16138,-0.62231,-2.527,1.031,-0.305
2026-05-21 01:49:14.147,1211693603,234147,2,0.9082,-0.24365,0.66772,0.053,2.359,2.527
2026-05-21 01:49:14.347,1211693803,234347,1,0.96069,-0.15527,-0.61743,-2.137,0.405,-0.947
2026-05-21 01:49:14.347,1211693803,234347,2,0.9021,-0.24268,0.66553,-1.076,0.969,1.458
2026-05-21 01:49:14.547,1211694003,234547,1,0.96045,-0.15234,-0.62085,-2.076,0.649,-0.71
2026-05-21 01:49:14.547,1211694003,234547,2,0.91309,-0.24072,0.66333,-1.481,-0.672,1.046
2026-05-21 01:49:15.747,1211695203,234747,1,0.96362,-0.15479,-0.61646,-2.313,-1.076,1.328
2026-05-21 01:49:15.747,1211695203,234747,2,0.90747,-0.24341,0.6687,0.634,-0.282,2.786
2026-05-21 01:49:15.960,1211695416,234960,1,0.9458,-0.14551,-0.62891,-1.786,-6.359,1.397
2026-05-21 01:49:15.960,1211695416,234960,2,0.89282,-0.25171,0.64966,-1.244,-3.954,0.092
2026-05-21 01:49:15.160,1211694616,235160,1,0.92944,-0.15942,-0.65625,2.176,-7.092,-0.298
2026-05-21 01:49:15.160,1211694616,235160,2,0.90674,-0.25366,0.64941,0.603,0.145,1.321
2026-05-21 01:49:15.360,1211694816,235360,1,0.91089,-0.16943,-0.66211,-3.053,-0.183,-0.779
