datetime,epoch_ms,ts_millis,mpu_id,ax,ay,az,gx,gy,gz
2026-05-22T15:34:54.816697,,,,,,,,,
2026-05-22 15:34:53.346,1347632802,8346,1,0.41992,-0.91235,-0.47144,-1.595,0.595,0.076
2026-05-22 15:34:53.346,1347632802,8346,2,0.6084,-0.60474,0.86548,-1.229,0.985,1.344
2026-05-22 15:34:53.546,1347633002,8546,1,0.4231,-0.91211,-0.47632,-2.107,0.29,-0.084
2026-05-22 15:34:53.546,1347633002,8546,2,0.60278,-0.60962,0.87329,-1.229,1.061,1.45
2026-05-22 15:34:54.746,1347634202,8746,1,0.42334,-0.90967,-0.4646,-1.863,0.542,-0.008
2026-05-22 15:34:54.746,1347634202,8746,2,0.60449,-0.61328,0.87305,-1.206,1.176,1.313
2026-05-22 15:34:55.578,1347635034,9577,1,0.41992,-0.90869,-0.47827,-1.985,0.084,-0.191
2026-05-22 15:34:55.578,1347635034,9577,2,0.60181,-0.61279,0.87646,-1.183,0.901,1.328
2026-05-22 15:34:55.831,1347635287,9831,1,0.42114,-0.9104,-0.47046,-1.733,0.321,-0.069
2026-05-22 15:34:55.831,1347635287,9831,2,0.60229,-0.61426,0.87183,-1.023,1.115,1.252
2026-05-22 15:34:55.117,1347634573,10117,1,0.41577,-0.90649,-0.47095,-1.885,0.183,-0.031
2026-05-22 15:34:55.117,1347634573,10117,2,0.60522,-0.60571,0.87085,-1.198,0.931,1.221
2026-05-22 15:34:55.317,1347634773,10317,1,0.42114,-0.90771,-0.47046,-1.817,0.336,-0.038
2026-05-22 15:34:55.317,1347634773,10317,2,0.60571,-0.60791,0.87085,-1.008,1.176,1.412
2026-05-22 15:34:56.563,1347636019,10562,1,0.4187,-0.91064,-0.47339,-1.71,0.359,
2026-05-22 15:34:56.563,1347636019,10562,2,0.60327,-0.61255,0.88379,-1.13,1.008,1.382
2026-05-22 15:34:56.762,1347636218,10762,1,0.41284,-0.9126,-0.4834,-1.679,0.168,-0.153
2026-05-22 15:34:56.762,1347636218,10762,2,0.61035,-0.60962,0.87329,-1.084,1.237,1.26
2026-05-22T15:34:58.073488,,,,,,,,,
2026-05-22 15:34:56.256,1347635712,11256,1,0.42041,-0.91431,-0.47827,-1.878,0.374,0.023
2026-05-22 15:34:56.256,1347635712,11256,2,0.60742,-0.6106,0.87036,-1.275,1.008,1.252
2026-05-22 15:34:57.061,1347636517,12061,1,0.41382,-0.90308,-0.48389,-1.626,0.618,0.092
2026-05-22 15:34:57.061,1347636517,12061,2,0.60425,-0.61011,0.87744,-1.122,1.122,1.198
2026-05-22 15:34:57.475,1347636931,12475,1,0.41992,-0.91089,-0.48242,-1.58,0.412,0.046
2026-05-22 15:34:57.475,1347636931,12475,2,0.60425,-0.61157,0.87939,-1.015,1.076,1.359
2026-05-22 15:34:58.106,1347637562,13106,1,0.41699,-0.9104,-0.47632,-1.84,0.695,0.015
2026-05-22 15:34:58.106,1347637562,13106,2,0.60596,-0.61572,0.87598,-1.053,0.947,1.542
2026-05-22 15:34:58.424,1347637880,13424,1,0.41528,-0.91064,-0.4707,-1.771,0.229,-0.053
2026-05-22 15:34:58.424,1347637880,13424,2,0.60669,-0.6123,0.87109,-1.168,0.901,1.489
2026-05-22 15:34:59.641,1347639097,13641,1,0.41553,-0.91284,-0.47559,-1.496,0.344,0.015
2026-05-22 15:34:59.641,1347639097,13641,2,0.604,-0.61353,0.8811,-0.931,0.733,1.405
2026-05-22 15:34:59.841,1347639297,13841,1,0.41626,-0.91064,-0.47778,-1.817,0.13,-0.13
2026-05-22 15:34:59.841,1347639297,13841,2,0.60156,-0.60815,0.86963,-1.115,1.084,1.45
2026-05-22 15:34:59.041,1347638497,14041,1,0.41772,-0.90479,-0.46924,-1.863,0.26,0.092
2026-05-22 15:34:59.041,1347638497,14041,2,0.60474,-0.60767,0.8728,-1.076,0.985,1.214
2026-05-22 15:34:59.241,1347638697,14241,1,0.41992,-0.90723,-0.46509,-1.817,0.42,0.015
2026-05-22 15:34:59.241,1347638697,14241,2,0.604,-0.6106,0.86597,-1.221,1.115,1.084
2026-05-22 15:34:59.441,1347638897,14441,1,0.41699,-0.90674,-0.47461,-1.679,0.305,0.046
2026-05-22 15:34:59.441,1347638897,14441,2,0.60669,-0.6106,0.87036,-1.046,1.023,1.221
2026-05-22 15:35:00.215,1347639671,15215,1,0.41162,-0.90894,-0.4751,-1.885,0.466,0.076
2026-05-22 15:35:00.215,1347639671,15215,2,0.60645,-0.60596,0.8833,-1.015,1.145,1.328
2026-05-22 15:35:00.482,1347639938,15482,1,0.4165,-0.91162,-0.46753,-1.87,0.191,0.023
2026-05-22 15:35:00.482,1347639938,15482,2,0.61133,-0.60938,0.88599,-1.672,-0.122,2.267
2026-05-22T16:01:21.799755,,,,,,,,,
2026-05-22 16:01:20.456,1349219912,7456,1,0.89941,-0.07104,0.37476,-18.611,-2.45,-24.252
2026-05-22 16:01:20.456,1349219912,7456,2,0.94727,0.31396,0.44482,-14.137,-4.229,2.466
2026-05-22 16:01:20.656,1349220112,7656,1,0.93701,-0.09961,0.33447,-19.618,5.191,-24.176
2026-05-22 16:01:20.656,1349220112,7656,2,0.92212,0.29395,0.39771,-27.26,0.863,2.664
2026-05-22 16:01:21.856,1349221312,7856,1,0.86035,-0.07202,0.35645,-19.061,7.076,-25.649
2026-05-22 16:01:21.856,1349221312,7856,2,0.94995,0.26074,0.44092,-15.977,3.985,0.611
2026-05-22 16:01:21.056,1349220512,8056,1,0.9248,0.0332,0.35352,4.855,7.58,-10.053
2026-05-22 16:01:21.056,1349220512,8056,2,0.90747,0.32007,0.4187,0.16,0.344,-2.092
2026-05-22 16:01:21.256,1349220712,8256,1,0.91748,0.0835,0.3999,0.656,-3.023,0.786
2026-05-22 16:01:21.256,1349220712,8256,2,0.91724,0.31641,0.45654,15.855,-13.962,-8.252
2026-05-22 16:01:21.456,1349220912,8456,1,0.90845,0.06909,0.38135,8.427,-8.198,1.817
2026-05-22 16:01:21.456,1349220912,8456,2,0.89722,0.44019,0.48975,37.443,-1.695,-3.611
2026-05-22 16:01:21.656,1349221112,8656,1,0.93286,0.11987,0.33228,2.031,-12.466,-5.863
2026-05-22 16:01:21.656,1349221112,8656,2,0.94238,0.27979,0.38721,-20.366,3.229,6.031
2026-05-22 16:01:22.856,1349222312,8856,1,0.92236,0.14038,0.29199,-15.779,-15.389,-8.466
2026-05-22 16:01:22.856,1349222312,8856,2,0.92798,0.36768,0.39917,3.832,-9.099,-1.756
2026-05-22 16:01:22.056,1349221512,9056,1,1.02124,-0.01221,0.1582,4.0,-15.031,-13.817
2026-05-22 16:01:22.056,1349221512,9056,2,0.95825,0.32422,0.41724,43.893,-12.275,-6.519
2026-05-22 16:01:22.256,1349221712,9256,1,0.97461,0.19458,0.18994,17.412,-2.954,10.618
2026-05-22 16:01:22.256,1349221712,9256,2,0.90747,0.39771,0.323,32.023,13.611,8.282
2026-05-22 16:01:22.456,1349221912,9456,1,1.09326,0.10034,0.16626,0.481,-1.481,-1.015
2026-05-22 16:01:22.456,1349221912,9456,2,0.83911,0.3811,0.25806,-10.153,1.954,-3.847
2026-05-22 16:01:22.656,1349222112,9656,1,0.96631,0.16772,0.18604,7.069,-0.756,3.328
2026-05-22 16:01:22.656,1349222112,9656,2,0.90747,0.36182,0.27539,3.702,-2.786,1.176
2026-05-22 16:01:23.856,1349223312,9856,1,0.97852,0.15137,0.1875,-4.069,-2.176,-4.29
2026-05-22 16:01:23.856,1349223312,9856,2,0.93457,0.37158,0.31567,9.992,4.824,7.282
2026-05-22 16:01:23.056,1349222512,10056,1,1.02246,0.17432,0.19238,-10.359,0.511,-6.87
2026-05-22 16:01:23.056,1349222512,10056,2,0.90918,0.34692,0.35229,-9.435,7.412,7.794
2026-05-22 16:01:23.256,1349222712,10256,1,0.98169,0.19043,0.15967,-7.969,1.405,-6.733
2026-05-22 16:01:23.256,1349222712,10256,2,0.90161,0.35156,0.30688,-6.305,2.763,3.611
2026-05-22 16:01:23.456,1349222912,10456,1,0.97729,0.17163,0.19336,4.695,2.206,3.053
2026-05-22 16:01:23.456,1349222912,10456,2,0.95801,0.31079,0.28735,15.061,-1.802,1.649
2026-05-22 16:01:23.656,1349223112,10656,1,0.99341,0.20264,0.17456,1.87,-0.443,2.443
2026-05-22 16:01:23.656,1349223112,10656,2,0.89038,0.36401,0.31396,3.275,1.42,3.603
2026-05-22 16:01:24.856,1349224312,10856,1,0.99292,0.18286,0.20459,-3.275,-1.29,-1.527
2026-05-22 16:01:24.856,1349224312,10856,2,0.89209,0.354,0.26758,-12.191,2.969,0.824
2026-05-22 16:01:24.056,1349223512,11056,1,0.96875,0.19067,0.17676,-5.122,-1.679,-3.237
2026-05-22 16:01:24.056,1349223512,11056,2,0.90479,0.34277,0.28101,-4.878,-2.031,-1.053
2026-05-22 16:01:24.256,1349223712,11256,1,1.01807,0.15039,0.17529,-9.916,-9.13,-1.16
2026-05-22 16:01:24.256,1349223712,11256,2,0.90137,0.34692,0.31055,-10.031,-0.985,0.412
2026-05-22 16:01:24.456,1349223912,11456,1,1.0354,0.17212,0.17969,-10.443,-5.198,3.786
2026-05-22 16:01:24.456,1349223912,11456,2,0.90015,0.35229,0.28003,-13.779,1.42,-0.809
2026-05-22 16:01:24.656,1349224112,11656,1,1.06885,0.09253,0.12256,-7.489,15.183,5.351
2026-05-22 16:01:24.656,1349224112,11656,2,0.78687,0.37378,0.31421,-29.076,13.824,-4.573
2026-05-22 16:01:25.856,1349225312,11856,1,1.05493,0.14087,0.16455,5.672,12.061,6.595
2026-05-22 16:01:25.856,1349225312,11856,2,0.92627,0.32227,0.36621,26.0,-41.015,-8.588
2026-05-22 16:01:25.056,1349224512,12056,1,0.98682,0.13403,0.16553,13.16,10.183,8.099
2026-05-22 16:01:25.056,1349224512,12056,2,0.87012,0.37964,0.29834,7.824,13.145,4.695
2026-05-22 16:01:25.256,1349224712,12256,1,1.00073,0.09692,0.20874,-2.695,7.298,4.954
2026-05-22 16:01:25.256,1349224712,12256,2,0.9126,0.34717,0.39014,-19.366,11.053,5.015
2026-05-22 16:01:25.456,1349224912,12456,1,0.94702,0.07593,0.29468,17.076,-2.908,-1.893
2026-05-22 16:01:25.456,1349224912,12456,2,0.85938,0.35864,0.43457,23.031,-1.427,-5.908
2026-05-22 16:01:25.656,1349225112,12656,1,0.96216,0.11035,0.26074,26.038,-18.153,5.824
2026-05-22 16:01:25.656,1349225112,12656,2,0.92456,0.34375,0.4314,43.26,-6.069,-15.588
2026-05-22 16:01:26.856,1349226312,12856,1,0.9856,0.17505,0.16748,8.321,-13.771,3.092
2026-05-22 16:01:26.856,1349226312,12856,2,0.88721,0.45288,0.36499,-5.84,8.237,-5.779
2026-05-22 16:01:26.056,1349225512,13056,1,1.00879,0.16724,0.09302,5.977,10.618,-1.916
2026-05-22 16:01:26.056,1349225512,13056,2,0.729,0.45142,0.23608,5.542,19.779,-2.656
2026-05-22 16:01:26.256,1349225712,13256,1,1.03442,0.1582,0.20386,2.427,17.206,0.221
2026-05-22 16:01:26.256,1349225712,13256,2,0.87085,0.43677,0.32886,4.313,-8.046,3.595
2026-05-22 16:01:26.456,1349225912,13456,1,0.97534,0.14551,0.2688,-6.634,-7.42,1.122
2026-05-22 16:01:26.456,1349225912,13456,2,0.65112,0.1958,0.37549,-19.695,7.023,-29.939
2026-05-22 16:01:26.656,1349226112,13656,1,1.02319,0.14917,0.22754,-13.733,-22.695,4.038
2026-05-22 16:01:26.656,1349226112,13656,2,0.9209,0.43384,0.29663,8.267,-0.053,1.115
2026-05-22 16:01:27.856,1349227312,13856,1,0.84497,0.10938,0.17603,7.931,-0.603,0.397
2026-05-22 16:01:27.856,1349227312,13856,2,0.95435,0.58398,0.44092,-44.198,-73.626,-12.374
2026-05-22 16:01:27.056,1349226512,14056,1,1.03271,0.1582,0.09668,5.0,-3.542,-1.908
2026-05-22 16:01:27.056,1349226512,14056,2,0.96216,0.46436,0.29517,-16.473,-2.969,7.55
2026-05-22 16:01:27.256,1349226712,14256,1,1.01001,0.14966,0.06323,-5.191,-19.351,3.565
2026-05-22 16:01:27.256,1349226712,14256,2,0.79883,0.2998,0.4187,14.756,41.16,-41.473
2026-05-22 16:01:27.456,1349226912,14456,1,0.96191,0.18823,0.03882,-2.924,-2.221,-9.115
2026-05-22 16:01:27.456,1349226912,14456,2,0.8147,0.45557,0.20215,-10.954,15.725,4.389
2026-05-22 16:01:27.656,1349227112,14656,1,1.02124,0.17163,0.03931,0.275,6.954,1.595
2026-05-22 16:01:27.656,1349227112,14656,2,0.8811,0.45825,0.19775,-5.901,19.122,11.038
2026-05-22 16:01:28.856,1349228312,14856,1,1.04028,0.16968,0.16846,-1.58,-4.099,2.893
2026-05-22 16:01:28.856,1349228312,14856,2,0.80615,0.41406,0.37549,-21.87,-2.26,2.092
2026-05-22 16:01:28.056,1349227512,15056,1,1.04663,0.20264,0.04712,-12.687,-0.931,-9.13
2026-05-22 16:01:28.056,1349227512,15056,2,0.84595,0.45752,0.25903,-16.282,0.29,11.824
2026-05-22 16:01:28.256,1349227712,15256,1,0.99243,0.21826,0.10181,-16.733,-2.26,-8.496
2026-05-22 16:01:28.256,1349227712,15256,2,0.88135,0.44482,0.25366,-8.504,-5.466,7.557
2026-05-22 16:01:28.456,1349227912,15456,1,1.05103,0.31372,0.06519,-34.641,-0.802,-13.076
2026-05-22 16:01:28.456,1349227912,15456,2,0.90039,0.44189,0.30493,-13.756,-5.718,12.58
2026-05-22 16:01:28.656,1349228112,15656,1,1.00366,0.20264,0.12988,-30.046,1.519,0.023
2026-05-22 16:01:28.656,1349228112,15656,2,0.90918,0.36304,0.25,-21.237,-4.824,5.351
2026-05-22 16:01:29.856,1349229312,15856,1,1.00806,0.15112,0.15698,-4.191,6.344,10.244
2026-05-22 16:01:29.856,1349229312,15856,2,0.90552,0.37891,0.29468,-10.008,2.076,-0.046
2026-05-22 16:01:29.056,1349228512,16056,1,1.00684,0.12793,0.17822,3.611,10.939,8.489
2026-05-22 16:01:29.056,1349228512,16056,2,0.89404,0.38647,0.35742,-2.664,10.55,4.015
2026-05-22 16:01:29.256,1349228712,16256,1,0.98291,0.12646,0.22095,3.351,9.893,4.985
2026-05-22 16:01:29.256,1349228712,16256,2,0.88477,0.41675,0.34351,-1.954,-2.611,-2.504
2026-05-22 16:01:29.456,1349228912,16456,1,0.97705,0.13965,0.2439,4.099,7.557,2.611
2026-05-22 16:01:29.456,1349228912,16456,2,0.90454,0.34058,0.37158,-10.855,9.74,4.053
2026-05-22 16:01:29.656,1349229112,16656,1,0.95825,0.1394,0.25391,2.244,3.427,3.344
2026-05-22 16:01:29.656,1349229112,16656,2,0.90747,0.3833,0.42603,0.847,1.863,1.382
2026-05-22 16:01:30.856,1349230312,16856,1,0.96338,0.13623,0.25635,-3.252,-0.237,-0.359
2026-05-22 16:01:30.856,1349230312,16856,2,0.9082,0.38989,0.42139,-4.321,1.771,0.74
2026-05-22 16:01:30.056,1349229512,17056,1,0.9668,0.12109,0.25537,-3.702,1.229,-1.038
2026-05-22 16:01:30.056,1349229512,17056,2,0.89575,0.38745,0.38794,-5.939,2.687,2.313
2026-05-22 16:01:30.256,1349229712,17256,1,0.99268,0.10815,0.23755,4.191,6.916,-2.023
2026-05-22 16:01:30.256,1349229712,17256,2,0.94238,0.34277,0.4165,-1.366,11.534,1.985
2026-05-22 16:01:30.456,1349229912,17456,1,0.97949,0.08081,0.27563,18.557,38.534,-5.87
2026-05-22 16:01:30.456,1349229912,17456,2,0.92212,0.31641,0.5376,1.328,37.847,5.145
2026-05-22 16:01:30.656,1349230112,17656,1,0.76953,0.33569,0.50171,5.74,35.71,-10.817
2026-05-22 16:01:30.656,1349230112,17656,2,0.76465,0.47412,0.62891,-7.29,17.252,-4.183
2026-05-22 16:01:31.856,1349231312,17856,1,0.68433,0.46387,0.48608,-2.191,-18.87,-0.863
2026-05-22 16:01:31.856,1349231312,17856,2,0.7832,0.4856,0.61694,14.58,-31.267,9.023
2026-05-22 16:01:31.056,1349230512,18056,1,0.80054,0.04028,0.28857,-57.511,-6.962,24.878
2026-05-22 16:01:31.056,1349230512,18056,2,0.71265,0.448,0.53516,-2.656,-51.389,6.084
2026-05-22 16:01:31.256,1349230712,18256,1,0.95459,-0.03198,0.28394,-36.969,-22.427,12.443
2026-05-22 16:01:31.256,1349230712,18256,2,0.99585,0.30151,0.41895,-40.275,-18.779,-15.374
2026-05-22 16:01:31.456,1349230912,18456,1,0.94629,-0.10205,0.25952,-7.824,1.427,0.947
2026-05-22 16:01:31.456,1349230912,18456,2,0.86548,0.32813,0.34521,14.481,3.076,6.664
2026-05-22 16:01:31.656,1349231112,18656,1,0.98267,-0.05908,0.29712,26.771,-13.809,4.038
2026-05-22 16:01:31.656,1349231112,18656,2,0.96851,0.45264,0.43701,43.389,-2.916,-22.29
2026-05-22 16:01:32.856,1349232312,18856,1,0.99438,0.05591,0.24097,5.107,-22.008,-2.206
2026-05-22 16:01:32.856,1349232312,18856,2,0.83643,0.5,0.33276,36.313,-15.786,-11.656
2026-05-22 16:01:32.056,1349231512,19056,1,1.08081,0.12329,0.10889,-15.015,-16.45,-7.412
2026-05-22 16:01:32.056,1349231512,19056,2,0.87964,0.47632,0.29688,5.725,-8.931,8.137
2026-05-22 16:01:32.256,1349231712,19256,1,1.06763,0.15137,0.10547,-24.618,8.55,0.313
2026-05-22 16:01:32.256,1349231712,19256,2,0.93066,0.41528,0.35571,-23.137,4.733,34.13
2026-05-22 16:01:32.456,1349231912,19456,1,1.01147,0.02515,0.16504,-59.924,44.099,-1.901
2026-05-22 16:01:32.456,1349231912,19456,2,0.92139,0.18335,0.29248,-68.992,18.42,45.519
2026-05-22 16:01:32.656,1349232112,19656,1,0.90869,-0.22681,0.1521,-32.908,25.221,-22.053
2026-05-22 16:01:32.656,1349232112,19656,2,0.88525,-0.03638,0.31982,-23.511,26.26,1.023
2026-05-22 16:01:33.856,1349233312,19856,1,0.81689,-0.00293,0.49414,30.076,58.534,-26.137
2026-05-22 16:01:33.856,1349233312,19856,2,0.88281,0.02051,0.57642,4.534,3.427,1.504
2026-05-22 16:01:33.056,1349232512,20056,1,0.64966,0.3042,0.47778,54.443,31.794,22.397
2026-05-22 16:01:33.056,1349232512,20056,2,0.75293,0.36133,0.71704,9.092,29.55,0.794
2026-05-22 16:01:33.256,1349232712,20256,1,0.62842,0.32617,0.56714,19.832,-4.893,24.931
2026-05-22 16:01:33.256,1349232712,20256,2,0.81274,0.38965,0.69043,20.176,-19.687,8.565
2026-05-22 16:01:33.456,1349232912,20456,1,0.83301,-0.02002,0.4248,-15.244,-26.908,23.893
2026-05-22 16:01:33.456,1349232912,20456,2,0.9209,0.33447,0.59155,23.641,-27.221,-13.305
2026-05-22 16:01:33.656,1349233112,20656,1,0.94458,-0.021,0.31128,-3.809,-18.42,6.901
2026-05-22 16:01:33.656,1349233112,20656,2,0.94141,0.28467,0.43555,19.313,-10.756,-8.038
2026-05-22 16:01:34.856,1349234312,20856,1,0.95825,0.0249,0.2959,8.71,-11.588,2.588
2026-05-22 16:01:34.856,1349234312,20856,2,0.90088,0.38184,0.427,-10.351,-6.015,-13.389
2026-05-22 16:01:34.056,1349233512,21056,1,0.98267,0.0415,0.27368,-0.29,-7.466,-2.115
2026-05-22 16:01:34.056,1349233512,21056,2,0.91211,0.37891,0.40991,7.458,-0.947,-1.237
2026-05-22 16:01:34.256,1349233712,21256,1,0.96704,0.05566,0.2793,2.58,-0.206,1.542
2026-05-22 16:01:34.256,1349233712,21256,2,0.90454,0.37207,0.4043,-1.557,2.107,0.573
2026-05-22 16:01:34.456,1349233912,21456,1,0.97925,0.04272,0.27686,3.542,1.046,3.58
2026-05-22 16:01:34.456,1349233912,21456,2,0.90698,0.39453,0.39819,-0.382,3.115,1.366
2026-05-22 16:01:34.656,1349234112,21656,1,0.96924,0.04663,0.29175,2.611,6.427,10.176
2026-05-22 16:01:34.656,1349234112,21656,2,0.90625,0.39233,0.40234,0.802,5.443,5.672
2026-05-22 16:01:35.856,1349235312,21856,1,0.93433,0.01025,0.32227,11.687,5.053,13.924
2026-05-22 16:01:35.856,1349235312,21856,2,0.90063,0.34277,0.41919,14.229,12.695,3.321
2026-05-22 16:01:35.056,1349234512,22056,1,0.93872,0.01929,0.30078,4.725,-0.221,2.053
2026-05-22 16:01:35.056,1349234512,22056,2,0.88672,0.42822,0.4187,-5.527,-0.672,1.985
2026-05-22 16:01:35.256,1349234712,22256,1,0.95459,-0.01245,0.30591,-8.71,-5.466,-0.885
2026-05-22 16:01:35.256,1349234712,22256,2,0.92139,0.37939,0.40161,-1.282,-4.672,-2.221
2026-05-22 16:01:35.456,1349234912,22456,1,0.95117,-0.04492,0.31152,11.618,2.992,1.061
2026-05-22 16:01:35.456,1349234912,22456,2,0.91333,0.39258,0.45728,13.389,2.435,-2.641
2026-05-22 16:01:35.656,1349235112,22656,1,0.95923,-0.03271,0.31177,7.389,0.962,15.13
2026-05-22 16:01:35.656,1349235112,22656,2,0.91333,0.40845,0.40991,8.718,7.214,-4.191
2026-05-22 16:01:36.856,1349236312,22856,1,0.94995,-0.03491,0.32031,4.763,7.74,21.947
2026-05-22 16:01:36.856,1349236312,22856,2,0.87769,0.4082,0.36621,7.863,-3.198,11.58
2026-05-22 16:01:36.056,1349235512,23056,1,0.91919,-0.1521,0.34814,-11.198,-1.817,5.687
2026-05-22 16:01:36.056,1349235512,23056,2,0.90234,0.38989,0.38354,-3.763,-4.962,1.092
2026-05-22 16:01:36.256,1349235712,23256,1,0.94531,-0.16089,0.30371,-8.031,-2.771,-3.504
2026-05-22 16:01:36.256,1349235712,23256,2,0.91431,0.37036,0.35571,-3.656,-5.0,0.427
2026-05-22 16:01:36.456,1349235912,23456,1,0.96021,-0.13965,0.29663,-4.542,-2.87,-6.656
2026-05-22 16:01:36.456,1349235912,23456,2,0.89868,0.38794,0.34375,-3.74,-0.992,-0.45
2026-05-22 16:01:36.656,1349236112,23656,1,0.93311,-0.11914,0.30054,-3.802,-8.756,-14.29
2026-05-22 16:01:36.656,1349236112,23656,2,0.89575,0.40576,0.35278,0.389,-4.84,-5.298
2026-05-22 16:01:37.856,1349237312,23856,1,0.96924,-0.02539,0.24146,-5.954,-14.985,-28.588
2026-05-22 16:01:37.856,1349237312,23856,2,0.89429,0.41699,0.30322,9.786,-9.405,1.107
2026-05-22 16:01:37.056,1349236512,24056,1,1.02246,0.06006,0.20972,-23.053,-8.031,-34.817
2026-05-22 16:01:37.056,1349236512,24056,2,0.90649,0.36719,0.31763,-3.985,-6.733,17.221
2026-05-22 16:01:37.256,1349236712,24256,1,1.01855,0.09668,0.18896,-18.985,-4.832,-21.198
2026-05-22 16:01:37.256,1349236712,24256,2,0.91626,0.32739,0.27979,-5.588,-1.679,6.13
2026-05-22 16:01:37.456,1349236912,24456,1,0.98364,0.13281,0.19312,-3.626,1.786,-8.427
2026-05-22 16:01:37.456,1349236912,24456,2,0.9104,0.35889,0.28857,13.153,3.794,4.71
2026-05-22 16:01:37.656,1349237112,24656,1,0.98047,0.19067,0.20215,2.855,3.328,-6.992
2026-05-22 16:01:37.656,1349237112,24656,2,0.89673,0.3479,0.30054,6.702,5.87,5.847
2026-05-22 16:01:38.856,1349238312,24856,1,0.95776,0.1792,0.22363,0.122,1.374,2.397
2026-05-22 16:01:38.856,1349238312,24856,2,0.90552,0.35596,0.31494,2.069,-2.282,0.16
2026-05-22 16:01:38.056,1349237512,25056,1,0.98853,0.13525,0.21069,-0.008,3.061,-6.237
2026-05-22 16:01:38.056,1349237512,25056,2,0.91479,0.35034,0.30054,-7.298,2.74,-3.573
2026-05-22 16:01:38.256,1349237712,25256,1,0.94556,0.22095,0.23511,12.191,4.359,1.534
2026-05-22 16:01:38.256,1349237712,25256,2,0.90991,0.36499,0.33521,6.206,7.847,-2.366
2026-05-22 16:01:38.456,1349237912,25456,1,0.96289,0.22949,0.24536,1.26,4.176,-2.328
2026-05-22 16:01:38.456,1349237912,25456,2,0.88647,0.37744,0.34204,7.008,4.58,1.076
2026-05-22 16:01:38.656,1349238112,25656,1,0.94727,0.22412,0.24878,-1.893,3.802,0.237
2026-05-22 16:01:38.656,1349238112,25656,2,0.89771,0.38135,0.34375,-6.496,1.466,1.298
2026-05-22 16:01:39.856,1349239312,25856,1,0.98486,0.22974,0.23438,-4.74,-6.145,2.618
2026-05-22 16:01:39.856,1349239312,25856,2,0.93237,0.37695,0.39258,-2.344,-0.328,1.038
2026-05-22 16:01:39.056,1349238512,26056,1,0.94604,0.20776,0.24927,9.756,24.863,26.565
2026-05-22 16:01:39.056,1349238512,26056,2,0.89111,0.34717,0.41187,-6.336,13.992,2.053
2026-05-22 16:01:39.256,1349238712,26256,1,0.91211,0.07227,0.34326,1.901,14.626,21.733
2026-05-22 16:01:39.256,1349238712,26256,2,0.8916,0.38745,0.45557,-2.55,5.595,6.557
2026-05-22 16:01:39.456,1349238912,26456,1,0.91821,0.06104,0.3606,-7.214,3.168,10.611
2026-05-22 16:01:39.456,1349238912,26456,2,0.90649,0.3457,0.44507,5.473,-4.756,3.031
2026-05-22 16:01:39.656,1349239112,26656,1,0.93457,0.03394,0.32349,-0.053,-9.626,3.206
2026-05-22 16:01:39.656,1349239112,26656,2,0.90698,0.36108,0.42725,10.901,-7.176,0.71
2026-05-22 16:01:40.856,1349240312,26856,1,0.95825,0.01147,0.29883,-14.397,-7.282,-12.275
2026-05-22 16:01:40.856,1349240312,26856,2,0.90552,0.38086,0.3584,-7.626,-11.847,-0.901
2026-05-22 16:01:40.056,1349239512,27056,1,0.96558,0.0625,0.27319,-21.397,-12.985,-18.695
2026-05-22 16:01:40.056,1349239512,27056,2,0.89819,0.37598,0.33472,-2.534,-8.557,1.023
2026-05-22 16:01:40.256,1349239712,27256,1,0.9917,0.06665,0.23682,-12.405,-9.985,-11.366
2026-05-22 16:01:40.256,1349239712,27256,2,0.93457,0.37183,0.32202,3.221,-7.672,-2.015
2026-05-22 16:01:40.456,1349239912,27456,1,0.99194,0.12378,0.20117,3.489,4.237,-1.221
2026-05-22 16:01:40.456,1349239912,27456,2,0.89063,0.396,0.33203,14.16,-1.618,2.489
2026-05-22 16:01:40.656,1349240112,27656,1,0.99121,0.10425,0.22925,-18.092,0.527,-9.878
2026-05-22 16:01:40.656,1349240112,27656,2,0.90381,0.37329,0.30591,-17.626,0.595,2.321
2026-05-22 16:01:41.856,1349241312,27856,1,0.99268,0.09668,0.23608,1.87,3.313,2.473
2026-05-22 16:01:41.856,1349241312,27856,2,0.90381,0.3667,0.32886,-2.183,4.397,-0.023
2026-05-22 16:01:41.056,1349240512,28056,1,0.97241,0.10645,0.23682,9.847,5.26,4.565
2026-05-22 16:01:41.056,1349240512,28056,2,0.90112,0.37305,0.35864,10.244,8.504,0.588
2026-05-22 16:01:41.256,1349240712,28256,1,0.96997,0.11621,0.24243,5.122,2.542,6.405
2026-05-22 16:01:41.256,1349240712,28256,2,0.89771,0.39771,0.36401,-1.397,3.641,-1.252
2026-05-22 16:01:41.456,1349240912,28456,1,0.98315,0.11401,0.24878,0.053,0.099,1.015
2026-05-22 16:01:41.456,1349240912,28456,2,0.89966,0.38501,0.3623,-1.611,0.244,-1.351
2026-05-22 16:01:41.656,1349241112,28656,1,0.98804,0.10986,0.22168,-1.71,-1.969,-4.786
2026-05-22 16:01:41.656,1349241112,28656,2,0.90015,0.38208,0.37134,-0.137,5.153,1.366
2026-05-22 16:01:42.856,1349242312,28856,1,0.979,0.12891,0.24243,-6.206,0.046,-10.466
2026-05-22 16:01:42.856,1349242312,28856,2,0.89673,0.38818,0.33569,-6.267,0.305,1.214
2026-05-22 16:01:42.056,1349241512,29056,1,0.97925,0.15845,0.23022,-7.58,0.061,-6.0
2026-05-22 16:01:42.056,1349241512,29056,2,0.90527,0.37134,0.33545,-4.137,-2.527,1.168
2026-05-22 16:01:42.256,1349241712,29256,1,0.96826,0.17554,0.23486,-7.901,-0.771,-4.061
2026-05-22 16:01:42.256,1349241712,29256,2,0.90601,0.36523,0.34497,-9.115,0.267,2.221
2026-05-22 16:01:42.456,1349241912,29456,1,0.98291,0.16846,0.23755,-5.679,-2.901,0.389
2026-05-22 16:01:42.456,1349241912,29456,2,0.9104,0.36914,0.36157,-0.969,4.389,5.45
2026-05-22 16:01:42.656,1349242112,29656,1,0.96948,0.13184,0.24268,7.122,-2.298,6.748
2026-05-22 16:01:42.656,1349242112,29656,2,0.89966,0.34863,0.35229,1.763,1.893,0.313
2026-05-22 16:01:43.856,1349243312,29856,1,0.92725,0.12964,0.18677,6.42,-0.427,10.412
2026-05-22 16:01:43.856,1349243312,29856,2,0.89111,0.39404,0.3252,0.031,3.435,-1.061
2026-05-22 16:01:43.056,1349242512,30056,1,1.00073,0.13208,0.20532,3.992,9.626,11.908
2026-05-22 16:01:43.056,1349242512,30056,2,0.89111,0.40454,0.37109,-6.679,1.58,10.366
2026-05-22 16:01:43.256,1349242712,30256,1,0.97803,0.11987,0.25171,0.687,12.588,20.427
2026-05-22 16:01:43.256,1349242712,30256,2,0.91504,0.37183,0.42456,-11.954,8.13,1.962
2026-05-22 16:01:43.456,1349242912,30456,1,0.94287,0.00098,0.30762,3.137,16.229,34.267
2026-05-22 16:01:43.456,1349242912,30456,2,0.90259,0.38086,0.43262,6.924,-0.031,9.641
2026-05-22 16:01:43.656,1349243112,30656,1,0.91455,-0.11426,0.34985,0.626,1.313,14.397
2026-05-22 16:01:43.656,1349243112,30656,2,0.90576,0.35254,0.43726,14.122,-1.008,3.038
2026-05-22 16:01:44.856,1349244312,30856,1,0.9519,-0.09009,0.32153,3.656,1.076,5.672
2026-05-22 16:01:44.856,1349244312,30856,2,0.91138,0.36401,0.41504,5.214,4.733,1.679
2026-05-22 16:01:44.056,1349243512,31056,1,0.92407,-0.12329,0.33643,3.893,1.45,4.679
2026-05-22 16:01:44.056,1349243512,31056,2,0.90527,0.36621,0.43945,2.45,1.557,-3.641
2026-05-22 16:01:44.256,1349243712,31256,1,0.95361,-0.08887,0.323,-20.573,-9.229,-14.954
2026-05-22 16:01:44.256,1349243712,31256,2,0.89014,0.38916,0.41895,-10.076,-11.344,0.16
2026-05-22 16:01:44.456,1349243912,31456,1,0.98291,-0.0791,0.27026,-24.183,-3.626,-25.244
2026-05-22 16:01:44.456,1349243912,31456,2,0.91113,0.35547,0.37598,-25.718,-2.229,4.321
2026-05-22 16:01:44.656,1349244112,31656,1,0.97998,-0.09375,0.26343,-12.794,10.748,-13.336
2026-05-22 16:01:44.656,1349244112,31656,2,0.92993,0.31177,0.37817,-27.924,2.71,12.71
2026-05-22 16:01:45.856,1349245312,31856,1,0.95605,-0.08276,0.31104,-7.359,6.458,6.351
2026-05-22 16:01:45.856,1349245312,31856,2,0.94556,0.28931,0.43091,-2.092,2.038,7.641
2026-05-22 16:01:45.056,1349244512,32056,1,0.93042,-0.10498,0.34985,2.603,0.656,7.328
2026-05-22 16:01:45.056,1349244512,32056,2,0.92188,0.29834,0.42847,3.214,2.366,-0.229
2026-05-22 16:01:45.256,1349244712,32256,1,0.93726,-0.09985,0.33472,2.0,-3.893,2.893
2026-05-22 16:01:45.256,1349244712,32256,2,0.93042,0.31885,0.42993,9.58,-0.015,-0.924
2026-05-22 16:01:45.456,1349244912,32456,1,0.94897,-0.10132,0.31641,1.366,-2.26,1.626
2026-05-22 16:01:45.456,1349244912,32456,2,0.93286,0.31396,0.42065,1.519,2.038,1.687
2026-05-22 16:01:45.656,1349245112,32656,1,0.95239,-0.08569,0.32373,4.573,-0.328,-0.046
2026-05-22 16:01:45.656,1349245112,32656,2,0.92578,0.33838,0.43774,5.542,2.794,-0.374
2026-05-22 16:01:46.856,1349246312,32856,1,0.94775,-0.02759,0.32935,4.328,-2.229,-4.962
2026-05-22 16:01:46.856,1349246312,32856,2,0.90918,0.354,0.4314,5.092,-0.84,-2.992
2026-05-22 16:01:46.056,1349245512,33056,1,0.95093,-0.02393,0.2998,-1.466,-2.664,-6.267
2026-05-22 16:01:46.056,1349245512,33056,2,0.91211,0.3584,0.4082,-2.176,0.893,-2.26
2026-05-22 16:01:46.256,1349245712,33256,1,0.95117,-0.02856,0.2998,-7.718,-3.374,-6.115
2026-05-22 16:01:46.256,1349245712,33256,2,0.92236,0.35327,0.40869,0.664,-3.206,2.924
2026-05-22 16:01:46.456,1349245912,33456,1,0.96851,-0.02539,0.28149,-3.214,-4.649,-4.313
2026-05-22 16:01:46.456,1349245912,33456,2,0.92139,0.33691,0.40332,4.405,-1.573,-1.176
2026-05-22 16:01:46.656,1349246112,33656,1,0.98853,-0.00195,0.2688,-1.695,-5.153,-2.542
2026-05-22 16:01:46.656,1349246112,33656,2,0.92017,0.3374,0.39307,5.939,-1.267,2.336
2026-05-22 16:01:47.856,1349247312,33856,1,0.99365,-0.00586,0.24805,0.733,-0.046,2.916
2026-05-22 16:01:47.856,1349247312,33856,2,0.92407,0.3562,0.375,-3.931,2.282,1.061
2026-05-22 16:01:47.056,1349246512,34056,1,1.00122,-0.01392,0.2522,-1.71,0.992,-1.115
2026-05-22 16:01:47.056,1349246512,34056,2,0.90552,0.34521,0.38428,-14.061,3.328,0.42
2026-05-22 16:01:47.256,1349246712,34256,1,0.98267,0.02417,0.23804,3.29,1.42,5.496
2026-05-22 16:01:47.256,1349246712,34256,2,0.90405,0.3811,0.39624,-0.908,2.053,1.153
2026-05-22 16:01:47.456,1349246912,34456,1,0.97314,-0.01953,0.26465,-0.031,0.405,4.008
2026-05-22 16:01:47.456,1349246912,34456,2,0.90527,0.36694,0.40503,-2.099,-3.443,-1.206
2026-05-22 16:01:47.656,1349247112,34656,1,0.9812,-0.03125,0.26147,0.924,-0.16,-0.435
2026-05-22 16:01:47.656,1349247112,34656,2,0.91626,0.35059,0.40503,4.366,3.74,-1.008
2026-05-22 16:01:48.856,1349248312,34856,1,0.98218,0.00171,0.26294,0.473,-0.443,-3.855
2026-05-22 16:01:48.856,1349248312,34856,2,0.90967,0.35498,0.40259,7.26,1.71,0.435
2026-05-22 16:01:48.056,1349247512,35056,1,0.98779,0.00854,0.25537,-3.26,0.885,-5.817
2026-05-22 16:01:48.056,1349247512,35056,2,0.90186,0.36572,0.36694,1.641,-1.061,1.527
2026-05-22 16:01:48.256,1349247712,35256,1,0.97632,0.00977,0.24512,-1.71,0.382,-3.183
2026-05-22 16:01:48.256,1349247712,35256,2,0.90649,0.37451,0.36133,0.053,-2.458,-2.344
2026-05-22 16:01:48.456,1349247912,35456,1,0.9812,0.02612,0.24487,-0.382,-2.565,-2.939
2026-05-22 16:01:48.456,1349247912,35456,2,0.92822,0.36621,0.39868,4.832,-0.588,-0.298
2026-05-22 16:01:48.656,1349248112,35656,1,1.02808,0.03564,0.23145,-2.763,1.374,-2.824
2026-05-22 16:01:48.656,1349248112,35656,2,0.91675,0.39063,0.40991,-5.588,8.565,5.206
2026-05-22 16:01:49.856,1349249312,35856,1,0.98779,0.07495,0.27026,4.069,13.412,-5.229
2026-05-22 16:01:49.856,1349249312,35856,2,0.92798,0.35986,0.4353,-11.168,17.229,2.031
2026-05-22 16:01:49.056,1349248512,36056,1,0.90088,0.11572,0.35571,23.977,16.786,3.427
2026-05-22 16:01:49.056,1349248512,36056,2,0.89111,0.3938,0.47485,27.244,14.252,1.565
2026-05-22 16:01:49.256,1349248712,36256,1,0.90601,0.12524,0.33691,10.435,7.206,1.969
2026-05-22 16:01:49.256,1349248712,36256,2,0.89307,0.37427,0.49854,5.748,7.748,-1.313
2026-05-22 16:01:49.456,1349248912,36456,1,0.90991,0.13184,0.33228,4.702,-2.061,3.168
2026-05-22 16:01:49.456,1349248912,36456,2,0.88501,0.39722,0.51636,11.55,-2.771,-0.725
2026-05-22 16:01:49.656,1349249112,36656,1,0.92725,0.19287,0.32666,16.885,7.985,11.389
2026-05-22 16:01:49.656,1349249112,36656,2,0.85547,0.43164,0.50049,19.954,0.321,-1.382
2026-05-22 16:01:50.856,1349250312,36856,1,0.93652,0.14624,0.34058,13.809,-4.015,13.885
2026-05-22 16:01:50.856,1349250312,36856,2,0.90601,0.39673,0.51855,29.443,-0.435,-3.969
2026-05-22 16:01:50.056,1349249512,37056,1,0.92505,0.16406,0.34619,9.954,-0.282,8.198
2026-05-22 16:01:50.056,1349249512,37056,2,0.87891,0.42017,0.48315,35.672,0.321,-0.45
2026-05-22 16:01:50.256,1349249712,37256,1,1.01514,0.15503,0.23486,-9.947,-1.183,11.176
2026-05-22 16:01:50.256,1349249712,37256,2,0.91235,0.31934,0.49341,4.061,-2.931,20.176
2026-05-22T16:01:51.915015,,,,,,,,,
2026-05-22 16:01:50.456,1349249912,37456,1,0.96362,0.12891,0.25659,-60.901,27.084,4.84
2026-05-22 16:01:50.456,1349249912,37456,2,0.86816,0.20605,0.42822,-105.244,-1.351,36.214
2026-05-22 16:01:50.656,1349250112,37656,1,0.91113,-0.27612,0.31006,-81.595,13.718,-34.115
2026-05-22 16:01:50.656,1349250112,37656,2,0.90259,0.0415,0.44751,-45.893,1.832,13.656
2026-05-22 16:01:51.856,1349251312,37856,1,0.8418,-0.34497,0.39941,-30.794,0.985,-47.748
2026-05-22 16:01:51.856,1349251312,37856,2,0.98608,0.07544,0.39502,-52.534,-9.466,-38.58
2026-05-22 16:01:51.056,1349250512,38056,1,0.78345,0.09497,0.46606,-24.328,19.954,-54.305
2026-05-22 16:01:51.056,1349250512,38056,2,0.85425,0.25635,0.37988,-36.924,-28.275,-9.687
2026-05-22 16:01:51.256,1349250712,38256,1,0.8772,0.21631,0.42603,-22.611,-8.802,-35.649
2026-05-22 16:01:51.256,1349250712,38256,2,0.87939,0.37354,0.55884,-50.771,-4.214,-29.244
2026-05-22 16:01:51.456,1349250912,38456,1,0.97388,0.3103,0.29053,-19.252,-11.481,-20.107
2026-05-22 16:01:51.456,1349250912,38456,2,0.8186,0.35889,0.59448,-17.435,-10.374,-0.092
2026-05-22 16:01:51.656,1349251112,38656,1,0.93311,0.18945,0.30249,-18.718,-0.031,14.023
2026-05-22 16:01:51.656,1349251112,38656,2,0.84937,0.3689,0.50391,-20.427,-20.977,-0.084
2026-05-22 16:01:52.856,1349252312,38856,1,0.96289,0.11084,0.24585,-12.779,2.374,17.855
2026-05-22 16:01:52.856,1349252312,38856,2,0.93555,0.48291,0.49658,-12.092,-11.779,-4.282
2026-05-22 16:01:52.067,1349251523,39066,1,1.03247,-0.01636,0.40747,-26.931,42.084,21.069
2026-05-22 16:01:52.067,1349251523,39066,2,0.7688,0.47705,0.72339,81.718,-28.679,16.099
2026-05-22 16:01:52.266,1349251722,39266,1,0.79199,-0.18823,0.53857,-14.74,-2.008,-5.366
2026-05-22 16:01:52.266,1349251722,39266,2,0.97144,0.20947,0.62305,22.16,-7.656,-2.397
2026-05-22 16:01:52.466,1349251922,39466,1,0.83447,-0.04028,0.34033,-1.58,-9.786,-20.397
2026-05-22 16:01:52.466,1349251922,39466,2,0.93872,0.18921,0.35254,96.595,-5.863,26.84
2026-05-22 16:01:52.666,1349252122,39666,1,1.06543,-0.06421,0.29688,72.412,-19.244,23.046
2026-05-22 16:01:52.666,1349252122,39666,2,1.03296,0.29541,0.31079,81.534,5.863,-25.313
2026-05-22 16:01:53.866,1349253322,39866,1,0.64722,0.09302,0.22559,71.916,4.412,23.145
2026-05-22 16:01:53.866,1349253322,39866,2,0.854,0.42383,0.62427,108.206,7.168,-20.267
2026-05-22 16:01:53.066,1349252522,40066,1,0.86841,0.24634,0.26929,25.16,-10.847,24.962
2026-05-22 16:01:53.066,1349252522,40066,2,0.79175,0.56665,0.48706,42.71,-8.443,-36.458
2026-05-22 16:01:53.266,1349252722,40266,1,0.97583,0.26123,0.28662,-29.29,-29.198,1.237
2026-05-22 16:01:53.266,1349252722,40266,2,0.73291,0.53784,0.22485,-29.305,-42.244,-1.916
2026-05-22 16:01:53.466,1349252922,40466,1,1.00879,-0.05664,0.19824,-35.534,14.45,-5.756
2026-05-22 16:01:53.466,1349252922,40466,2,1.10962,0.13647,0.40674,-54.908,41.74,50.565
2026-05-22 16:01:53.666,1349253122,40666,1,0.823,-0.06836,0.22925,28.282,33.573,-6.397
2026-05-22 16:01:53.666,1349253122,40666,2,0.83423,0.17041,0.44897,-4.168,16.099,6.855
2026-05-22 16:01:54.866,1349254322,40866,1,0.97339,0.08447,0.30688,1.885,14.229,-18.84
2026-05-22 16:01:54.866,1349254322,40866,2,1.42896,0.63623,0.29126,-19.855,1.321,22.534
2026-05-22 16:01:54.066,1349253522,41066,1,0.63818,0.17505,0.41113,27.847,12.275,7.214
2026-05-22 16:01:54.066,1349253522,41066,2,1.06152,0.40015,0.79907,53.191,-4.695,-9.076
2026-05-22 16:01:54.266,1349253722,41266,1,0.68481,0.26196,0.42944,-0.336,15.115,16.16
2026-05-22 16:01:54.266,1349253722,41266,2,0.71313,0.47168,0.58154,21.511,-19.84,-14.802
2026-05-22 16:01:54.466,1349253922,41466,1,1.56763,0.13745,0.2002,-26.45,-49.405,25.649
2026-05-22 16:01:54.466,1349253922,41466,2,0.94727,0.44434,0.4624,-92.13,50.115,26.122
2026-05-22 16:01:54.666,1349254122,41666,1,0.8623,-0.30664,0.57471,-13.16,5.519,38.855
2026-05-22 16:01:54.666,1349254122,41666,2,0.91968,0.21387,0.40747,35.267,-55.366,-5.031
2026-05-22 16:01:55.866,1349255322,41866,1,0.55444,-0.53149,0.55591,12.0,-1.863,5.466
2026-05-22 16:01:55.866,1349255322,41866,2,1.11206,0.2771,0.52368,69.206,-32.305,-31.748
2026-05-22 16:01:55.066,1349254522,42066,1,0.74414,-0.05078,0.42798,14.725,5.71,20.351
2026-05-22 16:01:55.066,1349254522,42066,2,0.90747,0.49561,0.5918,-23.74,12.252,-8.542
2026-05-22 16:01:55.266,1349254722,42266,1,0.81738,-0.11328,0.49561,-20.595,-18.427,-2.092
2026-05-22 16:01:55.266,1349254722,42266,2,1.01563,0.32886,0.43799,-15.611,1.809,29.336
2026-05-22 16:01:55.466,1349254922,42466,1,0.78809,-0.34595,0.47559,-19.382,-3.336,-2.359
2026-05-22 16:01:55.466,1349254922,42466,2,0.94287,0.31616,0.42212,4.504,-12.305,-2.847
2026-05-22 16:01:55.666,1349255122,42666,1,0.81836,-0.28491,0.45313,-13.473,-0.634,-26.969
2026-05-22 16:01:55.666,1349255122,42666,2,0.93311,0.3418,0.3877,-20.817,-10.573,-5.382
2026-05-22 16:01:56.866,1349256322,42866,1,0.83423,-0.22729,0.41626,-22.374,0.763,-53.534
2026-05-22 16:01:56.866,1349256322,42866,2,0.91357,0.36304,0.40527,-36.008,-7.656,-4.328
2026-05-22 16:01:56.066,1349255522,43066,1,0.91943,-0.12085,0.3667,-33.519,-2.397,-65.015
2026-05-22 16:01:56.066,1349255522,43066,2,0.95337,0.33984,0.41577,-47.74,-0.443,4.679
2026-05-22 16:01:56.266,1349255722,43266,1,0.90283,0.03662,0.3728,-37.481,4.45,-56.183
2026-05-22 16:01:56.266,1349255722,43266,2,0.90625,0.33911,0.43799,-33.26,-4.664,5.359
2026-05-22 16:01:56.466,1349255922,43466,1,0.88574,0.10474,0.37671,-35.344,-4.824,-27.939
2026-05-22 16:01:56.466,1349255922,43466,2,0.91748,0.3313,0.41724,-24.237,-11.641,7.008
2026-05-22 16:01:56.666,1349256122,43666,1,0.91064,0.10645,0.36743,-24.023,-16.183,-10.954
2026-05-22 16:01:56.666,1349256122,43666,2,0.8999,0.31079,0.38843,-11.305,-8.137,-1.351
2026-05-22 16:01:57.866,1349257322,43866,1,0.99341,0.14258,0.22559,-21.527,-12.656,8.481
2026-05-22 16:01:57.866,1349257322,43866,2,0.97437,0.30762,0.43262,-28.557,-0.87,18.015
2026-05-22 16:01:57.066,1349256522,44066,1,1.01245,-0.09155,0.22314,-37.29,11.321,-15.603
2026-05-22 16:01:57.066,1349256522,44066,2,0.86792,0.17554,0.21802,-29.985,-13.649,18.931
2026-05-22 16:01:57.266,1349256722,44266,1,1.08105,-0.11426,0.50806,-17.55,-34.71,-20.076
2026-05-22 16:01:57.266,1349256722,44266,2,0.82153,0.29175,0.5813,-47.374,41.634,-25.824
2026-05-22 16:01:57.466,1349256922,44466,1,0.86743,0.05273,0.27246,-51.435,-10.282,-16.328
2026-05-22 16:01:57.466,1349256922,44466,2,0.85059,0.38647,0.56665,-16.084,-49.42,-4.305
2026-05-22 16:01:57.666,1349257122,44666,1,0.98242,0.18188,0.15381,-94.382,-7.145,-48.733
2026-05-22 16:01:57.666,1349257122,44666,2,0.84766,0.41919,0.28516,-98.649,-35.977,7.71
2026-05-22 16:01:58.866,1349258322,44866,1,1.02148,0.14307,0.13354,-119.588,-23.977,-51.351
2026-05-22 16:01:58.866,1349258322,44866,2,1.26685,0.17456,0.41919,-81.267,-69.702,32.076
2026-05-22 16:01:58.066,1349257522,45066,1,0.94824,-0.17627,0.14185,-89.084,3.229,-16.336
2026-05-22 16:01:58.066,1349257522,45066,2,0.99023,0.23438,0.20068,-167.374,-5.901,-28.58
2026-05-22 16:01:58.266,1349257722,45266,1,0.99805,-0.18188,0.16602,-103.786,12.031,-39.069
2026-05-22 16:01:58.266,1349257722,45266,2,0.90503,0.11157,0.18799,-56.405,-2.985,47.069
2026-05-22 16:01:58.466,1349257922,45466,1,1.0293,-0.28076,0.18042,-42.634,9.565,-5.038
2026-05-22 16:01:58.466,1349257922,45466,2,0.93164,0.10303,0.28369,-53.947,-7.885,-2.053
2026-05-22 16:01:58.666,1349258122,45666,1,0.98267,-0.16284,0.22095,3.595,-5.733,5.519
2026-05-22 16:01:58.666,1349258122,45666,2,0.94238,0.20264,0.28662,1.794,1.87,-8.115
2026-05-22 16:01:59.866,1349259322,45866,1,0.98193,-0.12256,0.18018,12.679,-10.305,8.733
2026-05-22 16:01:59.866,1349259322,45866,2,0.95239,0.2395,0.29004,13.611,-7.168,-7.786
2026-05-22 16:01:59.066,1349258522,46066,1,1.0105,-0.11206,0.12817,9.779,-10.0,-2.992
2026-05-22 16:01:59.066,1349258522,46066,2,0.93359,0.29004,0.28516,16.58,1.29,-6.573
2026-05-22 16:01:59.266,1349258722,46266,1,1.03711,-0.06763,0.13257,16.55,-2.901,-3.008
2026-05-22 16:01:59.266,1349258722,46266,2,0.92261,0.32104,0.27832,10.229,5.351,-7.626
2026-05-22 16:01:59.466,1349258922,46466,1,1.06274,0.00293,0.10474,1.916,11.748,-22.076
2026-05-22 16:01:59.466,1349258922,46466,2,0.92529,0.31396,0.33984,-16.031,13.122,7.45
2026-05-22 16:01:59.666,1349259122,46666,1,0.98389,0.03394,0.21924,-19.412,26.664,-27.878
2026-05-22 16:01:59.666,1349259122,46666,2,0.91284,0.271,0.29492,-23.901,13.076,1.107
2026-05-22 16:02:00.866,1349260322,46866,1,0.95044,0.08203,0.26807,-9.351,5.672,-16.496
2026-05-22 16:02:00.866,1349260322,46866,2,0.92505,0.25244,0.38599,-6.603,5.389,-0.244
2026-05-22 16:02:00.066,1349259522,47066,1,0.95801,0.12329,0.27661,-8.0,-1.084,-8.771
2026-05-22 16:02:00.066,1349259522,47066,2,0.93774,0.24536,0.38062,-0.244,-1.42,0.214
2026-05-22 16:02:00.332,1349259788,47332,1,0.97168,0.12769,0.24951,-3.786,-2.786,0.237
2026-05-22 16:02:00.332,1349259788,47332,2,0.93359,0.27954,0.37866,0.328,1.947,0.878
2026-05-22 16:02:01.746,1349261202,47745,1,0.96631,0.14087,0.26343,-1.718,1.977,-1.183
2026-05-22 16:02:01.746,1349261202,47745,2,0.93823,0.26563,0.38452,-3.26,2.634,1.0
2026-05-22 16:02:01.945,1349261401,47945,1,0.96045,0.1333,0.27197,-0.908,0.771,0.015
2026-05-22 16:02:01.945,1349261401,47945,2,0.94385,0.28882,0.38403,2.519,1.115,1.618
2026-05-22 16:02:01.145,1349260601,48145,1,0.95996,0.16064,0.26636,-1.595,-1.687,-0.748
2026-05-22 16:02:01.145,1349260601,48145,2,0.93774,0.27588,0.38403,-1.763,-1.26,1.122
2026-05-22 16:02:01.345,1349260801,48345,1,0.96704,0.12598,0.24316,-3.916,-1.29,-0.565
2026-05-22 16:02:01.345,1349260801,48345,2,0.94385,0.26855,0.37915,-1.817,0.366,1.023
2026-05-22 16:02:01.545,1349261001,48545,1,0.95996,0.14429,0.26855,0.458,0.511,0.748
2026-05-22 16:02:01.545,1349261001,48545,2,0.93384,0.28564,0.37085,-0.145,2.214,-0.244
2026-05-22 16:02:02.745,1349262201,48745,1,0.9624,0.14307,0.26294,0.42,1.718,1.664
2026-05-22 16:02:02.745,1349262201,48745,2,0.93066,0.30591,0.37939,1.771,2.206,1.282
2026-05-22 16:02:02.945,1349262401,48945,1,0.96094,0.12476,0.26831,-1.985,-0.542,0.321
2026-05-22 16:02:02.945,1349262401,48945,2,0.9314,0.26978,0.37891,-2.42,4.168,-0.191
2026-05-22 16:02:02.145,1349261601,49145,1,0.96899,0.15381,0.25635,1.26,0.74,0.359
2026-05-22 16:02:02.145,1349261601,49145,2,0.92944,0.29614,0.39282,1.55,2.664,1.733
2026-05-22 16:02:02.345,1349261801,49345,1,0.95337,0.14307,0.26807,-0.534,3.198,0.458
2026-05-22 16:02:02.345,1349261801,49345,2,0.93774,0.2876,0.39917,1.435,0.656,1.023
2026-05-22 16:02:02.545,1349262001,49545,1,0.96851,0.15259,0.26099,1.733,2.0,0.992
2026-05-22 16:02:02.545,1349262001,49545,2,0.92798,0.31201,0.38306,-0.359,4.58,1.656
2026-05-22 16:02:03.745,1349263201,49745,1,0.9707,0.10181,0.25635,1.389,0.985,1.206
2026-05-22 16:02:03.745,1349263201,49745,2,0.93848,0.28345,0.38525,1.763,6.466,-3.954
2026-05-22 16:02:03.945,1349263401,49945,1,0.97876,0.1145,0.26465,14.153,9.45,3.542
2026-05-22 16:02:03.945,1349263401,49945,2,0.94678,0.35352,0.41772,14.779,7.824,-6.176
2026-05-22 16:02:03.145,1349262601,50145,1,0.95215,0.1626,0.27319,5.328,8.756,2.214
2026-05-22 16:02:03.145,1349262601,50145,2,0.93091,0.34619,0.44141,1.687,6.763,1.664
2026-05-22 16:02:03.345,1349262801,50345,1,0.94556,0.1377,0.32056,-19.977,10.382,-5.191
2026-05-22 16:02:03.345,1349262801,50345,2,0.91943,0.23901,0.35986,-18.046,0.802,5.45
2026-05-22 16:02:03.545,1349263001,50545,1,0.93774,0.11377,0.32153,5.221,-0.397,0.206
2026-05-22 16:02:03.545,1349263001,50545,2,0.9314,0.25928,0.4165,10.939,-0.786,0.038
2026-05-22 16:02:04.745,1349264201,50745,1,0.9585,0.11646,0.31396,31.305,14.969,4.046
2026-05-22 16:02:04.745,1349264201,50745,2,0.92163,0.30884,0.51392,33.733,26.244,-7.107
2026-05-22 16:02:04.945,1349264401,50945,1,0.87183,0.229,0.36938,41.779,20.267,20.092
2026-05-22 16:02:04.945,1349264401,50945,2,0.87842,0.36694,0.54126,35.779,24.855,-11.885
2026-05-22 16:02:04.145,1349263601,51145,1,0.8479,0.32202,0.3877,43.542,16.405,23.656
2026-05-22 16:02:04.145,1349263601,51145,2,0.86206,0.47534,0.54468,40.687,24.908,-4.71
2026-05-22 16:02:04.345,1349263801,51345,1,0.84668,0.36865,0.3606,32.725,2.962,24.87
2026-05-22 16:02:04.345,1349263801,51345,2,0.75342,0.54248,0.49292,14.977,8.298,2.779
2026-05-22 16:02:04.545,1349264001,51545,1,0.94507,0.2998,0.37744,1.756,-41.229,29.695
2026-05-22 16:02:04.545,1349264001,51545,2,0.84717,0.51538,0.40405,-16.061,-6.557,-15.046
2026-05-22 16:02:05.745,1349265201,51745,1,1.00244,0.12476,0.17627,17.786,-7.71,14.84
2026-05-22 16:02:05.745,1349265201,51745,2,0.88281,0.44312,0.4917,18.412,8.076,1.176
2026-05-22 16:02:05.945,1349265401,51945,1,1.07104,0.01514,0.35645,-3.321,9.519,-1.244
2026-05-22 16:02:05.945,1349265401,51945,2,1.0083,0.48145,0.38623,-10.924,26.763,7.802
2026-05-22 16:02:05.145,1349264601,52145,1,0.90137,0.15894,0.29614,2.634,2.885,24.176
2026-05-22 16:02:05.145,1349264601,52145,2,0.92163,0.49414,0.59766,15.053,11.656,6.29
2026-05-22 16:02:05.345,1349264801,52345,1,0.8623,-0.00977,0.36304,-6.473,12.076,-4.519
2026-05-22 16:02:05.345,1349264801,52345,2,0.83496,0.37207,0.47827,-7.603,-1.405,12.939
2026-05-22 16:02:05.545,1349265001,52545,1,0.94067,0.03125,0.34399,-13.756,3.634,5.198
2026-05-22 16:02:05.545,1349265001,52545,2,0.8938,0.39941,0.53955,-17.58,-0.992,-8.244
2026-05-22 16:02:06.745,1349266201,52745,1,1.0,-0.00757,0.31763,-41.939,16.763,-12.29
2026-05-22 16:02:06.745,1349266201,52745,2,0.97412,0.40649,0.6333,-47.931,2.832,15.145
2026-05-22 16:02:06.945,1349266401,52945,1,0.85767,-0.11328,0.40552,-35.42,23.053,-40.122
2026-05-22 16:02:06.945,1349266401,52945,2,0.90601,0.21338,0.56055,-21.908,4.336,4.595
2026-05-22 16:02:06.145,1349265601,53145,1,0.85669,-0.01172,0.49536,-4.573,-2.344,-6.931
2026-05-22 16:02:06.145,1349265601,53145,2,0.91284,0.24146,0.5957,-3.977,-2.092,-5.771
2026-05-22 16:02:06.345,1349265801,53345,1,0.85522,0.00928,0.48193,7.29,-11.634,3.153
2026-05-22 16:02:06.345,1349265801,53345,2,0.9126,0.30371,0.62036,31.061,-9.008,-16.267
2026-05-22 16:02:06.545,1349266001,53545,1,0.90649,0.16602,0.36621,15.649,-5.901,8.504
2026-05-22 16:02:06.545,1349266001,53545,2,0.88354,0.35645,0.56787,26.16,-3.099,-13.748
2026-05-22 16:02:07.745,1349267201,53745,1,0.9519,0.05518,0.32959,29.038,-8.191,17.229
2026-05-22 16:02:07.745,1349267201,53745,2,0.88184,0.41846,0.50586,19.13,4.275,-2.756
2026-05-22 16:02:07.945,1349267401,53945,1,0.94507,0.07983,0.3252,16.26,-3.321,13.802
2026-05-22 16:02:07.945,1349267401,53945,2,0.8728,0.44043,0.49292,14.122,1.092,-4.282
2026-05-22 16:02:07.145,1349266601,54145,1,0.96167,0.06714,0.31006,5.565,2.71,4.74
2026-05-22 16:02:07.145,1349266601,54145,2,0.88159,0.45728,0.47852,-2.176,2.908,1.366
2026-05-22 16:02:07.345,1349266801,54345,1,0.93921,0.06934,0.32739,-2.145,3.947,-3.046
2026-05-22 16:02:07.345,1349266801,54345,2,0.88037,0.43115,0.47681,-3.908,3.16,5.344
2026-05-22 16:02:07.545,1349267001,54545,1,0.93652,0.06079,0.34814,-2.435,3.221,-0.069
2026-05-22 16:02:07.545,1349267001,54545,2,0.88623,0.41943,0.48071,-2.397,2.275,2.618
2026-05-22 16:02:08.745,1349268201,54745,1,0.92358,0.06567,0.3479,-1.756,0.42,0.481
2026-05-22 16:02:08.745,1349268201,54745,2,0.87451,0.41528,0.49805,1.13,0.725,0.695
2026-05-22 16:02:08.945,1349268401,54945,1,0.93359,0.06763,0.33887,-2.977,-1.878,1.473
2026-05-22 16:02:08.945,1349268401,54945,2,0.88696,0.43408,0.49976,1.878,0.573,0.214
2026-05-22 16:02:08.145,1349267601,55145,1,0.93799,0.05713,0.33105,-2.458,-0.557,1.534
2026-05-22 16:02:08.145,1349267601,55145,2,0.88599,0.42944,0.49683,0.023,0.962,0.229
2026-05-22 16:02:08.345,1349267801,55345,1,0.93799,0.05493,0.33716,-2.947,0.16,0.656
2026-05-22 16:02:08.345,1349267801,55345,2,0.8811,0.43604,0.49487,-1.183,1.115,1.702
2026-05-22 16:02:08.545,1349268001,55545,1,0.94165,0.05127,0.33398,-2.763,0.504,0.099
2026-05-22 16:02:08.545,1349268001,55545,2,0.87817,0.42407,0.48145,-2.237,0.763,1.573
2026-05-22 16:02:09.745,1349269201,55745,1,0.93677,0.04663,0.33032,-3.359,0.893,0.351
2026-05-22 16:02:09.745,1349269201,55745,2,0.87646,0.42798,0.48584,-2.397,1.626,2.221
2026-05-22 16:02:09.945,1349269401,55945,1,0.9353,0.0498,0.33545,-1.473,0.458,1.107
2026-05-22 16:02:09.945,1349269401,55945,2,0.87915,0.43604,0.48389,-1.214,1.557,1.779
2026-05-22 16:02:09.145,1349268601,56145,1,0.94604,0.05127,0.34326,-1.229,0.45,1.382
2026-05-22 16:02:09.145,1349268601,56145,2,0.87305,0.44019,0.49585,-0.053,1.733,2.084
2026-05-22 16:02:09.345,1349268801,56345,1,0.93799,0.04248,0.34497,-3.534,0.328,-1.061
2026-05-22 16:02:09.345,1349268801,56345,2,0.87793,0.42139,0.48926,0.916,-0.351,0.458
2026-05-22 16:02:09.577,1349269033,56577,1,0.93774,0.0542,0.33618,-0.702,-0.275,0.511
2026-05-22 16:02:09.577,1349269033,56577,2,0.88525,0.43091,0.47729,-0.382,1.344,0.863
2026-05-22 16:02:10.777,1349270233,56777,1,0.94019,0.03735,0.32935,0.74,-0.695,0.427
2026-05-22 16:02:10.777,1349270233,56777,2,0.87183,0.42651,0.49536,2.71,1.092,-0.092
2026-05-22 16:02:10.977,1349270433,56977,1,0.94238,0.04907,0.32959,1.015,-0.435,0.992
2026-05-22 16:02:10.977,1349270433,56977,2,0.86987,0.43652,0.47485,0.45,0.573,0.786
2026-05-22 16:02:10.177,1349269633,57177,1,0.94702,0.03857,0.32715,-2.427,-0.672,-0.74
2026-05-22 16:02:10.177,1349269633,57177,2,0.87109,0.42969,0.47632,-0.565,1.786,1.702
2026-05-22 16:02:10.377,1349269833,57377,1,0.94727,0.04639,0.32788,-1.061,-0.359,0.29
2026-05-22 16:02:10.377,1349269833,57377,2,0.87134,0.43823,0.48657,-0.145,0.977,1.0
2026-05-22 16:02:10.577,1349270033,57577,1,0.94263,0.04785,0.32227,-1.038,0.061,0.55
2026-05-22 16:02:10.577,1349270033,57577,2,0.87402,0.44385,0.47681,-0.046,0.473,1.076
2026-05-22 16:02:11.777,1349271233,57777,1,0.94165,0.05713,0.32666,-1.221,0.687,0.382
2026-05-22 16:02:11.777,1349271233,57777,2,0.87354,0.44922,0.48022,-1.511,1.885,1.855
2026-05-22 16:02:11.977,1349271433,57977,1,0.93823,0.0415,0.32617,-1.71,0.183,-0.336
2026-05-22 16:02:11.977,1349271433,57977,2,0.87231,0.44019,0.48633,-1.473,0.626,0.779
2026-05-22 16:02:11.177,1349270633,58177,1,0.94556,0.04565,0.31641,-0.817,-0.115,0.115
2026-05-22 16:02:11.177,1349270633,58177,2,0.87866,0.44189,0.47656,-0.076,1.069,0.885
2026-05-22 16:02:11.377,1349270833,58377,1,0.95483,0.04907,0.31616,1.237,0.359,1.069
2026-05-22 16:02:11.377,1349270833,58377,2,0.87231,0.43945,0.48389,0.481,1.58,1.305
2026-05-22 16:02:11.577,1349271033,58577,1,0.94702,0.05713,0.31885,-1.351,0.214,0.725
2026-05-22 16:02:11.577,1349271033,58577,2,0.87524,0.43994,0.47754,1.237,0.794,0.573
2026-05-22 16:02:12.777,1349272233,58777,1,0.94312,0.06934,0.30615,-3.557,1.802,1.542
2026-05-22 16:02:12.777,1349272233,58777,2,0.88159,0.4519,0.49023,-4.076,2.244,4.275
2026-05-22 16:02:12.977,1349272433,58977,1,0.92798,0.0083,0.29736,-5.802,10.573,-8.198
2026-05-22 16:02:12.977,1349272433,58977,2,0.90601,0.41528,0.47437,-13.527,12.84,6.908
2026-05-22 16:02:12.177,1349271633,59177,1,0.84155,0.11646,0.37134,20.954,56.183,-2.031
2026-05-22 16:02:12.177,1349271633,59177,2,0.92554,0.35132,0.60986,-9.305,42.847,29.099
2026-05-22 16:02:12.377,1349271833,59377,1,0.72314,0.17334,0.5459,17.87,56.275,16.374
2026-05-22 16:02:12.377,1349271833,59377,2,0.94873,0.38062,0.76733,23.206,51.634,49.595
2026-05-22 16:02:12.577,1349272033,59577,1,0.52783,0.04785,0.72217,-23.962,36.786,6.16
2026-05-22 16:02:12.577,1349272033,59577,2,0.79419,0.12183,0.823,-2.649,22.725,29.214
2026-05-22 16:02:13.777,1349273233,59777,1,0.46362,0.08618,0.75757,1.229,17.794,10.389
2026-05-22 16:02:13.777,1349273233,59777,2,0.77295,-0.04688,0.85327,-12.206,18.099,28.672
2026-05-22 16:02:13.977,1349273433,59977,1,0.50513,0.02563,0.76465,21.672,-3.107,25.023
2026-05-22 16:02:13.977,1349273433,59977,2,0.73389,0.1626,0.99561,21.565,-4.26,-4.435
2026-05-22 16:02:13.177,1349272633,60177,1,0.53467,0.07056,0.70068,16.634,10.725,-0.344
2026-05-22 16:02:13.177,1349272633,60177,2,0.83813,0.12524,0.84277,12.832,7.87,15.71
2026-05-22 16:02:13.377,1349272833,60377,1,0.63867,0.06738,0.66211,16.221,1.924,4.664
2026-05-22 16:02:13.377,1349272833,60377,2,0.77026,0.21997,0.85645,23.71,14.107,-10.198
2026-05-22 16:02:13.577,1349273033,60577,1,0.50977,0.12964,0.72461,-4.458,-2.985,-6.969
2026-05-22 16:02:13.577,1349273033,60577,2,0.89404,0.15723,1.04614,-0.099,-10.13,-0.344
2026-05-22 16:02:14.777,1349274233,60777,1,0.5105,0.1189,0.71167,5.603,7.916,9.634
2026-05-22 16:02:14.777,1349274233,60777,2,0.79297,0.24609,0.84839,-3.901,7.115,-2.229
2026-05-22 16:02:14.977,1349274433,60977,1,0.52173,0.12207,0.73828,-3.053,-2.763,-6.313
2026-05-22 16:02:14.977,1349274433,60977,2,0.82739,0.18042,0.92896,2.359,-2.069,1.015
2026-05-22 16:02:14.177,1349273633,61177,1,0.49438,0.12524,0.74585,-2.214,0.221,1.412
2026-05-22 16:02:14.177,1349273633,61177,2,0.8147,0.16943,0.92847,-5.702,0.748,-0.244
2026-05-22 16:02:14.377,1349273833,61377,1,0.5144,0.11548,0.72339,-0.901,-0.122,1.069
2026-05-22 16:02:14.377,1349273833,61377,2,0.82568,0.18726,0.91699,0.191,-0.214,2.939
2026-05-22 16:02:14.577,1349274033,61577,1,0.53345,0.13403,0.70508,-2.244,-3.076,-8.924
2026-05-22 16:02:14.577,1349274033,61577,2,0.82837,0.18677,0.90161,10.763,-3.084,9.099
2026-05-22 16:02:15.777,1349275233,61777,1,0.52344,0.13013,0.72949,-2.237,2.183,1.458
2026-05-22 16:02:15.777,1349275233,61777,2,0.81958,0.19604,0.91211,-7.427,1.824,-3.344
2026-05-22 16:02:15.977,1349275433,61977,1,0.52759,0.12964,0.72217,-2.061,-1.962,-3.626
2026-05-22 16:02:15.977,1349275433,61977,2,0.84521,0.18628,0.90625,-0.237,0.061,-0.176
2026-05-22 16:02:15.177,1349274633,62177,1,0.52173,0.14502,0.71021,0.496,-1.244,-0.031
2026-05-22 16:02:15.177,1349274633,62177,2,0.81592,0.20581,0.90332,2.374,3.557,-0.435
2026-05-22 16:02:15.377,1349274833,62377,1,0.53467,0.14209,0.71509,0.29,-0.031,-1.656
2026-05-22 16:02:15.377,1349274833,62377,2,0.82007,0.19995,0.90845,-1.122,1.87,-0.321
2026-05-22 16:02:15.577,1349275033,62577,1,0.53784,0.1543,0.70386,-1.229,-0.565,-3.305
2026-05-22 16:02:15.577,1349275033,62577,2,0.81787,0.19995,0.90479,-3.13,1.344,0.679
2026-05-22 16:02:16.777,1349276233,62777,1,0.52222,0.1604,0.69629,-1.954,0.527,-3.702
2026-05-22 16:02:16.777,1349276233,62777,2,0.82568,0.20874,0.8916,-1.817,0.405,1.305
2026-05-22 16:02:16.977,1349276433,62977,1,0.54004,0.15356,0.70728,-2.046,2.542,-3.855
2026-05-22 16:02:16.977,1349276433,62977,2,0.82813,0.20142,0.90259,-2.42,2.489,0.382
2026-05-22 16:02:16.177,1349275633,63177,1,0.50537,0.16675,0.70483,-3.176,3.489,-2.656
2026-05-22 16:02:16.177,1349275633,63177,2,0.82495,0.19971,0.92651,-0.237,0.26,1.58
2026-05-22 16:02:16.377,1349275833,63377,1,0.52661,0.18164,0.75098,-0.015,2.901,-1.962
2026-05-22 16:02:16.377,1349275833,63377,2,0.81274,0.17529,0.89014,-2.733,2.618,8.214
2026-05-22 16:02:16.577,1349276033,63577,1,0.54175,0.16772,0.7207,-4.496,-0.748,0.649
2026-05-22 16:02:16.577,1349276033,63577,2,0.84497,0.17529,0.87231,-1.275,-6.321,2.832
2026-05-22 16:02:17.777,1349277233,63777,1,0.52002,0.15112,0.72998,-8.237,-0.718,6.313
2026-05-22 16:02:17.777,1349277233,63777,2,0.81567,0.21118,0.91553,5.481,0.366,4.137
2026-05-22 16:02:17.977,1349277433,63977,1,0.51147,0.14185,0.72534,-1.45,-5.023,2.649
2026-05-22 16:02:17.977,1349277433,63977,2,0.83228,0.19238,0.89038,-0.29,2.16,2.015
2026-05-22 16:02:17.177,1349276633,64177,1,0.53442,0.1272,0.70386,-4.282,-0.458,-1.344
2026-05-22 16:02:17.177,1349276633,64177,2,0.83398,0.19629,0.90576,-1.695,5.924,-0.687
2026-05-22 16:02:17.377,1349276833,64377,1,0.52588,0.1438,0.71338,-3.107,1.458,-3.008
2026-05-22 16:02:17.377,1349276833,64377,2,0.82861,0.18286,0.91064,-0.344,2.656,-0.206
2026-05-22 16:02:17.577,1349277033,64577,1,0.53979,0.13354,0.71362,-2.321,-0.504,-1.931
2026-05-22 16:02:17.577,1349277033,64577,2,0.82275,0.19946,0.9126,-2.229,1.534,0.046
2026-05-22 16:02:18.777,1349278233,64777,1,0.52124,0.13696,0.71631,-3.015,1.702,-2.58
2026-05-22 16:02:18.777,1349278233,64777,2,0.82349,0.1936,0.90503,-2.916,0.382,0.733
2026-05-22 16:02:18.977,1349278433,64977,1,0.521,0.14917,0.72656,-2.588,0.16,-1.229
2026-05-22 16:02:18.977,1349278433,64977,2,0.823,0.19336,0.90503,-0.863,-0.389,1.344
2026-05-22 16:02:18.177,1349277633,65177,1,0.51489,0.14746,0.72363,-2.221,0.252,-1.427
2026-05-22 16:02:18.177,1349277633,65177,2,0.8103,0.2019,0.92163,-0.229,0.29,1.069
2026-05-22 16:02:18.377,1349277833,65377,1,0.47681,0.17383,0.7002,6.87,-1.947,-5.687
2026-05-22 16:02:18.377,1349277833,65377,2,0.77686,0.24463,0.98682,-15.557,2.885,-11.702
2026-05-22 16:02:18.577,1349278033,65577,1,0.5061,0.27295,0.68945,4.267,-7.031,-18.26
2026-05-22 16:02:18.577,1349278033,65577,2,0.83374,0.16187,0.87134,-18.466,5.656,7.321
2026-05-22 16:02:19.777,1349279233,65777,1,0.54834,0.35181,0.74414,-0.435,-14.687,-2.687
2026-05-22 16:02:19.777,1349279233,65777,2,0.88086,0.26294,0.76123,-2.969,-29.847,14.389
2026-05-22 16:02:19.977,1349279433,65977,1,0.59497,0.27197,0.66577,-28.908,-33.443,6.527
2026-05-22 16:02:19.977,1349279433,65977,2,1.10791,0.22241,0.86719,-10.13,-61.985,0.328
2026-05-22 16:02:19.177,1349278633,66177,1,0.61182,0.07104,0.52539,-20.786,-70.305,27.099
2026-05-22 16:02:19.177,1349278633,66177,2,1.02466,0.09863,0.52905,11.008,-71.84,-19.099
2026-05-22 16:02:19.377,1349278833,66377,1,0.85376,-0.17114,0.39502,-4.527,-56.336,27.214
2026-05-22 16:02:19.377,1349278833,66377,2,1.10107,0.15796,0.47363,14.038,-37.412,-30.008
2026-05-22 16:02:19.577,1349279033,66577,1,0.95557,-0.16455,0.25806,-0.305,-19.855,17.626
2026-05-22 16:02:19.577,1349279033,66577,2,0.96216,0.20752,0.3728,8.443,-14.855,-1.786
2026-05-22 16:02:20.777,1349280233,66777,1,0.96948,-0.23804,0.28223,9.229,-2.198,-12.588
2026-05-22 16:02:20.777,1349280233,66777,2,0.9353,0.28687,0.35645,13.573,10.099,-7.435
2026-05-22 16:02:20.977,1349280433,66977,1,0.98755,-0.16382,0.19458,-10.954,34.168,-27.382
2026-05-22 16:02:20.977,1349280433,66977,2,0.92188,0.15601,0.31201,-45.618,26.198,1.466
2026-05-22 16:02:20.177,1349279633,67177,1,0.99585,-0.18799,0.49805,25.229,17.817,-7.389
2026-05-22 16:02:20.177,1349279633,67177,2,1.0188,0.28296,0.67554,17.466,39.16,-0.878
2026-05-22 16:02:20.377,1349279833,67377,1,0.75391,0.14258,0.53198,-7.786,-12.481,5.198
2026-05-22 16:02:20.377,1349279833,67377,2,0.95972,0.21558,0.68848,-10.336,-22.954,8.122
2026-05-22 16:02:20.577,1349280033,67577,1,0.85034,0.06055,0.47046,0.107,-0.26,5.374
2026-05-22 16:02:20.577,1349280033,67577,2,0.92383,0.26123,0.6272,-0.084,0.321,-19.313
2026-05-22 16:02:21.777,1349281233,67777,1,0.83911,0.11182,0.479,-3.702,2.733,-1.924
2026-05-22 16:02:21.777,1349281233,67777,2,0.93604,0.21094,0.55786,-6.595,-0.931,12.282
2026-05-22 16:02:21.977,1349281433,67977,1,0.82373,-0.01733,0.46777,-5.115,-7.366,2.817
2026-05-22 16:02:21.977,1349281433,67977,2,0.94922,0.27881,0.54199,1.344,-19.221,-14.519
2026-05-22 16:02:21.177,1349280633,68177,1,0.80688,-0.02661,0.31885,-25.962,0.481,-4.336
2026-05-22 16:02:21.177,1349280633,68177,2,0.99194,0.13452,0.47168,-51.405,-24.977,1.718
2026-05-22 16:02:21.377,1349280833,68377,1,0.83008,-0.05493,0.39209,-30.527,3.336,-17.924
2026-05-22 16:02:21.377,1349280833,68377,2,0.99365,0.23389,0.44263,-90.687,-17.618,-30.534
2026-05-22 16:02:21.577,1349281033,68577,1,0.99048,-0.1228,0.30347,-5.931,-10.16,-7.214
2026-05-22 16:02:21.577,1349281033,68577,2,1.02637,0.1936,0.38184,5.023,0.863,11.214
2026-05-22 16:02:22.777,1349282233,68777,1,0.85181,-0.08398,0.3042,-28.496,34.092,4.542
2026-05-22 16:02:22.777,1349282233,68777,2,0.87915,0.11938,0.38232,-13.16,20.573,50.626
2026-05-22 16:02:22.977,1349282433,68977,1,0.77075,-0.11938,0.56812,45.053,22.725,17.855
2026-05-22 16:02:22.977,1349282433,68977,2,0.91626,0.06885,0.43408,31.595,16.656,-11.221
2026-05-22 16:02:22.177,1349281633,69177,1,0.70947,-0.01563,0.46948,12.382,-22.321,16.809
2026-05-22 16:02:22.177,1349281633,69177,2,0.84644,0.30737,0.58813,27.504,-25.137,-17.038
2026-05-22 16:02:22.377,1349281833,69377,1,0.92993,0.08789,0.37305,-3.626,-21.282,-24.344
2026-05-22 16:02:22.377,1349281833,69377,2,0.8501,0.43872,0.51782,0.176,-10.954,-25.359
2026-05-22 16:02:22.577,1349282033,69577,1,0.89795,0.146,0.29443,6.595,-13.969,-15.046
2026-05-22 16:02:22.577,1349282033,69577,2,0.80811,0.46729,0.4165,9.74,-8.511,-18.26
2026-05-22 16:02:23.777,1349283233,69777,1,1.00757,0.27515,0.16895,-26.573,-18.84,-23.847
2026-05-22 16:02:23.777,1349283233,69777,2,0.8291,0.54736,0.39258,-9.786,-15.595,6.595
2026-05-22 16:02:23.977,1349283433,69977,1,0.98047,0.2793,0.146,-54.863,-6.0,-29.649
2026-05-22 16:02:23.977,1349283433,69977,2,0.80981,0.6333,0.34326,-62.458,-37.55,1.076
2026-05-22 16:02:23.177,1349282633,70177,1,0.97144,0.03369,0.12476,-79.641,25.817,-32.573
2026-05-22 16:02:23.177,1349282633,70177,2,0.94092,0.12573,0.41821,-20.893,56.069,26.649
2026-05-22 16:02:23.377,1349282833,70377,1,0.75391,-0.09253,0.49292,-31.206,39.832,-11.481
2026-05-22 16:02:23.377,1349282833,70377,2,0.62866,0.10913,0.60254,-25.977,53.466,21.763
2026-05-22 16:02:23.577,1349283033,70577,1,0.49463,-0.03296,0.4707,2.771,38.87,-6.588
2026-05-22 16:02:23.577,1349283033,70577,2,0.66895,0.08032,0.85791,19.466,25.229,10.252
2026-05-22 16:02:24.777,1349284233,70777,1,0.54028,0.13794,0.81982,10.252,0.824,-0.557
2026-05-22 16:02:24.777,1349284233,70777,2,0.76904,0.29053,1.02319,56.504,-39.947,-13.145
2026-05-22 16:02:24.977,1349284433,70977,1,0.99097,0.15869,0.7439,-13.405,18.641,10.313
2026-05-22 16:02:24.977,1349284433,70977,2,0.79932,0.32349,0.50806,-23.397,1.359,3.473
2026-05-22 16:02:24.177,1349283633,71177,1,1.24756,0.03931,0.31348,1.847,-23.366,18.466
2026-05-22 16:02:24.177,1349283633,71177,2,1.0498,0.39673,0.49512,1.328,21.397,-2.015
2026-05-22 16:02:24.377,1349283833,71377,1,0.98291,0.0625,0.32129,-1.198,18.71,-7.756
2026-05-22 16:02:24.377,1349283833,71377,2,1.04297,0.2998,0.60278,-7.786,40.015,9.87
2026-05-22 16:02:24.577,1349284033,71577,1,0.86328,0.17065,0.9165,-6.466,28.534,-5.618
2026-05-22 16:02:24.577,1349284033,71577,2,1.07153,0.33521,0.90869,-30.191,10.542,2.977
2026-05-22 16:02:25.777,1349285233,71777,1,0.677,0.06226,0.73511,5.267,-34.687,-2.336
2026-05-22 16:02:25.777,1349285233,71777,2,0.86426,0.23975,0.71802,26.656,-48.557,-13.214
2026-05-22 16:02:25.977,1349285433,71977,1,0.65625,0.01367,0.23633,-9.092,-49.191,3.985
2026-05-22 16:02:25.977,1349285433,71977,2,0.62036,0.19556,0.51465,13.55,-41.672,-5.168
2026-05-22 16:02:25.177,1349284633,72177,1,0.87891,0.13452,0.26196,-24.176,-27.443,-1.977
2026-05-22 16:02:25.177,1349284633,72177,2,0.93994,0.33301,0.48438,-49.641,-40.13,-2.863
2026-05-22 16:02:25.377,1349284833,72377,1,1.00195,-0.00464,0.23633,-19.969,-10.924,0.687
2026-05-22 16:02:25.377,1349284833,72377,2,0.90552,0.37231,0.36548,-9.954,-6.725,13.046
2026-05-22 16:02:25.577,1349285033,72577,1,0.95532,-0.01245,0.20093,-30.603,-1.26,-19.534
2026-05-22 16:02:25.577,1349285033,72577,2,0.96484,0.29956,0.32373,-9.809,-3.496,7.053
2026-05-22 16:02:26.777,1349286233,72777,1,0.96265,-0.01343,0.271,-12.0,5.298,-14.397
2026-05-22 16:02:26.777,1349286233,72777,2,0.91455,0.30127,0.22852,-4.954,10.847,7.557
2026-05-22 16:02:26.977,1349286433,72977,1,1.00391,-0.01099,0.23291,-8.031,-6.908,-5.328
2026-05-22 16:02:26.977,1349286433,72977,2,0.95313,0.28369,0.22949,-7.664,-3.145,-2.878
2026-05-22 16:02:26.177,1349285633,73177,1,0.92725,-0.00244,0.23364,-0.237,-0.603,7.985
2026-05-22 16:02:26.177,1349285633,73177,2,0.96069,0.29224,0.37134,4.344,2.878,6.893
2026-05-22 16:02:26.377,1349285833,73377,1,0.97192,0.01636,0.21875,8.344,5.878,8.344
2026-05-22 16:02:26.377,1349285833,73377,2,0.99512,0.32202,0.26904,33.916,-17.29,-11.496
2026-05-22 16:02:26.577,1349286033,73577,1,1.02588,0.09619,0.27051,16.802,-7.664,10.382
2026-05-22 16:02:26.577,1349286033,73577,2,0.94409,0.27661,0.32568,22.618,6.282,9.725
2026-05-22 16:02:27.780,1349287236,73780,1,0.94727,0.09448,0.26147,4.687,7.794,10.13
2026-05-22 16:02:27.780,1349287236,73780,2,0.87109,0.36646,0.32104,-27.382,18.687,24.29
2026-05-22 16:02:27.980,1349287436,73980,1,0.93652,0.0249,0.30518,-9.031,-11.885,8.794
2026-05-22 16:02:27.980,1349287436,73980,2,0.89648,0.40845,0.24414,-120.847,46.298,-6.313
2026-05-22 16:02:27.180,1349286636,74180,1,1.15649,-0.198,0.34985,-31.679,24.397,-14.168
2026-05-22 16:02:27.180,1349286636,74180,2,1.09058,0.18994,0.47803,-45.855,26.359,12.29
2026-05-22 16:02:27.380,1349286836,74380,1,0.93164,-0.19092,0.16992,-14.992,7.954,-9.412
2026-05-22 16:02:27.380,1349286836,74380,2,1.71094,-0.03149,0.18115,-93.183,-86.664,-54.229
2026-05-22 16:02:27.580,1349287036,74580,1,0.99243,-0.12207,0.17358,21.679,-3.176,-2.015
2026-05-22 16:02:27.580,1349287036,74580,2,0.95435,0.24194,0.44849,47.313,0.534,-15.969
2026-05-22 16:02:28.780,1349288236,74780,1,0.95898,0.0127,0.27124,41.466,-4.832,4.427
2026-05-22 16:02:28.780,1349288236,74780,2,0.74097,0.49048,0.68726,37.71,-8.389,-32.252
2026-05-22 16:02:28.980,1349288436,74980,1,0.97217,-0.03418,0.21289,10.847,5.351,12.84
2026-05-22 16:02:28.980,1349288436,74980,2,0.97949,0.07739,0.96533,83.947,-6.992,21.977
2026-05-22 16:02:28.180,1349287636,75180,1,0.9458,0.10425,0.26074,15.664,2.817,0.588
2026-05-22 16:02:28.180,1349287636,75180,2,0.88184,0.29956,0.65039,26.115,-4.412,-4.656
2026-05-22 16:02:28.380,1349287836,75380,1,0.90503,0.11523,0.30835,-4.817,1.252,-8.26
2026-05-22 16:02:28.380,1349287836,75380,2,0.89063,0.41992,0.58862,2.954,-9.939,-2.832
2026-05-22 16:02:28.580,1349288036,75580,1,0.93604,0.07813,0.28149,5.122,-2.374,-8.397
2026-05-22 16:02:28.580,1349288036,75580,2,0.91699,0.32642,0.56909,25.153,-13.802,-4.649
2026-05-22 16:02:29.780,1349289236,75780,1,1.021,0.12598,0.25586,4.137,12.756,-3.809
2026-05-22 16:02:29.780,1349289236,75780,2,0.91797,0.35693,0.52271,-6.145,18.885,12.076
2026-05-22 16:02:29.980,1349289436,75980,1,0.94653,0.19263,0.26001,-2.366,19.466,11.038
2026-05-22 16:02:29.980,1349289436,75980,2,0.93188,0.33813,0.6333,-20.863,16.176,15.374
2026-05-22 16:02:29.180,1349288636,76180,1,0.76733,0.09814,0.1311,-3.221,53.878,10.092
2026-05-22 16:02:29.180,1349288636,76180,2,0.57568,0.0022,0.81836,3.214,36.252,52.534
2026-05-22 16:02:29.469,1349288925,76469,1,0.41992,0.13159,0.7417,0.87,37.725,-7.183
2026-05-22 16:02:29.469,1349288925,76469,2,0.6936,0.12476,0.98804,-15.504,23.076,-0.466
2026-05-22 16:02:29.669,1349289125,76669,1,0.87085,-0.02734,1.15796,-15.985,-68.496,-8.061
2026-05-22 16:02:29.669,1349289125,76669,2,1.70093,0.23828,1.21509,8.756,13.695,-14.344
2026-05-22 16:02:30.869,1349290325,76869,1,0.57959,-0.03003,0.31885,14.557,-76.313,16.282
2026-05-22 16:02:30.869,1349290325,76869,2,0.82861,0.33374,0.70947,41.137,-62.183,-53.359
2026-05-22 16:02:30.069,1349289525,77069,1,0.91602,0.13232,0.29565,-3.641,-4.794,0.359
2026-05-22 16:02:30.069,1349289525,77069,2,0.86084,0.4104,0.50903,0.221,-21.328,-6.718
2026-05-22 16:02:30.269,1349289725,77269,1,1.02173,0.11401,0.28833,5.023,-2.565,5.115
2026-05-22 16:02:30.269,1349289725,77269,2,0.8894,0.41992,0.43311,11.344,-1.679,-5.863
2026-05-22 16:02:30.469,1349289925,77469,1,0.95288,0.10693,0.2981,-0.328,-13.748,3.969
2026-05-22 16:02:30.469,1349289925,77469,2,0.9043,0.48364,0.05566,66.939,-37.122,-26.16
2026-05-22 16:02:30.669,1349290125,77669,1,0.96729,0.12524,0.28369,-11.603,3.924,13.611
2026-05-22 16:02:30.669,1349290125,77669,2,0.85181,0.39648,0.16528,1.473,20.641,17.664
2026-05-22 16:02:31.869,1349291325,77869,1,0.91187,-0.07275,0.43286,-21.893,33.313,-6.565
2026-05-22 16:02:31.869,1349291325,77869,2,0.93799,0.33105,0.19971,-22.527,38.046,3.092
2026-05-22 16:02:31.069,1349290525,78069,1,0.88281,-0.04004,0.4939,-0.695,5.275,-3.847
2026-05-22 16:02:31.069,1349290525,78069,2,0.9834,0.30103,0.27661,40.183,60.298,3.435
2026-05-22 16:02:31.269,1349290725,78269,1,0.69482,0.0957,0.61206,-26.725,24.595,-60.237
2026-05-22 16:02:31.269,1349290725,78269,2,0.84277,0.30005,0.27759,-57.679,-21.053,-9.191
2026-05-22 16:02:31.469,1349290925,78469,1,0.87305,-0.0249,0.33569,1.969,-23.954,1.038
2026-05-22 16:02:31.469,1349290925,78469,2,0.58301,0.24072,0.32837,-5.511,-48.45,-9.275
2026-05-22 16:02:31.669,1349291125,78669,1,0.91235,0.01025,0.34424,-7.771,-2.786,1.046
2026-05-22 16:02:31.669,1349291125,78669,2,0.95386,0.25171,0.47461,-12.687,19.206,5.931
2026-05-22 16:02:32.869,1349292325,78869,1,0.86743,-0.07349,0.29663,22.321,26.153,9.069
2026-05-22 16:02:32.869,1349292325,78869,2,0.88623,0.48877,0.59888,67.221,26.359,-6.328
2026-05-22 16:02:32.069,1349291525,79069,1,0.90552,-0.05322,0.38354,-1.229,6.458,1.824
2026-05-22 16:02:32.069,1349291525,79069,2,0.87573,0.35498,0.4939,-14.695,11.489,5.687
2026-05-22 16:02:32.269,1349291725,79269,1,0.9187,-0.04248,0.36841,-0.122,0.733,1.527
2026-05-22 16:02:32.269,1349291725,79269,2,0.86719,0.36987,0.49463,-14.053,-7.649,-3.435
2026-05-22 16:02:32.469,1349291925,79469,1,0.96753,-0.06616,0.4126,-8.634,-8.092,-12.038
2026-05-22 16:02:32.469,1349291925,79469,2,0.86133,0.36768,0.47388,19.58,0.244,-2.275
2026-05-22 16:02:32.669,1349292125,79669,1,0.93677,-0.03735,0.34766,0.145,4.267,-1.336
2026-05-22 16:02:32.669,1349292125,79669,2,0.90234,0.43018,0.46631,3.664,-1.901,-2.366
2026-05-22 16:02:33.869,1349293325,79869,1,0.9375,-0.04517,0.34741,-1.412,1.099,-0.695
2026-05-22 16:02:33.869,1349293325,79869,2,0.91235,0.37549,0.48926,-7.198,-0.305,-0.29
2026-05-22 16:02:33.069,1349292525,80069,1,0.93652,-0.04492,0.36523,-4.405,1.496,-2.053
2026-05-22 16:02:33.069,1349292525,80069,2,0.92676,0.35645,0.32495,-68.427,29.206,13.198
2026-05-22 16:02:33.269,1349292725,80269,1,0.9187,-0.03613,0.37207,5.191,4.641,0.229
2026-05-22 16:02:33.269,1349292725,80269,2,0.89209,0.18628,0.41113,-136.595,-24.885,23.733
2026-05-22 16:02:33.469,1349292925,80469,1,0.91162,-0.04102,0.33984,0.435,5.977,5.466
2026-05-22 16:02:33.469,1349292925,80469,2,0.81543,0.30713,0.47046,-3.603,142.939,19.038
2026-05-22 16:02:33.669,1349293125,80669,1,0.91528,-0.07471,0.39453,2.42,18.893,1.565
2026-05-22 16:02:33.669,1349293125,80669,2,1.02466,0.31567,0.97974,-190.282,-77.542,-18.847
2026-05-22 16:02:34.869,1349294325,80869,1,0.88281,-0.04053,0.40454,-2.992,-0.748,4.168
2026-05-22 16:02:34.869,1349294325,80869,2,0.79175,0.21533,0.86499,-10.13,39.176,-16.252
2026-05-22 16:02:34.069,1349293525,81069,1,0.88696,-0.06909,0.41113,5.687,2.74,3.863
2026-05-22 16:02:34.069,1349293525,81069,2,1.0188,0.34058,0.73486,23.366,-101.397,-8.275
2026-05-22 16:02:34.269,1349293725,81269,1,0.89038,-0.04712,0.40063,-3.534,-0.718,1.282
2026-05-22 16:02:34.269,1349293725,81269,2,1.19043,0.55249,0.40015,197.947,-56.16,-40.802
2026-05-22 16:02:34.469,1349293925,81469,1,0.85791,-0.11792,0.4812,-12.595,-0.542,2.969
2026-05-22 16:02:34.469,1349293925,81469,2,-0.63843,-0.94897,-0.58472,76.176,3.542,-0.366
2026-05-22 16:02:34.669,1349294125,81669,1,0.7395,-0.07935,0.48657,-44.687,-17.977,-1.229
2026-05-22 16:02:34.669,1349294125,81669,2,0.625,0.21875,0.06177,-38.687,-93.183,45.115
2026-05-22 16:02:35.869,1349295325,81869,1,0.86914,-0.06714,0.36011,6.412,12.534,3.092
2026-05-22 16:02:35.869,1349295325,81869,2,0.79395,0.16553,0.19604,8.779,87.214,56.282
2026-05-22 16:02:35.069,1349294525,82069,1,0.93091,-0.04712,0.36768,-3.779,-12.031,-2.198
2026-05-22 16:02:35.069,1349294525,82069,2,0.9563,0.22266,0.06226,19.931,29.756,61.634
2026-05-22 16:02:35.269,1349294725,82269,1,0.91772,-0.01855,0.36572,-0.794,2.16,0.023
2026-05-22 16:02:35.269,1349294725,82269,2,0.81104,0.18945,0.46289,-10.366,51.878,-20.107
2026-05-22 16:02:35.469,1349294925,82469,1,0.92529,-0.02295,0.3606,-3.824,-2.725,-0.695
2026-05-22 16:02:35.469,1349294925,82469,2,1.00854,0.11841,0.39063,23.878,6.779,-18.16
2026-05-22 16:02:35.669,1349295125,82669,1,0.93433,-0.01904,0.36182,-1.473,0.237,-1.176
2026-05-22 16:02:35.669,1349295125,82669,2,0.91113,0.13574,0.43481,93.031,-17.275,-39.611
2026-05-22 16:02:36.869,1349296325,82869,1,0.94678,-0.01807,0.354,-7.817,-1.916,1.58
2026-05-22 16:02:36.869,1349296325,82869,2,0.94434,0.16162,0.40112,-31.366,24.718,17.58
2026-05-22 16:02:36.069,1349295525,83069,1,0.88062,-0.06909,0.32178,-30.275,1.718,1.168
2026-05-22 16:02:36.069,1349295525,83069,2,0.95557,0.17944,0.45215,12.565,10.0,4.985
2026-05-22 16:02:36.269,1349295725,83269,1,0.90186,-0.07861,0.38989,4.305,3.74,-3.878
2026-05-22 16:02:36.269,1349295725,83269,2,0.93335,0.10889,0.39087,5.305,-3.786,25.656
2026-05-22 16:02:36.469,1349295925,83469,1,0.9126,-0.08716,0.37671,-1.618,0.504,1.687
2026-05-22 16:02:36.469,1349295925,83469,2,0.93311,0.02905,0.42773,-6.305,-2.267,4.672
2026-05-22 16:02:36.669,1349296125,83669,1,0.90918,-0.07764,0.40259,-1.481,-0.817,-1.038
2026-05-22 16:02:36.669,1349296125,83669,2,0.96436,-0.01733,0.42505,9.557,-25.366,-1.061
2026-05-22 16:02:37.869,1349297325,83869,1,0.90283,-0.06738,0.38525,-2.626,-4.626,0.267
2026-05-22 16:02:37.869,1349297325,83869,2,0.89551,-0.16187,0.70728,15.344,-32.473,-26.473
2026-05-22 16:02:37.069,1349296525,84069,1,0.9187,-0.07568,0.36694,-3.282,-2.924,-1.275
2026-05-22 16:02:37.069,1349296525,84069,2,1.01318,0.10156,0.15723,-129.84,20.229,39.771
2026-05-22 16:02:37.269,1349296725,84269,1,0.91479,-0.06079,0.37036,6.061,5.557,0.885
2026-05-22 16:02:37.269,1349296725,84269,2,0.89795,-0.11523,0.20898,74.435,63.344,13.473
2026-05-22 16:02:37.469,1349296925,84469,1,0.90845,-0.07471,0.36499,-2.519,2.405,-4.29
2026-05-22 16:02:37.469,1349296925,84469,2,0.93262,-0.03027,0.57935,28.069,-0.824,14.664
2026-05-22 16:02:37.669,1349297125,84669,1,0.91431,-0.06982,0.37744,2.382,8.878,-1.221
2026-05-22 16:02:37.669,1349297125,84669,2,1.02075,-0.13745,0.48584,22.916,21.679,-26.435
2026-05-22 16:02:38.869,1349298325,84869,1,0.92163,-0.0564,0.37573,-3.496,0.389,-2.664
2026-05-22 16:02:38.869,1349298325,84869,2,0.95142,-0.02393,0.59644,-0.107,-12.366,-3.496
2026-05-22 16:02:38.069,1349297525,85069,1,0.87427,-0.04614,0.41309,-3.397,4.29,-2.214
2026-05-22 16:02:38.069,1349297525,85069,2,0.98047,-0.03833,0.52881,-67.924,-26.893,-13.183
2026-05-22 16:02:38.269,1349297725,85269,1,0.89941,-0.04932,0.39258,-0.817,-0.656,-0.725
2026-05-22 16:02:38.269,1349297725,85269,2,0.98779,-0.02368,0.51733,-5.198,-12.595,-1.191
2026-05-22 16:02:38.469,1349297925,85469,1,0.91406,-0.0647,0.38232,-1.794,-1.519,0.427
2026-05-22 16:02:38.469,1349297925,85469,2,0.95337,-0.00317,0.51807,-13.366,2.656,-1.244
2026-05-22 16:02:38.669,1349298125,85669,1,0.91504,-0.05811,0.37305,-1.435,0.046,-0.74
2026-05-22 16:02:38.669,1349298125,85669,2,0.96191,-0.02734,0.56567,-6.931,0.771,1.176
2026-05-22 16:02:39.869,1349299325,85869,1,0.91528,-0.08154,0.38013,0.145,3.931,-0.023
2026-05-22 16:02:39.869,1349299325,85869,2,0.96411,0.02539,0.55396,28.74,-47.015,-2.229
2026-05-22 16:02:39.069,1349298525,86069,1,0.89966,-0.06665,0.40552,0.977,1.893,1.168
2026-05-22 16:02:39.069,1349298525,86069,2,0.94702,-0.00439,0.48242,6.809,-18.13,-10.939
2026-05-22 16:02:39.269,1349298725,86269,1,0.90332,-0.07666,0.39722,-1.779,0.489,-1.351
2026-05-22 16:02:39.269,1349298725,86269,2,0.979,-0.00317,0.50293,24.13,-4.466,5.443
2026-05-22 16:02:39.469,1349298925,86469,1,0.93457,-0.0376,0.39355,11.733,2.198,-5.702
2026-05-22 16:02:39.469,1349298925,86469,2,0.94214,-0.02075,0.50049,31.84,27.267,15.847
2026-05-22 16:02:39.669,1349299125,86669,1,0.8877,-0.0144,0.40063,-3.298,-0.687,0.053
2026-05-22 16:02:39.669,1349299125,86669,2,0.93311,-0.08057,0.5896,50.435,26.374,56.718
2026-05-22 16:02:40.869,1349300325,86869,1,0.90161,-0.01831,0.4104,-1.947,0.389,-0.519
2026-05-22 16:02:40.869,1349300325,86869,2,0.94434,-0.1062,0.53125,-11.389,-46.008,3.748
2026-05-22 16:02:40.069,1349299525,87069,1,0.89233,-0.03101,0.4021,-4.954,-0.817,-0.076
2026-05-22 16:02:40.069,1349299525,87069,2,1.0498,0.24976,0.45215,-56.412,42.076,-26.229
2026-05-22 16:02:40.269,1349299725,87269,1,0.9021,-0.03052,0.40747,-1.443,0.435,0.145
2026-05-22 16:02:40.269,1349299725,87269,2,0.98438,-0.00122,0.43726,21.023,16.473,3.397
2026-05-22 16:02:40.469,1349299925,87469,1,0.89893,-0.03076,0.40503,-3.015,3.565,-0.824
2026-05-22 16:02:40.469,1349299925,87469,2,0.99731,-0.10864,0.62012,-68.298,21.74,38.137
2026-05-22 16:02:40.669,1349300125,87669,1,0.90674,-0.02466,0.38086,-1.046,-1.618,-2.84
2026-05-22 16:02:40.669,1349300125,87669,2,0.948,-0.06494,0.64355,-2.061,-0.45,0.763
2026-05-22 16:02:41.869,1349301325,87869,1,0.86182,-0.02319,0.41968,-0.679,1.84,-2.298
2026-05-22 16:02:41.869,1349301325,87869,2,0.94702,0.0271,0.48779,-51.595,-14.74,-6.015
2026-05-22 16:02:41.069,1349300525,88069,1,0.89819,-0.00879,0.41675,1.229,-1.985,-1.221
2026-05-22 16:02:41.069,1349300525,88069,2,0.96851,-0.03247,0.50684,-11.252,7.87,-2.542
2026-05-22 16:02:41.269,1349300725,88269,1,0.91309,-0.04272,0.37036,9.695,2.351,3.511
2026-05-22 16:02:41.269,1349300725,88269,2,1.01563,0.0083,0.51221,-13.588,8.466,-10.962
2026-05-22 16:02:41.469,1349300925,88469,1,0.94141,0.00854,0.3833,31.015,13.542,3.534
2026-05-22 16:02:41.469,1349300925,88469,2,0.99463,0.06006,0.4873,8.481,8.931,-11.382
2026-05-22 16:02:41.669,1349301125,88669,1,0.78857,0.16284,0.54395,-0.626,27.092,-14.42
2026-05-22 16:02:41.669,1349301125,88669,2,0.91187,0.13257,0.64697,-10.947,14.679,2.405
2026-05-22 16:02:42.869,1349302325,88869,1,0.75415,0.03589,0.55762,-27.076,12.282,-11.305
2026-05-22 16:02:42.869,1349302325,88869,2,0.92139,-0.01367,0.63623,-11.603,9.985,2.313
2026-05-22 16:02:42.069,1349301525,89069,1,0.78003,0.09399,0.56592,-7.817,13.191,3.076
2026-05-22 16:02:42.069,1349301525,89069,2,0.95142,0.07666,0.61475,-5.863,9.344,0.924
2026-05-22 16:02:42.269,1349301725,89269,1,0.71729,0.06299,0.60913,-11.084,7.962,-5.924
2026-05-22 16:02:42.269,1349301725,89269,2,0.92236,0.03955,0.65845,-8.809,2.969,6.977
2026-05-22 16:02:42.469,1349301925,89469,1,0.70142,0.01465,0.61304,-4.939,-1.962,-2.817
2026-05-22 16:02:42.469,1349301925,89469,2,0.94116,0.01807,0.65649,-0.42,-5.351,4.87
2026-05-22 16:02:42.669,1349302125,89669,1,0.72437,0.03418,0.59448,0.336,-0.794,0.221
2026-05-22 16:02:42.669,1349302125,89669,2,0.97632,0.00195,0.63696,-5.809,0.313,6.427
2026-05-22 16:02:43.869,1349303325,89869,1,0.73193,0.04199,0.59521,0.718,2.519,1.588
2026-05-22 16:02:43.869,1349303325,89869,2,0.9502,-0.00806,0.62573,-0.573,4.038,3.977
2026-05-22 16:02:43.069,1349302525,90069,1,0.71826,0.04077,0.62866,-0.763,3.511,5.076
2026-05-22 16:02:43.069,1349302525,90069,2,0.94678,0.0083,0.65088,-1.672,3.725,5.336
2026-05-22 16:02:43.269,1349302725,90269,1,0.69287,0.00562,0.6123,-5.198,1.061,2.42
2026-05-22 16:02:43.269,1349302725,90269,2,0.94385,-0.02368,0.66675,1.214,0.992,1.534
2026-05-22 16:02:43.469,1349302925,90469,1,0.72021,0.01221,0.62134,-0.756,-1.763,4.038
2026-05-22 16:02:43.469,1349302925,90469,2,0.95142,-0.00122,0.64819,2.023,0.588,-2.351
2026-05-22 16:02:43.669,1349303125,90669,1,0.71606,0.03125,0.60449,-5.008,-1.702,1.908
2026-05-22 16:02:43.669,1349303125,90669,2,0.94751,0.01489,0.6499,-14.13,1.374,-0.534
2026-05-22 16:02:44.869,1349304325,90869,1,0.71362,-0.01245,0.60278,1.496,-0.366,-0.298
2026-05-22 16:02:44.869,1349304325,90869,2,0.94849,-0.02051,0.65259,-2.634,1.237,1.214
2026-05-22 16:02:44.069,1349303525,91069,1,0.70337,0.02246,0.60547,-0.634,-2.366,-2.053
2026-05-22 16:02:44.069,1349303525,91069,2,0.94116,-0.00684,0.64502,-6.794,0.893,2.031
2026-05-22 16:02:44.269,1349303725,91269,1,0.73169,0.04248,0.58032,0.092,-0.969,1.137
2026-05-22 16:02:44.269,1349303725,91269,2,0.94727,0.00146,0.62378,-2.794,1.557,2.847
2026-05-22 16:02:44.469,1349303925,91469,1,0.72949,0.01489,0.5957,-1.542,0.13,0.985
2026-05-22 16:02:44.469,1349303925,91469,2,0.95264,-0.01099,0.63428,-3.328,1.496,3.305
2026-05-22 16:02:44.669,1349304125,91669,1,0.72681,0.0144,0.59473,-0.977,2.031,0.954
2026-05-22 16:02:44.669,1349304125,91669,2,0.95093,-0.02466,0.63916,-0.374,2.412,2.74
2026-05-22 16:02:45.869,1349305325,91869,1,0.72314,0.00122,0.60034,-2.435,1.702,0.695
2026-05-22 16:02:45.869,1349305325,91869,2,0.94507,-0.02515,0.64014,-0.435,-0.13,0.84
2026-05-22 16:02:45.069,1349304525,92069,1,0.71533,0.00854,0.59912,-1.214,0.885,0.779
2026-05-22 16:02:45.069,1349304525,92069,2,0.94092,-0.01245,0.63989,0.557,1.206,0.771
2026-05-22 16:02:45.269,1349304725,92269,1,0.70752,-0.00732,0.60986,-0.527,-0.58,-1.038
2026-05-22 16:02:45.269,1349304725,92269,2,0.94336,-0.01855,0.64771,-1.458,0.198,0.588
2026-05-22 16:02:45.469,1349304925,92469,1,0.71631,0.00464,0.60059,-0.366,-0.573,-1.008
2026-05-22 16:02:45.469,1349304925,92469,2,0.95068,-0.00732,0.63306,-0.107,-1.198,-0.405
2026-05-22 16:02:45.669,1349305125,92669,1,0.71924,0.02051,0.58765,0.061,-0.466,-1.13
2026-05-22 16:02:45.669,1349305125,92669,2,0.95142,-0.01147,0.63916,-0.565,1.496,-0.344
2026-05-22 16:02:46.869,1349306325,92869,1,0.72852,0.02588,0.59009,-0.504,0.099,1.412
2026-05-22 16:02:46.869,1349306325,92869,2,0.94824,0.00024,0.64185,-2.618,5.679,0.664
2026-05-22 16:02:46.069,1349305525,93069,1,0.71826,0.00903,0.5874,-0.359,0.947,0.985
2026-05-22 16:02:46.069,1349305525,93069,2,0.94043,0.00464,0.65112,-1.748,2.008,3.176
2026-05-22 16:02:46.269,1349305725,93269,1,0.7146,0.01343,0.60059,-2.55,1.786,1.267
2026-05-22 16:02:46.269,1349305725,93269,2,0.94531,-0.00415,0.64185,-1.214,1.214,2.718
2026-05-22 16:02:46.469,1349305925,93469,1,0.72363,0.01025,0.6062,-2.618,0.45,0.176
2026-05-22 16:02:46.469,1349305925,93469,2,0.94312,-0.00659,0.64673,-1.336,0.748,1.832
2026-05-22 16:02:46.669,1349306125,93669,1,0.71045,0.0127,0.60278,-1.618,0.84,-0.252
2026-05-22 16:02:46.669,1349306125,93669,2,0.94995,-0.0083,0.64502,-0.595,1.107,1.26
2026-05-22 16:02:47.869,1349307325,93869,1,0.7146,0.00806,0.60669,-1.55,0.55,-0.458
2026-05-22 16:02:47.869,1349307325,93869,2,0.94141,-0.01514,0.64429,-0.771,0.779,1.45
2026-05-22 16:02:47.069,1349306525,94069,1,0.72046,0.01904,0.604,-2.0,-0.282,-1.008
2026-05-22 16:02:47.069,1349306525,94069,2,0.94775,-0.0144,0.64355,-1.328,-0.198,1.573
2026-05-22 16:02:47.269,1349306725,94269,1,0.71118,0.00879,0.60107,-1.954,0.466,0.26
2026-05-22 16:02:47.269,1349306725,94269,2,0.94556,-0.02002,0.64551,-1.443,1.359,1.435
2026-05-22 16:02:47.469,1349306925,94469,1,0.71606,0.00635,0.60498,-1.641,0.092,-0.183
2026-05-22 16:02:47.469,1349306925,94469,2,0.94214,-0.00513,0.63989,-1.252,1.58,0.458
2026-05-22 16:02:47.669,1349307125,94669,1,0.71729,0.0105,0.61182,-0.908,-0.198,0.679
2026-05-22 16:02:47.669,1349307125,94669,2,0.94507,-0.00171,0.64844,-0.916,0.992,-0.115
2026-05-22 16:02:48.869,1349308325,94869,1,0.72192,0.02368,0.60767,-0.466,-0.473,-0.015
2026-05-22 16:02:48.869,1349308325,94869,2,0.94849,-0.00952,0.64697,-1.107,1.26,0.115
2026-05-22 16:02:48.069,1349307525,95069,1,0.72461,0.00659,0.59546,-1.557,-0.718,0.511
2026-05-22 16:02:48.069,1349307525,95069,2,0.93188,0.01367,0.64429,-2.008,-0.565,-0.176
2026-05-22 16:02:48.269,1349307725,95269,1,0.72412,0.01514,0.59644,-1.885,1.122,-0.13
2026-05-22 16:02:48.269,1349307725,95269,2,0.9502,0.00073,0.64648,-1.603,1.198,2.496
2026-05-22 16:02:48.469,1349307925,95469,1,0.71729,0.01025,0.60352,-2.427,1.084,0.092
2026-05-22 16:02:48.469,1349307925,95469,2,0.95117,-0.00366,0.64624,-1.183,1.008,2.298
2026-05-22 16:02:48.669,1349308125,95669,1,0.72363,0.00952,0.60059,-2.076,0.733,-0.046
2026-05-22 16:02:48.669,1349308125,95669,2,0.94263,-0.00317,0.64185,-0.893,0.847,1.924
2026-05-22 16:02:49.869,1349309325,95869,1,0.71631,0.01221,0.59985,-2.122,0.679,0.183
2026-05-22 16:02:49.869,1349309325,95869,2,0.94653,-0.00562,0.65088,-0.71,0.58,1.641
2026-05-22 16:02:49.069,1349308525,96069,1,0.71729,0.00562,0.59766,-2.099,0.435,-0.374
2026-05-22 16:02:49.069,1349308525,96069,2,0.94775,-0.00586,0.64893,-1.13,0.962,1.374
2026-05-22 16:02:49.269,1349308725,96269,1,0.71973,0.01929,0.60425,-2.0,0.45,-0.649
2026-05-22 16:02:49.269,1349308725,96269,2,0.94287,-0.00122,0.646,-0.809,0.061,1.221
2026-05-22 16:02:49.469,1349308925,96469,1,0.71289,0.01221,0.59668,-1.725,0.183,-0.489
2026-05-22 16:02:49.469,1349308925,96469,2,0.94507,-0.0127,0.65454,-1.061,0.702,1.237
2026-05-22 16:02:49.669,1349309125,96669,1,0.71509,0.01587,0.60522,-1.939,0.466,0.107
2026-05-22 16:02:49.669,1349309125,96669,2,0.95239,-0.00439,0.64087,-0.687,0.84,1.405
2026-05-22 16:02:50.869,1349310325,96869,1,0.71167,0.02124,0.60547,-1.779,0.244,0.214
2026-05-22 16:02:50.869,1349310325,96869,2,0.94727,-0.00317,0.64429,-0.137,0.794,1.298
2026-05-22 16:02:50.069,1349309525,97069,1,0.71094,0.00513,0.61206,-2.191,-1.977,-0.672
2026-05-22 16:02:50.069,1349309525,97069,2,0.93286,-0.01196,0.63892,9.405,-15.87,-4.282
2026-05-22 16:02:50.269,1349309725,97269,1,0.68457,-0.04736,0.59009,-19.374,-28.763,-13.664
2026-05-22 16:02:50.269,1349309725,97269,2,0.9126,-0.06323,0.61572,-12.221,-15.718,-4.244
2026-05-22 16:02:50.469,1349309925,97469,1,0.80176,0.00171,0.53223,15.412,-30.863,6.939
2026-05-22 16:02:50.469,1349309925,97469,2,0.95923,0.03345,0.50464,3.031,-20.977,-11.046
2026-05-22 16:02:50.669,1349310125,97669,1,0.92017,-0.00928,0.36719,7.069,-32.015,-2.992
2026-05-22 16:02:50.669,1349310125,97669,2,1.00269,0.0835,0.37866,-0.359,-23.122,-12.763
2026-05-22 16:02:51.869,1349311325,97869,1,1.01514,0.03149,0.28247,5.489,-10.107,-1.542
2026-05-22 16:02:51.869,1349311325,97869,2,0.98608,0.11377,0.35278,4.947,0.855,-6.313
2026-05-22 16:02:51.069,1349310525,98069,1,1.00122,0.06299,0.26025,14.473,-13.13,7.832
2026-05-22 16:02:51.069,1349310525,98069,2,0.96875,0.21069,0.36279,-8.389,5.954,-1.107
2026-05-22 16:02:51.269,1349310725,98269,1,0.96582,0.08521,0.23608,-6.718,9.656,-7.298
2026-05-22 16:02:51.269,1349310725,98269,2,1.05811,0.21704,0.31714,2.588,-11.939,3.359
2026-05-22 16:02:51.469,1349310925,98469,1,0.9563,0.06616,0.31689,-6.748,11.885,0.076
2026-05-22 16:02:51.469,1349310925,98469,2,0.96289,0.14575,0.31543,-10.107,11.359,6.443
2026-05-22 16:02:51.669,1349311125,98669,1,0.95386,0.0835,0.30298,-13.985,17.634,-0.595
2026-05-22 16:02:51.669,1349311125,98669,2,0.97339,0.11987,0.44727,-20.473,23.153,10.954
2026-05-22 16:02:52.869,1349312325,98869,1,0.90698,0.01636,0.38159,-9.962,3.107,0.137
2026-05-22 16:02:52.869,1349312325,98869,2,0.9668,0.10327,0.42114,-9.908,10.084,8.656
2026-05-22 16:02:52.069,1349311525,99069,1,0.90674,0.02075,0.37598,-6.771,2.664,1.573
2026-05-22 16:02:52.069,1349311525,99069,2,0.96411,0.07495,0.44116,-5.656,4.931,5.954
2026-05-22 16:02:52.269,1349311725,99269,1,0.89575,0.0249,0.3833,-3.137,9.496,2.702
2026-05-22 16:02:52.269,1349311725,99269,2,0.98047,0.07886,0.42871,-2.168,3.58,3.427
2026-05-22 16:02:52.469,1349311925,99469,1,0.89868,0.03784,0.37695,-4.87,6.366,5.58
2026-05-22 16:02:52.469,1349311925,99469,2,0.9729,0.06885,0.43335,-1.863,5.023,4.115
2026-05-22 16:02:52.669,1349312125,99669,1,0.87354,-0.00415,0.42798,-6.214,6.702,0.053
2026-05-22 16:02:52.669,1349312125,99669,2,0.97632,0.06519,0.44824,-5.527,2.519,6.435
2026-05-22 16:02:53.869,1349313325,99869,1,0.8623,-0.03003,0.44287,-5.527,6.603,-0.779
2026-05-22 16:02:53.869,1349313325,99869,2,0.97217,0.03198,0.46533,-1.885,4.893,3.275
2026-05-22 16:02:53.069,1349312525,100069,1,0.86353,-0.02197,0.4458,-0.687,0.718,1.038
2026-05-22 16:02:53.069,1349312525,100069,2,0.96191,0.0498,0.48071,-1.611,2.137,0.046
2026-05-22 16:02:53.269,1349312725,100269,1,0.8479,-0.03662,0.42651,0.13,3.702,2.29
2026-05-22 16:02:53.269,1349312725,100269,2,0.96655,0.05664,0.47192,1.13,0.603,-1.176
2026-05-22 16:02:53.469,1349312925,100469,1,0.8623,-0.03052,0.44165,0.489,-2.908,-2.145
2026-05-22 16:02:53.469,1349312925,100469,2,0.96533,0.04565,0.45947,-3.076,1.71,1.183
2026-05-22 16:02:53.669,1349313125,100669,1,0.88208,-0.0376,0.4353,8.13,-0.336,1.115
2026-05-22 16:02:53.669,1349313125,100669,2,0.97705,0.09351,0.46289,5.786,-0.427,-1.702
2026-05-22 16:02:54.869,1349314325,100869,1,0.87378,-0.0105,0.43726,-10.038,-0.84,-2.305
2026-05-22 16:02:54.869,1349314325,100869,2,0.97217,0.05249,0.45459,0.679,-0.427,-1.695
2026-05-22 16:02:54.069,1349313525,101069,1,0.82861,-0.01294,0.43066,-2.473,-2.786,2.977
2026-05-22 16:02:54.069,1349313525,101069,2,0.9873,0.08081,0.46484,6.863,0.42,-0.038
2026-05-22 16:02:54.269,1349313725,101269,1,0.92505,0.01489,0.36914,-0.939,-5.084,-3.405
2026-05-22 16:02:54.269,1349313725,101269,2,0.97168,0.07129,0.43091,-2.641,0.282,1.427
2026-05-22 16:02:54.469,1349313925,101469,1,0.88525,0.01587,0.42603,-8.053,8.046,1.779
2026-05-22 16:02:54.469,1349313925,101469,2,0.95703,0.09717,0.47754,1.023,3.0,8.305
2026-05-22 16:02:54.669,1349314125,101669,1,0.90576,-0.01196,0.42407,-8.115,15.847,-3.0
2026-05-22 16:02:54.669,1349314125,101669,2,0.96436,0.03979,0.44263,0.099,10.656,13.977
2026-05-22 16:02:55.869,1349315325,101869,1,0.80933,-0.09839,0.52319,5.221,6.779,1.626
2026-05-22 16:02:55.869,1349315325,101869,2,0.95386,-0.00903,0.54858,11.916,2.565,-2.084
2026-05-22 16:02:55.069,1349314525,102069,1,0.80151,-0.04248,0.52197,-8.809,4.595,-2.092
2026-05-22 16:02:55.069,1349314525,102069,2,0.94604,0.00391,0.53662,-4.137,4.443,0.267
2026-05-22 16:02:55.269,1349314725,102269,1,0.82471,-0.01929,0.49829,1.282,-4.397,-1.366
2026-05-22 16:02:55.269,1349314725,102269,2,0.97437,0.03467,0.52319,-1.588,-5.198,-3.924
2026-05-22 16:02:55.469,1349314925,102469,1,0.85327,-0.00513,0.45654,-0.756,-5.313,-3.992
2026-05-22 16:02:55.469,1349314925,102469,2,0.97534,0.03857,0.50464,-2.214,-1.313,-1.756
2026-05-22 16:02:55.669,1349315125,102669,1,0.87305,0.00439,0.44189,-0.267,-2.603,-1.924
2026-05-22 16:02:55.669,1349315125,102669,2,0.96924,0.04907,0.49683,-1.206,-0.489,-0.321
2026-05-22 16:02:56.869,1349316325,102869,1,0.86035,0.01733,0.44482,-1.328,0.26,-0.809
2026-05-22 16:02:56.869,1349316325,102869,2,0.97192,0.06494,0.49561,-1.565,0.763,-0.214
2026-05-22 16:02:56.069,1349315525,103069,1,0.87061,0.01489,0.45288,1.939,-2.313,0.092
2026-05-22 16:02:56.069,1349315525,103069,2,0.96338,0.06763,0.50391,-1.206,0.382,-1.924
2026-05-22 16:02:56.269,1349315725,103269,1,0.87964,0.01318,0.42993,-1.809,-0.817,0.214
2026-05-22 16:02:56.269,1349315725,103269,2,0.9646,0.07861,0.49609,-6.084,1.313,-3.969
2026-05-22 16:02:56.469,1349315925,103469,1,0.86426,0.01929,0.44507,0.817,-9.015,-0.145
2026-05-22 16:02:56.469,1349315925,103469,2,0.97485,0.06909,0.48608,7.893,-9.756,5.26
2026-05-22 16:02:56.669,1349316125,103669,1,0.89771,0.04224,0.40845,-4.359,-1.023,-6.267
2026-05-22 16:02:56.669,1349316125,103669,2,0.93677,0.07446,0.50342,-18.458,5.817,10.977
2026-05-22 16:02:57.869,1349317325,103869,1,0.89624,0.00781,0.37964,6.122,7.504,-9.626
2026-05-22 16:02:57.869,1349317325,103869,2,0.99609,0.04956,0.47607,4.237,1.038,2.0
2026-05-22 16:02:57.069,1349316525,104069,1,0.87134,0.01245,0.36621,0.985,-5.252,5.198
2026-05-22 16:02:57.069,1349316525,104069,2,0.97998,0.03027,0.47876,6.504,-3.771,-1.031
2026-05-22 16:02:57.269,1349316725,104269,1,0.88794,0.05396,0.42676,-8.412,3.397,-5.527
2026-05-22 16:02:57.269,1349316725,104269,2,0.95825,0.04199,0.48047,-2.214,0.26,2.855
2026-05-22 16:02:57.469,1349316925,104469,1,0.90771,0.07959,0.42871,-2.672,-3.687,1.855
2026-05-22 16:02:57.469,1349316925,104469,2,0.96631,0.03979,0.50317,-5.885,9.977,8.13
2026-05-22 16:02:58.919,1349318375,104919,1,0.8689,0.02637,0.40552,4.076,1.382,4.45
2026-05-22 16:02:58.919,1349318375,104919,2,0.96582,0.07422,0.49561,2.061,10.0,3.191
2026-05-22 16:02:58.421,1349317877,105421,1,0.88135,0.00146,0.41748,6.565,-0.282,4.779
2026-05-22 16:02:58.421,1349317877,105421,2,0.97607,0.05029,0.4978,0.557,2.947,2.878
2026-05-22 16:03:00.855,1349320311,106855,1,0.87646,-0.0127,0.42944,-1.947,1.366,-0.008
2026-05-22 16:03:00.855,1349320311,106855,2,0.97144,0.03955,0.50513,0.061,1.305,0.756
2026-05-22 16:03:00.572,1349320028,107572,1,0.86548,-0.00952,0.44385,0.191,1.351,0.046
2026-05-22 16:03:00.572,1349320028,107572,2,0.96362,0.04517,0.5166,-0.405,0.634,1.74
2026-05-22 16:03:01.879,1349321335,107878,1,0.87085,-0.00269,0.44678,-0.71,-0.267,0.664
2026-05-22 16:03:01.879,1349321335,107878,2,0.96265,0.04565,0.51001,-1.855,0.672,1.42
2026-05-22 16:03:01.078,1349320534,108078,1,0.8667,-0.00488,0.44629,-1.58,-0.214,1.038
2026-05-22 16:03:01.078,1349320534,108078,2,0.96631,0.04443,0.49805,-3.099,1.824,1.237
2026-05-22 16:03:01.278,1349320734,108278,1,0.86279,-0.01611,0.44165,-1.687,0.168,1.176
2026-05-22 16:03:01.278,1349320734,108278,2,0.96143,0.0376,0.50977,-1.198,1.069,0.252
2026-05-22 16:03:01.478,1349320934,108478,1,0.87646,-0.0188,0.43604,-0.076,0.489,0.351
2026-05-22 16:03:01.478,1349320934,108478,2,0.97095,0.04419,0.49878,-0.328,0.756,-0.336
2026-05-22 16:03:02.678,1349322134,108678,1,0.87134,-0.00928,0.45337,-2.344,2.473,-0.351
2026-05-22 16:03:02.678,1349322134,108678,2,0.96973,0.04004,0.51782,0.221,1.321,0.824
2026-05-22 16:03:02.878,1349322334,108878,1,0.86426,-0.00415,0.45459,-2.511,0.939,-1.145
2026-05-22 16:03:02.878,1349322334,108878,2,0.97119,0.04785,0.51489,-1.55,0.687,2.305
2026-05-22 16:03:02.385,1349321841,109385,1,0.85229,-0.00635,0.45166,-2.031,0.008,0.008
2026-05-22 16:03:02.385,1349321841,109385,2,0.96533,0.0332,0.50952,-0.489,0.282,1.168
2026-05-22 16:03:03.699,1349323155,109699,1,0.86572,-0.00879,0.45386,-5.481,2.084,0.458
2026-05-22 16:03:03.699,1349323155,109699,2,0.96167,0.04492,0.51099,-1.733,0.344,1.176
2026-05-22 16:03:04.290,1349323746,111290,1,0.86157,-0.01001,0.44897,-2.183,0.573,-0.038
2026-05-22 16:03:04.290,1349323746,111290,2,0.96655,0.04883,0.5105,-0.527,-0.076,1.389
2026-05-22 16:03:05.909,1349325365,111909,1,0.85669,-0.00464,0.46631,-1.725,0.725,-0.244
2026-05-22 16:03:05.909,1349325365,111909,2,0.97534,0.0459,0.50684,-0.847,0.046,2.481
2026-05-22 16:03:05.270,1349324726,112270,1,0.85327,-0.00391,0.45874,-2.13,1.26,-1.076
2026-05-22 16:03:05.270,1349324726,112270,2,0.9751,0.03613,0.5061,-0.435,0.992,0.763
2026-05-22 16:03:06.244,1349325700,113244,1,0.85889,-0.00171,0.45947,-1.298,-0.664,1.122
2026-05-22 16:03:06.244,1349325700,113244,2,0.96655,0.03955,0.50269,-0.695,1.74,2.595
2026-05-22 16:03:06.571,1349326027,113571,1,0.854,-0.01392,0.46802,-3.023,0.305,0.901
2026-05-22 16:03:06.571,1349326027,113571,2,0.97241,0.04443,0.50366,-0.092,0.351,1.87
2026-05-22 16:03:07.771,1349327227,113771,1,0.86255,-0.00659,0.46558,-1.916,-0.359,0.183
2026-05-22 16:03:07.771,1349327227,113771,2,0.9707,0.0376,0.50854,0.084,0.076,1.939
2026-05-22 16:03:07.971,1349327427,113971,1,0.85669,-0.00439,0.46143,-2.45,0.992,0.137
2026-05-22 16:03:07.971,1349327427,113971,2,0.97192,0.03564,0.52124,-2.099,1.427,0.962
2026-05-22 16:03:09.847,1349329303,115847,1,0.85205,-0.0061,0.45557,-1.412,-0.282,1.183
2026-05-22 16:03:09.847,1349329303,115847,2,0.96899,0.0415,0.50781,-0.931,0.145,1.664
2026-05-22 16:03:09.052,1349328508,116052,1,0.85669,-0.01563,0.46094,-1.992,0.42,0.542
2026-05-22 16:03:09.052,1349328508,116052,2,0.95898,0.04468,0.4917,-1.145,1.542,3.656
2026-05-22 16:03:09.252,1349328708,116252,1,0.84692,-0.02124,0.44434,-3.42,3.649,0.427
2026-05-22 16:03:09.252,1349328708,116252,2,0.9729,0.02344,0.50732,-1.435,0.366,1.878
2026-05-22 16:03:09.452,1349328908,116452,1,0.8501,-0.00952,0.46484,-3.26,0.084,0.855
2026-05-22 16:03:09.452,1349328908,116452,2,0.96558,0.04272,0.49048,-2.649,0.198,1.817
2026-05-22 16:03:09.652,1349329108,116652,1,0.84595,-0.02271,0.46851,-2.336,0.229,0.885
2026-05-22 16:03:09.652,1349329108,116652,2,0.98242,0.0271,0.50391,0.42,0.786,2.107
2026-05-22 16:03:10.852,1349330308,116852,1,0.85327,-0.01392,0.44751,-3.267,2.275,-0.687
2026-05-22 16:03:10.852,1349330308,116852,2,0.96729,0.03857,0.51099,-3.893,4.992,4.473
2026-05-22 16:03:10.052,1349329508,117052,1,0.84253,0.02148,0.46704,-11.885,10.74,0.473
2026-05-22 16:03:10.052,1349329508,117052,2,0.99878,-0.02466,0.47705,-26.389,13.374,21.58
2026-05-22 16:03:10.264,1349329720,117264,1,0.83691,-0.06372,0.47168,-41.45,16.359,-12.511
2026-05-22 16:03:10.264,1349329720,117264,2,0.94287,-0.15405,0.49292,-18.763,-2.641,15.649
2026-05-22 16:03:10.464,1349329920,117464,1,0.7373,-0.14429,0.54712,10.87,13.29,14.458
2026-05-22 16:03:10.464,1349329920,117464,2,0.94727,-0.06909,0.59546,8.977,10.466,2.382
2026-05-22 16:03:10.664,1349330120,117664,1,0.73438,-0.12866,0.57715,-2.847,1.679,0.397
2026-05-22 16:03:10.664,1349330120,117664,2,0.95288,-0.10864,0.56128,-11.878,-0.504,0.29
2026-05-22 16:03:11.864,1349331320,117864,1,0.79224,-0.10742,0.5332,3.786,-5.679,-1.603
2026-05-22 16:03:11.864,1349331320,117864,2,0.96045,-0.06689,0.56494,-0.664,-2.656,0.313
2026-05-22 16:03:11.064,1349330520,118064,1,0.79541,-0.09375,0.52881,-0.435,-1.069,-0.351
2026-05-22 16:03:11.064,1349330520,118064,2,0.96509,-0.08984,0.54834,-4.244,-1.015,2.641
2026-05-22 16:03:11.264,1349330720,118264,1,0.81055,-0.10181,0.53003,-0.405,-2.443,2.328
2026-05-22 16:03:11.264,1349330720,118264,2,0.95801,-0.09595,0.52759,0.038,-1.282,1.763
2026-05-22 16:03:11.464,1349330920,118464,1,0.79272,-0.12061,0.5166,-4.092,-1.153,3.183
2026-05-22 16:03:11.464,1349330920,118464,2,0.95288,-0.09229,0.53662,-1.321,0.427,1.504
2026-05-22 16:03:12.706,1349332162,118706,1,0.8208,-0.10596,0.48535,-2.962,-0.611,-2.374
2026-05-22 16:03:12.706,1349332162,118706,2,0.95068,-0.10522,0.50244,0.542,4.122,1.26
2026-05-22 16:03:12.914,1349332370,118914,1,0.84204,-0.07178,0.49121,-0.779,-1.702,1.321
2026-05-22 16:03:12.914,1349332370,118914,2,0.95923,-0.0542,0.52954,-0.176,-0.985,8.313
2026-05-22 16:03:12.114,1349331570,119114,1,0.81494,-0.10693,0.4729,-16.489,-4.634,1.191
2026-05-22 16:03:12.114,1349331570,119114,2,0.97266,-0.20117,0.53394,-3.046,5.687,6.481
2026-05-22 16:03:12.314,1349331770,119314,1,0.73975,-0.15845,0.49438,13.847,-3.504,8.985
2026-05-22 16:03:12.314,1349331770,119314,2,0.94897,-0.13086,0.60034,1.656,-3.565,8.168
2026-05-22 16:03:12.514,1349331970,119514,1,0.83228,-0.18188,0.50708,3.855,7.481,-2.198
2026-05-22 16:03:12.514,1349331970,119514,2,0.93018,-0.18384,0.53516,-1.817,2.985,4.031
2026-05-22 16:03:13.714,1349333170,119714,1,0.83008,-0.17139,0.50244,-6.0,8.244,3.695
2026-05-22 16:03:13.714,1349333170,119714,2,0.95386,-0.16528,0.51514,-4.939,2.504,4.305
2026-05-22 16:03:13.914,1349333370,119914,1,0.78076,-0.18628,0.53247,-2.924,5.069,-1.985
2026-05-22 16:03:13.914,1349333370,119914,2,0.93164,-0.2002,0.52148,-9.038,8.55,-0.183
2026-05-22 16:03:13.114,1349332570,120114,1,0.76392,-0.14233,0.56738,-2.023,1.519,0.252
2026-05-22 16:03:13.114,1349332570,120114,2,0.95435,-0.17603,0.53833,-1.466,-1.977,0.321
2026-05-22 16:03:13.314,1349332770,120314,1,0.77783,-0.12183,0.52026,-1.947,-3.679,0.534
2026-05-22 16:03:13.314,1349332770,120314,2,0.96436,-0.14551,0.53296,0.626,-4.092,2.206
2026-05-22 16:03:13.514,1349332970,120514,1,0.78955,-0.16211,0.52808,-2.084,-2.779,-0.466
2026-05-22 16:03:13.514,1349332970,120514,2,0.94287,-0.16772,0.54761,-0.145,-0.962,2.473
2026-05-22 16:03:14.714,1349334170,120714,1,0.80151,-0.1355,0.49878,-1.908,0.985,1.084
2026-05-22 16:03:14.714,1349334170,120714,2,0.96045,-0.17603,0.5188,-2.412,2.885,2.321
2026-05-22 16:03:14.933,1349334389,120933,1,0.79395,-0.1626,0.51855,-0.931,0.687,-2.626
2026-05-22 16:03:14.933,1349334389,120933,2,0.95117,-0.18213,0.53125,1.519,0.443,1.336
2026-05-22 16:03:14.197,1349333653,121197,1,0.78906,-0.14673,0.52881,-1.626,0.885,-1.466
2026-05-22 16:03:14.197,1349333653,121197,2,0.94116,-0.17896,0.50586,-2.916,2.718,0.389
2026-05-22 16:03:14.397,1349333853,121397,1,0.80151,-0.14966,0.53174,0.107,-1.588,-0.649
2026-05-22 16:03:14.397,1349333853,121397,2,0.93604,-0.18457,0.52881,0.489,-3.206,-0.344
2026-05-22 16:03:14.650,1349334106,121650,1,0.82813,-0.14648,0.49438,-5.557,-8.527,-4.733
2026-05-22 16:03:14.650,1349334106,121650,2,0.9541,-0.17725,0.51929,-1.954,0.527,-0.305
2026-05-22 16:03:15.850,1349335306,121850,1,0.81812,-0.12158,0.4873,3.947,0.023,2.374
2026-05-22 16:03:15.850,1349335306,121850,2,0.95703,-0.14526,0.53784,3.305,-0.687,-0.916
2026-05-22 16:03:15.050,1349334506,122050,1,0.80957,-0.13135,0.51196,0.229,1.756,0.786
2026-05-22 16:03:15.050,1349334506,122050,2,0.95361,-0.15112,0.51221,-3.176,1.573,1.092
2026-05-22 16:03:15.250,1349334706,122250,1,0.84277,-0.13599,0.50586,3.275,-2.725,3.366
2026-05-22 16:03:15.250,1349334706,122250,2,0.95386,-0.14331,0.52808,-0.321,4.649,-3.489
2026-05-22 16:03:15.450,1349334906,122450,1,0.81812,-0.13232,0.49316,0.275,-1.519,2.695
2026-05-22 16:03:15.450,1349334906,122450,2,0.93628,-0.13916,0.55566,-1.252,2.611,0.122
2026-05-22 16:03:15.650,1349335106,122650,1,0.81738,-0.1438,0.50488,-3.87,0.053,-0.55
2026-05-22 16:03:15.650,1349335106,122650,2,0.9458,-0.14087,0.53711,-1.382,-0.603,1.931
2026-05-22 16:03:16.854,1349336310,122854,1,0.79736,-0.13428,0.48584,-2.0,0.053,0.412
2026-05-22 16:03:16.854,1349336310,122854,2,0.95337,-0.14331,0.54224,-0.191,1.687,1.344
2026-05-22 16:03:16.054,1349335510,123054,1,0.82153,-0.11646,0.50366,-3.099,-1.305,0.962
2026-05-22 16:03:16.054,1349335510,123054,2,0.95703,-0.14551,0.53076,-0.908,-0.962,2.855
2026-05-22 16:03:16.254,1349335710,123254,1,0.82153,-0.09839,0.4978,-1.328,-5.511,2.832
2026-05-22 16:03:16.254,1349335710,123254,2,0.93921,-0.13232,0.53931,0.344,-0.473,5.466
2026-05-22 16:03:16.454,1349335910,123454,1,0.84131,-0.17798,0.49194,-7.702,3.481,-2.13
2026-05-22 16:03:16.454,1349335910,123454,2,0.95044,-0.18628,0.53198,-1.786,2.947,3.992
2026-05-22 16:03:16.654,1349336110,123654,1,0.8147,-0.18921,0.48804,-3.656,2.16,3.58
2026-05-22 16:03:16.654,1349336110,123654,2,0.93115,-0.1543,0.5437,-2.031,2.656,4.511
2026-05-22 16:03:17.854,1349337310,123854,1,0.7998,-0.19482,0.48291,-3.977,3.992,-2.695
2026-05-22 16:03:17.854,1349337310,123854,2,0.94385,-0.18799,0.52148,1.115,-0.557,-1.153
2026-05-22 16:03:17.054,1349336510,124054,1,0.77759,-0.18848,0.50195,-3.45,-5.336,-6.008
2026-05-22 16:03:17.054,1349336510,124054,2,0.93579,-0.17896,0.52881,-5.481,-1.992,-0.351
2026-05-22 16:03:17.254,1349336710,124254,1,0.82935,-0.16284,0.48486,-18.58,-9.42,-13.977
2026-05-22 16:03:17.254,1349336710,124254,2,0.96704,-0.16895,0.50488,-2.679,-12.863,-2.237
2026-05-22 16:03:17.454,1349336910,124454,1,0.86084,-0.15845,0.45459,-18.71,-3.023,-15.053
2026-05-22 16:03:17.454,1349336910,124454,2,0.96289,-0.13306,0.46167,-7.237,-2.015,-2.008
2026-05-22 16:03:17.654,1349337110,124654,1,0.87085,-0.18018,0.42603,-21.435,-13.794,-16.924
2026-05-22 16:03:17.654,1349337110,124654,2,0.95215,-0.13501,0.44507,-9.817,-10.191,-9.962
2026-05-22 16:03:18.854,1349338310,124854,1,0.90088,-0.12769,0.33423,11.527,-13.855,-9.252
2026-05-22 16:03:18.854,1349338310,124854,2,0.91992,-0.10522,0.42969,7.87,-6.061,-21.046
2026-05-22 16:03:18.054,1349337510,125054,1,0.94629,-0.07178,0.31909,17.443,-2.687,6.099
2026-05-22 16:03:18.054,1349337510,125054,2,0.9895,0.02441,0.39624,10.496,-4.137,-12.809
2026-05-22 16:03:18.254,1349337710,125254,1,0.93628,-0.04126,0.32251,31.015,-2.443,-2.939
2026-05-22 16:03:18.254,1349337710,125254,2,0.9895,0.06055,0.41187,19.198,-3.977,-10.985
2026-05-22 16:03:18.454,1349337910,125454,1,0.96777,0.00537,0.30225,23.466,-5.565,-5.382
2026-05-22 16:03:18.454,1349337910,125454,2,0.9646,0.06055,0.40259,4.916,-5.702,-9.229
2026-05-22 16:03:18.654,1349338110,125654,1,0.95898,0.02539,0.30298,12.0,-1.924,-0.893
2026-05-22 16:03:18.654,1349338110,125654,2,0.97021,0.13232,0.36401,10.122,-0.412,-8.855
2026-05-22 16:03:19.854,1349339310,125854,1,0.99512,0.10107,0.25,17.603,-6.756,3.275
2026-05-22 16:03:19.854,1349339310,125854,2,0.97607,0.14941,0.37646,4.542,-0.038,-5.55
2026-05-22 16:03:19.054,1349338510,126054,1,0.99097,0.0835,0.24707,0.672,0.382,-0.382
2026-05-22 16:03:19.054,1349338510,126054,2,0.96948,0.15869,0.35107,1.817,1.618,-0.565
2026-05-22 16:03:19.254,1349338710,126254,1,1.00024,0.09302,0.22827,-2.817,-0.779,6.58
2026-05-22 16:03:19.254,1349338710,126254,2,0.98071,0.16162,0.3623,2.489,6.153,4.626
2026-05-22 16:03:19.454,1349338910,126454,1,1.0083,0.04102,0.21558,-1.664,12.908,4.511
2026-05-22 16:03:19.454,1349338910,126454,2,0.97095,0.15479,0.3916,0.183,9.534,15.458
2026-05-22 16:03:19.654,1349339110,126654,1,0.94897,-0.05371,0.35596,-5.809,6.069,3.832
2026-05-22 16:03:19.654,1349339110,126654,2,0.96631,0.00317,0.49438,11.053,11.885,3.153
2026-05-22 16:03:20.854,1349340310,126854,1,0.94189,0.00391,0.33911,-3.344,12.534,0.473
2026-05-22 16:03:20.854,1349340310,126854,2,0.96313,0.03247,0.47656,-12.473,5.534,12.656
2026-05-22 16:03:20.054,1349339510,127054,1,0.89185,0.02222,0.39063,8.153,-1.0,2.924
2026-05-22 16:03:20.054,1349339510,127054,2,0.94531,0.02612,0.52905,0.252,4.42,0.176
2026-05-22 16:03:20.254,1349339710,127254,1,0.91382,0.03906,0.35376,2.71,-0.305,-0.985
2026-05-22 16:03:20.254,1349339710,127254,2,0.97412,0.0647,0.49609,-3.611,-1.382,2.466
2026-05-22 16:03:20.454,1349339910,127454,1,0.9165,0.02417,0.35498,-2.878,2.42,1.672
2026-05-22 16:03:20.454,1349339910,127454,2,0.97217,0.03467,0.5061,2.405,1.122,2.137
2026-05-22 16:03:20.654,1349340110,127654,1,0.93237,0.02808,0.41284,-7.328,1.427,-3.427
2026-05-22 16:03:20.654,1349340110,127654,2,0.96265,0.02759,0.50342,-6.947,2.046,4.847
2026-05-22 16:03:21.854,1349341310,127854,1,0.90674,0.03589,0.39429,0.573,5.359,-0.588
2026-05-22 16:03:21.854,1349341310,127854,2,0.97046,0.03003,0.5144,2.023,2.412,0.504
2026-05-22 16:03:21.054,1349340510,128054,1,0.86523,0.03394,0.39648,-2.542,3.099,-3.58
2026-05-22 16:03:21.054,1349340510,128054,2,0.97998,0.06885,0.51001,-12.29,0.198,4.214
2026-05-22 16:03:21.254,1349340710,128254,1,0.92334,0.03857,0.38525,-29.145,-7.405,-13.863
2026-05-22 16:03:21.254,1349340710,128254,2,0.97632,0.0293,0.52368,-22.29,1.992,9.618
2026-05-22 16:03:21.454,1349340910,128454,1,0.91064,0.02368,0.40063,-10.336,4.519,-11.107
2026-05-22 16:03:21.454,1349340910,128454,2,0.96265,0.0144,0.5332,3.718,0.466,1.366
2026-05-22 16:03:21.654,1349341110,128654,1,0.88135,0.04907,0.44043,-4.351,1.153,-2.229
2026-05-22 16:03:21.654,1349341110,128654,2,0.95703,0.00513,0.55566,3.573,-1.473,-2.099
2026-05-22 16:03:22.854,1349342310,128854,1,0.87744,0.00073,0.44067,5.656,-4.031,3.954
2026-05-22 16:03:22.854,1349342310,128854,2,0.97241,0.03296,0.53149,7.405,-1.305,-9.282
2026-05-22 16:03:22.054,1349341510,129054,1,0.8894,0.08887,0.39307,16.916,0.305,11.595
2026-05-22 16:03:22.054,1349341510,129054,2,0.96216,0.06519,0.52051,10.74,-2.855,-10.595
2026-05-22 16:03:22.254,1349341710,129254,1,0.92456,0.06445,0.35547,-2.603,6.504,11.702
2026-05-22 16:03:22.254,1349341710,129254,2,0.93799,0.13672,0.45166,-15.802,12.489,10.939
2026-05-22 16:03:22.454,1349341910,129454,1,0.93433,0.01782,0.37158,-5.802,-1.962,-2.618
2026-05-22 16:03:22.454,1349341910,129454,2,0.9624,0.04224,0.49268,-2.176,-2.168,2.16
2026-05-22 16:03:22.654,1349342110,129654,1,0.90088,-0.01636,0.3811,-5.664,1.031,0.649
2026-05-22 16:03:22.654,1349342110,129654,2,0.97119,0.05225,0.49341,-1.359,3.794,0.435
2026-05-22 16:03:23.854,1349343310,129854,1,0.90771,0.01831,0.40039,-1.153,-2.557,-2.015
2026-05-22 16:03:23.854,1349343310,129854,2,0.95874,0.06982,0.48682,0.389,-0.626,0.137
2026-05-22 16:03:23.054,1349342510,130054,1,0.90283,0.021,0.38745,-2.893,0.092,-3.183
2026-05-22 16:03:23.054,1349342510,130054,2,0.96899,0.04883,0.49902,-3.885,2.924,0.321
2026-05-22 16:03:23.254,1349342710,130254,1,0.89624,0.03931,0.37476,-1.809,12.13,2.786
2026-05-22 16:03:23.254,1349342710,130254,2,0.9519,0.06104,0.5249,-9.809,1.252,-2.992
2026-05-22 16:03:23.454,1349342910,130454,1,0.90967,0.02881,0.44092,1.702,1.641,3.695
2026-05-22 16:03:23.454,1349342910,130454,2,0.96875,0.10498,0.48462,-1.29,-2.267,-0.046
2026-05-22 16:03:23.654,1349343110,130654,1,0.90747,0.03027,0.41064,-3.672,-4.481,-2.618
2026-05-22 16:03:23.654,1349343110,130654,2,0.97363,0.05884,0.46606,-0.527,1.985,4.321
2026-05-22 16:03:24.968,1349344424,130968,1,0.92871,0.02466,0.39209,-1.053,-17.076,-2.191
2026-05-22 16:03:24.968,1349344424,130968,2,0.94604,0.06445,0.47778,7.473,-5.214,0.725
2026-05-22 16:03:24.168,1349343624,131168,1,0.93457,0.02393,0.36597,-2.885,-2.389,0.221
2026-05-22 16:03:24.168,1349343624,131168,2,0.96997,0.06934,0.49438,-0.611,2.099,0.496
2026-05-22 16:03:24.415,1349343871,131415,1,0.9314,0.03149,0.36328,-1.481,2.939,2.069
2026-05-22 16:03:24.415,1349343871,131415,2,0.97388,0.0813,0.48486,-2.74,1.702,1.374
2026-05-22 16:03:24.615,1349344071,131615,1,0.92358,0.01709,0.36108,-3.786,1.786,0.374
2026-05-22 16:03:24.615,1349344071,131615,2,0.9668,0.07349,0.47607,-1.985,1.275,1.405
2026-05-22 16:03:25.891,1349345347,131891,1,0.9126,0.01172,0.37671,-1.237,-1.076,0.427
2026-05-22 16:03:25.891,1349345347,131891,2,0.96094,0.09521,0.48291,-3.16,-2.954,2.13
2026-05-22 16:03:25.091,1349344547,132091,1,0.90479,0.02075,0.38818,-4.053,-2.115,-6.221
2026-05-22 16:03:25.091,1349344547,132091,2,0.97827,0.03784,0.47021,-8.153,0.542,0.092
2026-05-22 16:03:25.291,1349344747,132291,1,0.9436,0.02026,0.33008,-1.466,-0.206,4.466
2026-05-22 16:03:25.291,1349344747,132291,2,0.98291,0.09009,0.44751,-0.504,-0.076,-0.611
2026-05-22 16:03:25.491,1349344947,132491,1,0.92114,0.04834,0.34717,-0.611,4.885,-3.679
2026-05-22 16:03:25.491,1349344947,132491,2,0.96216,0.09204,0.45142,-0.473,-0.542,3.672
2026-05-22 16:03:26.691,1349346147,132691,1,0.93311,0.01587,0.36084,-4.985,1.58,0.618
2026-05-22 16:03:26.691,1349346147,132691,2,0.97119,0.07568,0.47021,-3.336,4.015,3.183
2026-05-22 16:03:26.891,1349346347,132891,1,0.91992,0.02661,0.38745,0.786,2.0,0.099
2026-05-22 16:03:26.891,1349346347,132891,2,0.96094,0.06836,0.47729,3.221,5.908,4.336
2026-05-22 16:03:26.091,1349345547,133091,1,0.95874,-0.00586,0.36255,-13.763,2.389,0.252
2026-05-22 16:03:26.091,1349345547,133091,2,0.95435,0.04907,0.49634,-9.893,1.519,6.603
2026-05-22 16:03:26.291,1349345747,133291,1,0.92944,-0.0127,0.35132,-8.489,8.511,-0.267
2026-05-22 16:03:26.291,1349345747,133291,2,0.96899,-0.02417,0.47119,-7.344,12.061,9.366
2026-05-22 16:03:26.491,1349345947,133491,1,0.89209,-0.03491,0.43237,14.542,7.87,6.267
2026-05-22 16:03:26.491,1349345947,133491,2,0.9668,0.0188,0.53613,3.863,9.931,-0.328
2026-05-22 16:03:27.691,1349347147,133691,1,0.8335,0.05176,0.48828,19.656,1.168,8.107
2026-05-22 16:03:27.691,1349347147,133691,2,0.92529,0.11011,0.58423,6.145,-0.389,2.321
2026-05-22 16:03:27.891,1349347347,133891,1,0.83569,-0.03369,0.41748,0.519,0.137,-1.153
2026-05-22 16:03:27.891,1349347347,133891,2,0.97192,0.0105,0.5415,1.672,-2.595,-1.45
2026-05-22 16:03:27.091,1349346547,134091,1,0.90332,-0.0127,0.41089,1.824,2.313,-1.542
2026-05-22 16:03:27.091,1349346547,134091,2,0.96875,0.05591,0.52661,-3.748,0.435,-3.031
2026-05-22 16:03:27.291,1349346747,134291,1,0.88892,0.02417,0.41699,-1.237,0.824,-3.443
2026-05-22 16:03:27.291,1349346747,134291,2,0.96704,0.05225,0.53784,-2.153,4.443,-1.076
2026-05-22 16:03:27.491,1349346947,134491,1,0.8877,0.05811,0.43188,2.198,6.634,-5.221
2026-05-22 16:03:27.491,1349346947,134491,2,0.95215,0.08008,0.56201,-0.015,2.611,-0.565
2026-05-22 16:03:28.691,1349348147,134691,1,0.85767,0.0769,0.45898,-7.534,-0.634,-3.809
2026-05-22 16:03:28.691,1349348147,134691,2,0.94849,0.05981,0.56738,-1.466,0.076,0.939
2026-05-22 16:03:28.891,1349348347,134891,1,0.87622,0.05615,0.44922,-4.504,0.221,0.153
2026-05-22 16:03:28.891,1349348347,134891,2,0.96533,0.06445,0.54199,-6.122,-1.374,5.74
2026-05-22 16:03:28.091,1349347547,135091,1,0.86084,0.04175,0.44824,-3.092,1.664,1.779
2026-05-22 16:03:28.091,1349347547,135091,2,0.96021,0.03296,0.55249,-2.74,5.542,2.55
2026-05-22 16:03:28.291,1349347747,135291,1,0.84863,0.02637,0.46484,-2.031,0.992,1.26
2026-05-22 16:03:28.291,1349347747,135291,2,0.95923,0.04712,0.55957,-1.748,-0.313,0.351
2026-05-22 16:03:28.491,1349347947,135491,1,0.86646,0.03931,0.45068,-5.115,-0.931,-1.908
2026-05-22 16:03:28.491,1349347947,135491,2,0.95752,0.02881,0.53882,1.137,2.191,1.527
2026-05-22 16:03:29.691,1349349147,135691,1,0.86255,0.05298,0.45898,-7.0,2.443,1.977
2026-05-22 16:03:29.691,1349349147,135691,2,0.96655,0.05615,0.54614,-2.55,2.031,2.992
2026-05-22 16:03:29.891,1349349347,135891,1,0.84521,0.02808,0.45435,-4.282,0.748,0.046
2026-05-22 16:03:29.891,1349349347,135891,2,0.9646,0.03418,0.56104,0.863,0.244,2.84
2026-05-22 16:03:29.091,1349348547,136091,1,0.84863,0.02344,0.47388,0.191,-2.214,1.489
2026-05-22 16:03:29.091,1349348547,136091,2,0.96558,0.03442,0.55469,0.26,-1.901,-0.328
2026-05-22 16:03:29.291,1349348747,136291,1,0.86572,0.03442,0.46436,2.435,-1.763,1.504
2026-05-22 16:03:29.291,1349348747,136291,2,0.9563,0.04663,0.56055,0.672,0.824,-1.916
2026-05-22 16:03:29.491,1349348947,136491,1,0.86377,0.0498,0.45947,-1.511,0.198,-1.58
2026-05-22 16:03:29.491,1349348947,136491,2,0.97241,0.06226,0.5293,-1.977,-2.389,1.015
2026-05-22 16:03:30.691,1349350147,136691,1,0.84912,0.0459,0.4646,-10.687,-0.779,-3.328
2026-05-22 16:03:30.691,1349350147,136691,2,0.95264,0.01245,0.5542,-9.824,-4.359,6.176
2026-05-22 16:03:30.923,1349350379,136922,1,0.82593,0.00122,0.45874,-10.641,-5.45,-2.969
2026-05-22 16:03:30.923,1349350379,136922,2,0.9729,0.03223,0.5271,-4.489,-5.42,-0.092
2026-05-22 16:03:30.122,1349349578,137122,1,0.87646,-0.01685,0.39697,4.427,-10.504,-20.237
2026-05-22 16:03:30.122,1349349578,137122,2,0.9646,-0.03198,0.44995,-6.962,-9.122,-7.908
2026-05-22 16:03:30.322,1349349778,137322,1,0.90088,0.05029,0.38135,14.802,-5.824,7.473
2026-05-22 16:03:30.322,1349349778,137322,2,0.97925,0.12012,0.45239,2.275,0.725,-3.672
2026-05-22 16:03:30.522,1349349978,137522,1,0.93604,0.073,0.36328,-2.763,-1.137,-5.527
2026-05-22 16:03:30.522,1349349978,137522,2,0.97681,0.07397,0.45947,-4.031,1.214,0.588
2026-05-22 16:03:31.722,1349351178,137722,1,0.97949,0.08276,0.33203,-2.305,3.748,-1.008
2026-05-22 16:03:31.722,1349351178,137722,2,1.05127,0.11084,0.46436,11.824,6.061,4.008
2026-05-22 16:03:31.922,1349351378,137922,1,0.9397,0.08496,0.33276,1.725,22.84,4.374
2026-05-22 16:03:31.922,1349351378,137922,2,1.01685,0.11206,0.479,5.771,27.221,0.748
2026-05-22 16:03:31.122,1349350578,138122,1,0.83228,0.04907,0.39844,-15.634,60.985,8.435
2026-05-22 16:03:31.122,1349350578,138122,2,0.98975,0.13403,0.6626,14.298,68.908,14.908
2026-05-22 16:03:31.322,1349350778,138322,1,0.69678,0.05566,0.90894,-7.733,46.313,2.527
2026-05-22 16:03:31.322,1349350778,138322,2,0.83105,-0.08252,1.03271,-15.298,23.985,15.832
2026-05-22 16:03:31.565,1349351021,138565,1,0.48169,0.05713,0.91113,5.649,-15.985,6.084
2026-05-22 16:03:31.565,1349351021,138565,2,0.83521,-0.03442,0.98584,-12.855,-23.336,5.282
2026-05-22 16:03:32.765,1349352221,138765,1,0.53101,-0.0376,0.78589,-6.878,-52.16,4.992
2026-05-22 16:03:32.765,1349352221,138765,2,0.76807,-0.04053,0.80713,-4.092,-46.069,-7.015
2026-05-22 16:03:32.965,1349352421,138965,1,0.64429,0.04956,0.45605,-9.481,-80.87,1.321
2026-05-22 16:03:32.965,1349352421,138965,2,0.86328,0.05908,0.52295,-4.13,-82.282,-13.878
2026-05-22 16:03:32.165,1349351621,139165,1,0.83179,-0.01074,0.12158,-20.626,-51.221,-17.649
2026-05-22 16:03:32.165,1349351621,139165,2,0.92847,-0.0752,0.36963,-39.649,-24.061,0.244
2026-05-22 16:03:32.365,1349351821,139365,1,1.03247,-0.05054,0.04004,-7.573,-34.573,-6.458
2026-05-22 16:03:32.365,1349351821,139365,2,1.03174,-0.00415,0.27979,-9.832,-23.237,-13.603
2026-05-22 16:03:32.565,1349352021,139565,1,1.05444,-0.01782,0.06055,8.763,-7.412,-10.298
2026-05-22 16:03:32.565,1349352021,139565,2,0.94287,0.04517,0.26392,-1.191,0.359,-1.336
2026-05-22 16:03:33.765,1349353221,139765,1,1.10449,0.10596,0.06836,29.588,17.985,-3.954
2026-05-22 16:03:33.765,1349353221,139765,2,1.00317,0.08594,0.35596,29.687,24.687,-3.061
2026-05-22 16:03:33.965,1349353421,139965,1,0.95581,0.21802,0.22876,34.145,45.519,13.794
2026-05-22 16:03:33.965,1349353421,139965,2,0.96387,0.30664,0.32446,12.656,23.756,6.153
2026-05-22 16:03:33.165,1349352621,140165,1,0.94092,0.24585,0.24854,6.389,-3.718,5.42
2026-05-22 16:03:33.165,1349352621,140165,2,0.98413,0.04834,0.45093,-9.542,26.122,4.084
2026-05-22 16:03:33.365,1349352821,140365,1,0.99487,0.12769,0.24878,-5.634,-3.275,3.519
2026-05-22 16:03:33.365,1349352821,140365,2,0.9519,0.09741,0.38452,-9.29,-6.565,7.122
2026-05-22 16:03:33.565,1349353021,140565,1,1.01514,0.00293,0.23999,-18.115,-7.847,-0.359
2026-05-22 16:03:33.565,1349353021,140565,2,0.87158,0.02271,0.38843,-86.573,-16.71,-21.092
2026-05-22 16:03:34.765,1349354221,140765,1,1.01831,0.02686,0.22437,-12.809,-6.115,-1.229
2026-05-22 16:03:34.765,1349354221,140765,2,0.95435,0.10278,0.37793,22.13,-11.008,0.084
2026-05-22 16:03:34.965,1349354421,140965,1,1.0022,0.02954,0.20581,-3.855,0.496,-1.443
2026-05-22 16:03:34.965,1349354421,140965,2,0.97681,0.13013,0.32593,-9.252,-2.71,1.817
2026-05-22 16:03:34.165,1349353621,141165,1,1.02271,0.03857,0.18677,-9.901,-5.122,-3.313
2026-05-22 16:03:34.165,1349353621,141165,2,0.96582,0.11304,0.34863,-7.168,-0.58,4.252
2026-05-22 16:03:34.365,1349353821,141365,1,1.02856,0.08325,0.16113,-16.832,-1.809,-2.771
2026-05-22 16:03:34.365,1349353821,141365,2,0.97852,0.09302,0.37231,-1.573,0.214,8.137
2026-05-22 16:03:34.565,1349354021,141565,1,1.01953,,0.17261,-29.275,7.458,-1.908
2026-05-22 16:03:34.565,1349354021,141565,2,1.00098,0.07764,0.33228,-24.061,13.634,16.099
2026-05-22 16:03:35.765,1349355221,141765,1,0.98364,-0.03564,0.22998,-19.275,-0.916,-17.099
2026-05-22 16:03:35.765,1349355221,141765,2,0.9668,0.02295,0.41406,-3.053,-2.74,-0.649
2026-05-22 16:03:35.029,1349354485,142029,1,0.99561,0.01318,0.19287,7.847,-1.122,1.427
2026-05-22 16:03:35.029,1349354485,142029,2,0.98096,0.04004,0.34961,-2.237,-4.74,-6.504
2026-05-22 16:03:35.229,1349354685,142229,1,0.98804,0.01978,0.18677,5.511,-0.802,4.267
2026-05-22 16:03:35.229,1349354685,142229,2,0.96216,0.07861,0.35571,-2.183,3.924,1.71
2026-05-22 16:03:35.441,1349354897,142440,1,1.01807,0.01587,0.18188,-0.435,-1.45,3.443
2026-05-22 16:03:35.441,1349354897,142440,2,0.979,0.07153,0.35181,8.13,0.672,2.618
2026-05-22 16:03:35.640,1349355096,142640,1,1.0,0.01099,0.18628,-1.702,-2.046,-2.107
2026-05-22 16:03:35.640,1349355096,142640,2,0.96875,0.05835,0.37427,12.214,-4.344,4.252
2026-05-22 16:03:36.840,1349356296,142840,1,1.02148,0.0708,0.19287,0.031,-0.496,1.038
2026-05-22 16:03:36.840,1349356296,142840,2,0.97119,0.10767,0.37134,-3.351,6.092,3.679
2026-05-22 16:03:36.040,1349355496,143040,1,1.01416,0.02051,0.17578,-3.473,-1.824,-7.756
2026-05-22 16:03:36.040,1349355496,143040,2,0.93994,0.05591,0.3501,24.168,-16.053,-9.031
2026-05-22 16:03:36.240,1349355696,143240,1,1.0708,0.04736,0.15625,31.351,-8.649,11.542
2026-05-22 16:03:36.240,1349355696,143240,2,0.97754,0.09741,0.34717,20.878,-9.466,-13.26
2026-05-22 16:03:36.440,1349355896,143440,1,1.04395,0.11914,0.06543,29.443,17.321,-4.13
2026-05-22 16:03:36.440,1349355896,143440,2,0.95654,0.15674,0.30859,10.0,21.267,-9.13
2026-05-22 16:03:36.640,1349356096,143640,1,0.96265,0.19971,0.20752,24.374,16.374,3.527
2026-05-22 16:03:36.640,1349356096,143640,2,0.94287,0.16675,0.36597,17.443,7.183,3.153
2026-05-22 16:03:37.850,1349357306,143850,1,0.98242,0.16284,0.20825,11.015,2.542,3.237
2026-05-22 16:03:37.850,1349357306,143850,2,0.96118,0.1665,0.40649,10.053,3.351,-0.496
2026-05-22 16:03:37.111,1349356567,144111,1,0.96436,0.19116,0.23413,-2.649,1.282,-1.641
2026-05-22 16:03:37.111,1349356567,144111,2,0.95972,0.18677,0.40601,-6.191,-0.053,0.969
2026-05-22 16:03:37.311,1349356767,144311,1,0.97974,0.14233,0.20508,-15.42,-2.55,-2.122
2026-05-22 16:03:37.311,1349356767,144311,2,0.95825,0.14722,0.40234,-14.359,-2.809,3.443
2026-05-22 16:03:37.511,1349356967,144511,1,0.98218,0.13721,0.22217,-6.198,-2.137,-1.947
2026-05-22 16:03:37.511,1349356967,144511,2,0.9707,0.146,0.37061,-2.504,1.725,-2.023
2026-05-22 16:03:38.711,1349358167,144711,1,0.98779,0.13965,0.20605,3.412,-2.198,0.748
2026-05-22 16:03:38.711,1349358167,144711,2,0.95581,0.16162,0.35376,8.878,-1.099,-1.015
2026-05-22 16:03:38.911,1349358367,144911,1,0.98926,0.15527,0.18896,2.603,-1.931,5.786
2026-05-22 16:03:38.911,1349358367,144911,2,0.95728,0.18628,0.35693,-4.947,-2.42,-0.519
2026-05-22 16:03:38.111,1349357567,145111,1,1.00586,0.13843,0.18359,-4.924,-2.802,0.076
2026-05-22 16:03:38.111,1349357567,145111,2,0.96362,0.16748,0.35059,-6.603,0.908,1.031
2026-05-22 16:03:38.311,1349357767,145311,1,1.0105,0.14795,0.16382,-5.893,-1.626,-2.244
2026-05-22 16:03:38.311,1349357767,145311,2,0.97729,0.1665,0.35376,0.725,1.237,3.092
2026-05-22 16:03:38.529,1349357985,145529,1,0.98755,0.14697,0.18042,-1.076,2.931,1.924
2026-05-22 16:03:38.529,1349357985,145529,2,0.96411,0.17603,0.37378,-2.366,2.519,1.557
2026-05-22 16:03:39.751,1349359207,145751,1,0.99219,0.14209,0.18457,-0.71,-0.504,0.939
2026-05-22 16:03:39.751,1349359207,145751,2,0.95898,0.1687,0.36719,-1.71,2.084,1.023
2026-05-22 16:03:39.951,1349359407,145951,1,0.98828,0.13818,0.19189,-2.008,-0.687,-1.679
2026-05-22 16:03:39.951,1349359407,145951,2,0.95947,0.16895,0.35181,-0.344,0.298,1.046
2026-05-22 16:03:39.151,1349358607,146151,1,0.99731,0.14331,0.18604,-2.443,-0.229,-0.557
2026-05-22 16:03:39.151,1349358607,146151,2,0.95581,0.15967,0.36401,0.26,0.901,1.061
2026-05-22 16:03:39.351,1349358807,146351,1,0.99316,0.14233,0.18262,-0.221,0.344,0.824
2026-05-22 16:03:39.351,1349358807,146351,2,0.95923,0.17529,0.35718,0.321,0.145,1.939
2026-05-22 16:03:39.551,1349359007,146551,1,1.00195,0.13989,0.17407,-3.336,-0.321,-0.176
2026-05-22 16:03:39.551,1349359007,146551,2,0.97339,0.15723,0.36475,-2.74,0.504,2.137
2026-05-22 16:03:40.751,1349360207,146751,1,0.99854,0.12427,0.18848,-1.779,0.893,-2.55
2026-05-22 16:03:40.751,1349360207,146751,2,0.95215,0.17896,0.375,12.634,-0.595,2.305
2026-05-22 16:03:40.951,1349360407,146951,1,0.98413,0.17749,0.19238,-9.863,1.351,-7.405
2026-05-22 16:03:40.951,1349360407,146951,2,0.97119,0.1355,0.35986,-12.313,0.618,1.595
2026-05-22 16:03:40.205,1349359661,147205,1,1.00122,0.12769,0.19946,-9.954,1.42,-1.221
2026-05-22 16:03:40.205,1349359661,147205,2,0.96143,0.1272,0.38403,-10.298,3.489,1.832
2026-05-22 16:03:40.405,1349359861,147405,1,0.97974,0.1543,0.20923,3.924,1.809,3.71
2026-05-22 16:03:40.405,1349359861,147405,2,0.96704,0.15698,0.4082,4.573,3.641,2.542
2026-05-22 16:03:40.605,1349360061,147605,1,1.00122,0.15234,0.2146,-5.771,10.511,0.061
2026-05-22 16:03:40.605,1349360061,147605,2,0.97559,0.1145,0.44165,-10.252,9.679,8.771
2026-05-22 16:03:41.805,1349361261,147805,1,0.94385,0.11548,0.18579,-22.763,45.916,-3.573
2026-05-22 16:03:41.805,1349361261,147805,2,0.89551,0.1438,0.4917,-23.176,56.107,21.824
2026-05-22 16:03:41.005,1349360461,148005,1,0.69751,0.04224,0.42749,-5.16,75.977,-0.58
2026-05-22 16:03:41.005,1349360461,148005,2,0.79199,-0.00342,0.67944,4.382,90.252,26.908
2026-05-22 16:03:41.205,1349360661,148205,1,0.59766,0.10522,0.73706,-10.214,41.733,-0.603
2026-05-22 16:03:41.205,1349360661,148205,2,0.67041,0.0647,0.86914,7.328,-53.878,-9.969
2026-05-22 16:03:41.405,1349360861,148405,1,0.43848,0.05884,0.72998,8.237,-21.931,9.145
2026-05-22 16:03:41.405,1349360861,148405,2,1.05493,-0.02344,1.05273,53.763,-106.985,-21.809
2026-05-22 16:03:41.634,1349361090,148634,1,0.91357,0.05542,0.81494,-5.863,-17.679,-8.466
2026-05-22 16:03:41.634,1349361090,148634,2,1.09082,0.06128,0.57983,-7.275,-56.87,-5.565
2026-05-22 16:03:42.878,1349362334,148878,1,0.99731,0.0498,0.3606,-0.565,-28.855,5.046
2026-05-22 16:03:42.878,1349362334,148878,2,0.90479,0.06958,0.45679,4.214,-23.252,0.382
2026-05-22 16:03:42.078,1349361534,149078,1,0.9856,0.05103,0.31567,-2.588,-12.702,2.641
2026-05-22 16:03:42.078,1349361534,149078,2,0.96265,-0.00562,0.49829,5.359,-7.122,2.42
