datetime,epoch_ms,ts_millis,mpu_id,ax,ay,az,gx,gy,gz
2026-05-20 17:36:13.461,1182112917,617460,2,0.85645,-0.54858,-0.21899,-0.908,-2.031,0.595
2026-05-20 17:36:29.470,1182128926,633470,1,1.01001,-0.28198,0.28027,0.84,4.45,1.0
2026-05-20 17:36:29.470,1182128926,633470,2,0.83691,-0.57104,-0.22583,-0.885,-1.359,0.908
2026-05-20 17:36:29.670,1182129126,633670,1,1.01489,-0.25854,0.29639,-1.626,1.427,-0.252
2026-05-20 17:36:29.670,1182129126,633670,2,0.83057,-0.56714,-0.23926,-3.443,0.878,0.565
2026-05-20 17:36:29.870,1182129326,633870,1,1.00854,-0.26172,0.29688,0.038,3.206,-1.595
2026-05-20 17:36:29.870,1182129326,633870,2,0.83691,-0.56958,-0.23755,-0.885,-0.16,0.725
2026-05-20 17:36:29.070,1182128526,634070,1,0.99756,-0.26074,0.31885,-1.466,1.847,-0.427
2026-05-20 17:36:29.070,1182128526,634070,2,0.83789,-0.56592,-0.23901,-2.504,0.824,0.649
2026-05-20 17:36:29.270,1182128726,634270,1,1.01245,-0.24585,0.30005,-0.221,2.519,-1.458
2026-05-20 17:36:29.270,1182128726,634270,2,0.83887,-0.56982,-0.24121,-1.099,0.183,0.794
2026-05-20 17:36:30.470,1182129926,634470,1,0.99927,-0.26245,0.32056,0.695,2.092,0.008
2026-05-20 17:36:30.470,1182129926,634470,2,0.83887,-0.56836,-0.23486,-1.733,0.55,0.664
2026-05-20 17:36:30.670,1182130126,634670,1,1.0144,-0.27734,0.26953,1.122,4.45,-1.954
2026-05-20 17:36:30.670,1182130126,634670,2,0.83618,-0.57764,-0.23901,7.45,11.351,0.931
2026-05-20 17:36:30.870,1182130326,634870,1,1.01489,-0.26929,0.33325,11.954,15.183,-7.802
2026-05-20 17:36:30.870,1182130326,634870,2,0.81104,-0.6394,-0.06055,20.328,32.847,-7.71
2026-05-20 17:36:30.194,1182129650,635194,1,0.97852,-0.14233,0.48755,15.908,30.618,-21.863
2026-05-20 17:36:30.194,1182129650,635194,2,0.91211,-0.62793,-0.09692,10.954,50.679,-24.573
2026-05-20 17:36:30.394,1182129850,635394,1,1.02637,0.02051,0.53906,30.626,30.489,-6.015
2026-05-20 17:36:30.394,1182129850,635394,2,0.89429,-0.50269,0.20239,40.16,44.206,-10.824
2026-05-20 17:36:31.594,1182131050,635594,1,0.86548,0.10986,0.72729,18.855,42.534,-12.893
2026-05-20 17:36:31.594,1182131050,635594,2,0.76123,-0.37671,0.37256,-33.076,-0.962,-9.527
2026-05-20 17:36:31.170,1182130626,636170,1,0.67041,0.06079,0.73096,-2.031,-17.908,-1.947
2026-05-20 17:36:31.170,1182130626,636170,2,0.68994,-0.40356,0.35059,-24.031,15.626,-2.962
2026-05-20 17:36:31.370,1182130826,636370,1,0.73315,0.01001,0.71875,-18.176,-11.183,-3.71
2026-05-20 17:36:31.370,1182130826,636370,2,0.73657,-0.52295,0.47729,-38.366,28.397,-7.107
2026-05-20 17:36:32.570,1182132026,636570,1,0.74683,0.02368,0.854,-30.214,-19.71,-6.084
2026-05-20 17:36:32.570,1182132026,636570,2,0.69727,-0.55371,0.38647,-8.328,-25.656,19.443
2026-05-20 17:36:32.770,1182132226,636770,1,0.94922,-0.14014,0.75244,18.427,3.779,24.756
2026-05-20 17:36:32.770,1182132226,636770,2,0.82739,-0.71948,0.23975,2.664,-23.466,25.145
2026-05-20 17:36:32.970,1182132426,636970,1,0.87988,-0.2395,0.57544,14.328,-23.519,34.534
2026-05-20 17:36:32.970,1182132426,636970,2,0.68896,-0.67236,0.19775,-39.244,-19.939,19.397
2026-05-20 17:36:32.170,1182131626,637170,1,0.82104,-0.3562,0.6731,-14.458,-4.756,-18.962
2026-05-20 17:36:32.170,1182131626,637170,2,0.7356,-0.84912,0.56152,-25.992,-22.733,9.496
2026-05-20 17:36:32.370,1182131826,637370,1,0.86597,-0.2793,0.64209,38.435,-15.046,2.74
2026-05-20 17:36:32.370,1182131826,637370,2,0.68164,-0.72314,0.14111,1.634,-2.122,-12.176
2026-05-20 17:36:33.570,1182133026,637570,1,0.94531,-0.21899,0.54956,30.313,-13.725,-1.405
2026-05-20 17:36:33.570,1182133026,637570,2,0.79077,-0.65137,0.04126,5.229,0.611,-23.145
2026-05-20 17:36:33.770,1182133226,637770,1,0.88843,-0.05273,0.58203,8.656,1.267,-13.58
2026-05-20 17:36:33.770,1182133226,637770,2,0.85693,-0.60864,0.15039,2.763,11.153,-25.595
2026-05-20 17:36:33.970,1182133426,637970,1,0.96094,0.01782,0.55786,-1.069,-9.802,-6.053
2026-05-20 17:36:33.970,1182133426,637970,2,0.85059,-0.47925,0.1333,11.13,6.305,-15.954
2026-05-20 17:36:33.170,1182132626,638170,1,0.92969,0.09644,0.55664,13.641,6.206,-3.084
2026-05-20 17:36:33.170,1182132626,638170,2,0.90698,-0.39819,0.20313,0.893,8.412,-2.321
2026-05-20 17:36:33.370,1182132826,638370,1,0.93677,0.03979,0.59741,-17.931,5.496,-5.038
2026-05-20 17:36:33.370,1182132826,638370,2,0.86694,-0.50439,0.17432,2.916,6.008,4.672
2026-05-20 17:36:34.570,1182134026,638570,1,0.92065,0.05981,0.6084,-8.321,13.504,6.87
2026-05-20 17:36:34.570,1182134026,638570,2,0.86523,-0.46021,0.22559,-10.725,4.664,5.817
2026-05-20 17:36:34.770,1182134226,638770,1,0.89673,0.00024,0.64404,-20.0,0.55,1.496
2026-05-20 17:36:34.770,1182134226,638770,2,0.82251,-0.51172,0.3667,1.466,15.031,11.893
2026-05-20 17:36:34.970,1182134426,638970,1,0.92749,-0.06787,0.61328,-23.893,8.725,3.962
2026-05-20 17:36:34.970,1182134426,638970,2,0.82471,-0.56128,0.24585,-4.466,17.305,1.656
2026-05-20 17:36:34.170,1182133626,639170,1,0.89624,-0.09033,0.64624,0.183,7.87,5.908
2026-05-20 17:36:34.170,1182133626,639170,2,0.82886,-0.54956,0.19165,-1.656,0.031,1.412
2026-05-20 17:36:34.370,1182133826,639370,1,0.87793,-0.09058,0.67334,6.16,8.618,4.183
2026-05-20 17:36:34.370,1182133826,639370,2,0.81812,-0.55542,0.23047,-9.611,9.985,0.481
2026-05-20 17:36:35.570,1182135026,639570,1,0.87305,-0.08594,0.65894,-9.328,-3.031,-6.069
2026-05-20 17:36:35.570,1182135026,639570,2,0.77344,-0.58154,0.25513,1.649,65.939,8.756
2026-05-20 17:36:35.814,1182135270,639814,1,0.89063,-0.10474,0.64014,-8.298,1.122,-1.443
2026-05-20 17:36:35.814,1182135270,639814,2,0.86011,-0.60034,0.2688,-12.427,-22.115,41.397
2026-05-20 17:36:35.014,1182134470,640014,1,0.8811,-0.09473,0.66089,-0.092,6.214,-1.153
2026-05-20 17:36:35.014,1182134470,640014,2,0.4126,-1.13745,0.21899,51.504,-79.527,12.771
2026-05-20 17:36:35.214,1182134670,640214,1,0.86133,-0.09619,0.6665,7.214,6.145,-1.328
2026-05-20 17:36:35.214,1182134670,640214,2,0.63281,-0.77588,0.24121,-3.992,-4.824,-0.053
2026-05-20 17:36:36.414,1182135870,640414,1,0.88477,-0.10596,0.65112,6.061,3.237,-3.725
2026-05-20 17:36:36.414,1182135870,640414,2,0.7373,-0.58252,0.26416,-13.084,-28.13,-6.573
2026-05-20 17:36:36.614,1182136070,640614,1,0.88501,-0.10645,0.68384,10.366,2.412,-2.748
2026-05-20 17:36:36.614,1182136070,640614,2,0.76245,-0.59888,0.26343,-0.405,13.916,-6.183
2026-05-20 17:36:36.814,1182136270,640814,1,0.88135,-0.04956,0.70239,3.595,-5.023,1.74
2026-05-20 17:36:36.814,1182136270,640814,2,0.66968,-0.70264,0.25464,-55.092,40.771,-21.702
2026-05-20 17:36:36.014,1182135470,641014,1,0.85376,-0.02002,0.68848,8.313,-19.45,2.763
2026-05-20 17:36:36.014,1182135470,641014,2,0.81006,-0.45361,0.3313,5.649,1.672,-4.603
2026-05-20 17:36:36.214,1182135670,641214,1,0.92627,-0.00854,0.65991,-12.191,-2.221,-4.595
2026-05-20 17:36:36.214,1182135670,641214,2,0.79736,-0.52246,0.32886,-11.206,4.527,4.16
2026-05-20 17:36:37.414,1182136870,641414,1,0.89526,-0.07324,0.58325,-12.947,-6.954,-2.443
2026-05-20 17:36:37.414,1182136870,641414,2,0.84888,-0.55664,0.2771,12.557,-61.74,15.405
2026-05-20 17:36:37.614,1182137070,641614,1,0.91943,-0.05493,0.60303,7.359,-11.145,1.687
2026-05-20 17:36:37.614,1182137070,641614,2,0.84448,-0.55103,0.14893,-19.969,-15.672,-1.382
2026-05-20 17:36:37.814,1182137270,641814,1,0.92896,-0.08081,0.5957,19.099,-15.366,5.74
2026-05-20 17:36:37.814,1182137270,641814,2,0.8374,-0.54199,0.09595,-10.305,-9.763,-3.092
2026-05-20 17:36:37.014,1182136470,642014,1,0.95947,-0.04639,0.4917,-9.878,1.076,-1.153
2026-05-20 17:36:37.014,1182136470,642014,2,0.88501,-0.54346,0.02222,-17.405,-15.962,-1.237
2026-05-20 17:36:37.214,1182136670,642214,1,1.00024,-0.08643,0.42944,-16.031,3.084,-3.099
2026-05-20 17:36:37.214,1182136670,642214,2,0.90552,-0.52954,0.06567,-9.588,20.443,10.038
2026-05-20 17:36:38.414,1182137870,642414,1,0.98315,-0.17065,0.47168,-28.756,10.122,-10.023
2026-05-20 17:36:38.414,1182137870,642414,2,0.79639,-0.61426,0.08032,-0.786,15.679,12.687
2026-05-20 17:36:38.614,1182138070,642614,1,0.96753,-0.14063,0.56421,-4.893,7.328,13.29
2026-05-20 17:36:38.614,1182138070,642614,2,0.79883,-0.59497,0.12354,1.16,8.328,6.45
2026-05-20 17:36:38.814,1182138270,642814,1,0.91406,-0.20215,0.54858,13.802,18.809,5.221
2026-05-20 17:36:38.814,1182138270,642814,2,0.78369,-0.59521,0.18555,3.908,6.145,6.29
2026-05-20 17:36:38.014,1182137470,643014,1,0.88794,-0.16406,0.63062,2.382,18.351,-6.214
2026-05-20 17:36:38.014,1182137470,643014,2,0.80322,-0.66211,0.1167,-6.878,-3.29,3.756
2026-05-20 17:36:38.214,1182137670,643214,1,0.89063,-0.15894,0.6106,-6.092,-2.046,2.588
2026-05-20 17:36:38.214,1182137670,643214,2,0.78857,-0.61182,0.09033,-6.069,-3.962,0.015
2026-05-20 17:36:39.414,1182138870,643414,1,0.89697,-0.1687,0.61743,1.55,6.076,-2.397
2026-05-20 17:36:39.414,1182138870,643414,2,0.79956,-0.60864,0.06982,1.359,-5.122,-0.282
2026-05-20 17:36:39.614,1182139070,643614,1,0.89404,-0.14917,0.63525,-3.618,1.076,-3.443
2026-05-20 17:36:39.614,1182139070,643614,2,0.80249,-0.63452,0.04004,-9.221,-4.374,2.443
2026-05-20 17:36:39.814,1182139270,643814,1,0.88428,-0.17749,0.6228,-6.244,-0.244,0.588
2026-05-20 17:36:39.814,1182139270,643814,2,0.80933,-0.62915,0.04834,0.191,-0.511,-0.298
2026-05-20 17:36:39.014,1182138470,644014,1,0.88525,-0.13647,0.63379,2.962,3.473,-1.153
2026-05-20 17:36:39.014,1182138470,644014,2,0.79395,-0.64771,0.04443,-1.344,-0.481,0.626
2026-05-20 17:36:39.214,1182138670,644214,1,0.87573,-0.15845,0.63623,-2.351,1.397,1.489
2026-05-20 17:36:39.214,1182138670,644214,2,0.79272,-0.65039,0.04443,-6.237,3.115,0.649
2026-05-20 17:36:40.414,1182139870,644414,1,0.88892,-0.16699,0.63257,2.176,2.527,0.588
2026-05-20 17:36:40.414,1182139870,644414,2,0.80566,-0.61865,0.05249,6.107,2.786,-0.504
2026-05-20 17:36:40.614,1182140070,644614,1,0.89526,-0.15259,0.64844,1.313,5.939,-3.847
2026-05-20 17:36:40.614,1182140070,644614,2,0.78467,-0.63916,0.04004,-4.412,1.489,0.748
2026-05-20 17:36:40.814,1182140270,644814,1,0.88818,-0.19214,0.64258,-6.321,-1.977,0.252
2026-05-20 17:36:40.814,1182140270,644814,2,0.8064,-0.61963,0.06445,2.206,0.015,-1.504
2026-05-20 17:36:40.014,1182139470,645014,1,0.87061,-0.13892,0.63965,5.725,6.16,-2.336
2026-05-20 17:36:40.014,1182139470,645014,2,0.82373,-0.61426,0.05298,0.26,0.893,0.55
2026-05-20 17:36:40.214,1182139670,645214,1,0.86572,-0.146,0.65308,-1.015,1.221,0.031
2026-05-20 17:36:40.214,1182139670,645214,2,0.78979,-0.63818,0.05347,-7.992,0.908,0.374
2026-05-20 17:36:41.414,1182140870,645414,1,0.89111,-0.17041,0.63867,1.603,-1.168,3.412
2026-05-20 17:36:41.414,1182140870,645414,2,0.82568,-0.60669,0.04297,6.153,1.71,-1.382
2026-05-20 17:36:41.614,1182141070,645614,1,0.88721,-0.12769,0.65405,2.611,7.168,-4.695
2026-05-20 17:36:41.614,1182141070,645614,2,0.78247,-0.6438,0.03882,-1.626,-3.824,1.244
2026-05-20 17:36:41.814,1182141270,645814,1,0.88623,-0.15894,0.64404,-6.176,-2.153,2.321
2026-05-20 17:36:41.814,1182141270,645814,2,0.80933,-0.63672,0.03516,-2.359,-2.939,-0.435
2026-05-20 17:36:41.014,1182140470,646014,1,0.88623,-0.14917,0.63452,1.061,2.359,-1.023
2026-05-20 17:36:41.014,1182140470,646014,2,0.81421,-0.5979,0.05859,0.779,1.84,1.588
2026-05-20 17:36:41.214,1182140670,646214,1,0.8938,-0.14526,0.6731,1.542,6.779,-2.924
2026-05-20 17:36:41.214,1182140670,646214,2,0.79834,-0.63843,0.04468,-3.519,-1.206,3.023
2026-05-20 17:36:42.414,1182141870,646414,1,0.87427,-0.17847,0.65137,-4.511,-6.473,4.802
2026-05-20 17:36:42.414,1182141870,646414,2,0.82129,-0.60425,0.06372,6.458,-1.42,1.0
2026-05-20 17:36:42.614,1182142070,646614,1,0.86401,-0.17383,0.64624,4.664,8.13,-7.786
2026-05-20 17:36:42.614,1182142070,646614,2,0.7998,-0.61548,0.06494,-2.954,3.0,0.427
2026-05-20 17:36:42.814,1182142270,646814,1,0.85278,-0.14893,0.65625,1.252,-0.511,1.26
2026-05-20 17:36:42.814,1182142270,646814,2,0.81274,-0.64624,0.05127,-6.412,1.344,0.824
2026-05-20 17:36:42.014,1182141470,647014,1,0.88745,-0.15698,0.62988,-1.977,-2.786,1.305
2026-05-20 17:36:42.014,1182141470,647014,2,0.81348,-0.62671,0.05542,1.099,2.023,-1.198
2026-05-20 17:36:42.214,1182141670,647214,1,0.86792,-0.1228,0.66968,5.16,5.55,-0.55
2026-05-20 17:36:42.214,1182141670,647214,2,0.79883,-0.63086,0.03906,-6.687,0.611,2.214
2026-05-20 17:36:43.414,1182142870,647414,1,0.87939,-0.146,0.66187,-3.611,1.863,-1.794
2026-05-20 17:36:43.414,1182142870,647414,2,0.79834,-0.65161,0.03174,-6.038,0.221,1.947
2026-05-20 17:36:43.614,1182143070,647614,1,0.87549,-0.14038,0.64404,3.0,-0.046,2.397
2026-05-20 17:36:43.614,1182143070,647614,2,0.81519,-0.61157,0.06714,6.359,0.695,-1.427
2026-05-20 17:36:43.814,1182143270,647814,1,0.8772,-0.11084,0.66602,2.695,2.573,-3.458
2026-05-20 17:36:43.814,1182143270,647814,2,0.78589,-0.63818,0.03931,-9.115,2.16,0.252
2026-05-20 17:36:43.014,1182142470,648014,1,0.88477,-0.14624,0.66064,-4.0,-3.305,2.252
2026-05-20 17:36:43.014,1182142470,648014,2,0.80908,-0.62915,0.03882,2.534,-0.29,-1.756
2026-05-20 17:36:43.214,1182142670,648214,1,0.88037,-0.12524,0.63745,0.313,2.634,-3.252
2026-05-20 17:36:43.214,1182142670,648214,2,0.80884,-0.61865,0.05225,-1.321,-0.695,-0.305
2026-05-20 17:36:44.414,1182143870,648414,1,0.89453,-0.11084,0.65674,-0.908,3.374,-2.931
2026-05-20 17:36:44.414,1182143870,648414,2,0.82007,-0.64136,0.02954,-5.771,-2.282,1.817
2026-05-20 17:36:44.614,1182144070,648614,1,0.87744,-0.13428,0.63184,-3.023,-3.466,6.794
2026-05-20 17:36:44.614,1182144070,648614,2,0.80444,-0.64697,0.0271,-6.954,0.641,2.809
2026-05-20 17:36:44.088,1182143544,649088,1,0.87671,-0.15649,0.63599,-4.618,-2.748,4.458
2026-05-20 17:36:44.088,1182143544,649088,2,0.80298,-0.63574,0.04688,-2.947,1.802,1.053
2026-05-20 17:36:44.288,1182143744,649288,1,0.88892,-0.15308,0.6311,3.595,5.168,-1.443
2026-05-20 17:36:44.288,1182143744,649288,2,0.80347,-0.62427,0.03638,2.809,-0.229,0.847
2026-05-20 17:36:45.488,1182144944,649488,1,0.88452,-0.13599,0.66797,-1.427,2.435,-1.756
2026-05-20 17:36:45.488,1182144944,649488,2,0.7981,-0.65527,0.01929,-4.221,0.13,2.008
2026-05-20 17:36:45.688,1182145144,649688,1,0.88135,-0.16797,0.6394,-4.947,-3.969,3.489
2026-05-20 17:36:45.688,1182145144,649688,2,0.80371,-0.6311,0.04785,1.771,2.084,0.153
2026-05-20 17:36:45.888,1182145344,649888,1,0.88135,-0.14355,0.66064,9.344,1.153,-2.473
2026-05-20 17:36:45.888,1182145344,649888,2,0.79858,-0.62964,0.01685,-0.038,1.038,1.321
2026-05-20 17:36:45.088,1182144544,650088,1,0.87939,-0.14551,0.62622,-3.076,-3.779,-0.443
2026-05-20 17:36:45.088,1182144544,650088,2,0.78223,-0.66235,0.01904,-6.794,0.061,1.58
2026-05-20 17:36:45.288,1182144744,650288,1,0.89795,-0.1687,0.61182,0.221,-2.061,1.695
2026-05-20 17:36:45.288,1182144744,650288,2,0.81104,-0.6167,0.03296,3.198,1.099,-1.328
2026-05-20 17:36:46.488,1182145944,650488,1,0.90112,-0.13452,0.62573,2.733,6.015,-5.641
2026-05-20 17:36:46.488,1182145944,650488,2,0.79224,-0.64648,0.0293,-2.489,2.893,0.901
2026-05-20 17:36:46.688,1182146144,650688,1,0.89771,-0.13647,0.62939,-15.817,-8.504,1.916
2026-05-20 17:36:46.688,1182146144,650688,2,0.80664,-0.66089,0.03833,-5.229,3.931,-0.221
2026-05-20 17:36:46.888,1182146344,650888,1,0.89624,-0.13916,0.59253,0.092,0.985,0.947
2026-05-20 17:36:46.888,1182146344,650888,2,0.802,-0.604,0.0376,6.55,5.031,-2.802
2026-05-20 17:36:46.088,1182145544,651088,1,0.90381,-0.14404,0.6311,-8.45,3.71,-1.779
2026-05-20 17:36:46.088,1182145544,651088,2,0.8064,-0.63062,0.06006,-9.023,-4.061,1.855
2026-05-20 17:36:46.288,1182145744,651288,1,0.91943,-0.20825,0.58276,-7.672,0.557,-0.511
2026-05-20 17:36:46.288,1182145744,651288,2,0.79028,-0.646,0.02637,-2.855,-1.115,1.16
2026-05-20 17:36:47.488,1182146944,651488,1,0.92383,-0.2002,0.57544,0.321,1.771,-1.496
2026-05-20 17:36:47.488,1182146944,651488,2,0.802,-0.6438,0.03491,2.099,-0.496,1.305
2026-05-20 17:36:47.699,1182147155,651699,1,0.91357,-0.16138,0.6001,1.229,3.153,1.168
2026-05-20 17:36:47.699,1182147155,651699,2,0.79419,-0.63232,0.02979,-6.618,1.015,0.725
2026-05-20 17:36:47.899,1182147355,651899,1,0.90625,-0.19482,0.59204,-5.061,-1.0,0.779
2026-05-20 17:36:47.899,1182147355,651899,2,0.81104,-0.62256,0.04932,-0.038,0.855,-0.527
2026-05-20 17:36:47.099,1182146555,652099,1,0.90381,-0.18408,0.56519,2.908,1.832,0.359
2026-05-20 17:36:47.099,1182146555,652099,2,0.80786,-0.62549,0.03003,3.206,0.817,1.405
2026-05-20 17:36:47.299,1182146755,652299,1,0.88745,-0.18311,0.60449,1.092,4.84,0.13
2026-05-20 17:36:47.299,1182146755,652299,2,0.80664,-0.64648,0.0481,-4.298,-0.267,0.725
2026-05-20 17:36:48.499,1182147955,652499,1,0.90723,-0.18896,0.58618,1.069,-0.015,2.565
2026-05-20 17:36:48.499,1182147955,652499,2,0.81543,-0.62061,0.0498,0.389,-0.092,0.992
2026-05-20 17:36:48.699,1182148155,652699,1,0.90332,-0.20947,0.59302,-2.496,2.305,-2.473
2026-05-20 17:36:48.699,1182148155,652699,2,0.80371,-0.62231,0.03345,0.397,0.458,-0.183
2026-05-20 17:36:48.189,1182147645,653189,1,0.92188,-0.21704,0.5791,0.489,2.649,-1.55
2026-05-20 17:36:48.189,1182147645,653189,2,0.81104,-0.61865,0.03418,4.191,0.756,0.511
2026-05-20 17:36:48.389,1182147845,653389,1,0.90527,-0.22095,0.57666,0.924,3.374,-0.137
2026-05-20 17:36:48.389,1182147845,653389,2,0.79297,-0.65405,0.02954,-2.718,2.908,2.092
2026-05-20 17:36:49.589,1182149045,653589,1,0.91235,-0.23047,0.55737,-1.252,0.969,0.565
2026-05-20 17:36:49.589,1182149045,653589,2,0.7998,-0.62256,0.0415,2.939,-1.107,-0.405
2026-05-20 17:36:49.789,1182149245,653789,1,0.90747,-0.20435,0.59985,2.893,7.725,-2.481
2026-05-20 17:36:49.789,1182149245,653789,2,0.77246,-0.64478,0.03491,-5.954,0.74,0.382
2026-05-20 17:36:49.013,1182148469,654013,1,0.90161,-0.21069,0.60352,-0.84,-0.985,3.015
2026-05-20 17:36:49.013,1182148469,654013,2,0.80957,-0.65381,0.04248,-5.542,1.023,0.084
2026-05-20 17:36:49.213,1182148669,654213,1,0.90503,-0.20654,0.58032,5.588,1.634,0.985
2026-05-20 17:36:49.213,1182148669,654213,2,0.80566,-0.6167,0.052,2.641,0.931,2.16
2026-05-20 17:36:50.413,1182149869,654413,1,0.89136,-0.21924,0.59692,-3.679,1.443,-3.702
2026-05-20 17:36:50.413,1182149869,654413,2,0.7522,-0.68359,0.01367,2.611,-4.298,-0.626
2026-05-20 17:36:50.613,1182150069,654613,1,0.90161,-0.24146,0.58398,-9.099,-3.733,0.931
2026-05-20 17:36:50.613,1182150069,654613,2,0.80591,-0.64404,0.04492,-1.695,1.29,1.076
2026-05-20 17:36:50.813,1182150269,654813,1,0.89868,-0.22461,0.59058,-2.786,3.489,-3.756
2026-05-20 17:36:50.813,1182150269,654813,2,0.7876,-0.64014,0.04077,-4.954,0.931,-0.496
2026-05-20 17:36:50.013,1182149469,655013,1,0.91406,-0.21582,0.58252,-6.565,-0.092,-3.87
2026-05-20 17:36:50.013,1182149469,655013,2,0.78467,-0.66357,0.0127,-4.573,-1.725,-1.282
2026-05-20 17:36:50.213,1182149669,655213,1,0.90308,-0.23877,0.57104,-2.176,2.519,-5.397
2026-05-20 17:36:50.213,1182149669,655213,2,0.82471,-0.6228,0.03516,-1.855,1.603,-1.985
2026-05-20 17:36:51.413,1182150869,655413,1,0.91406,-0.20483,0.56885,0.634,2.206,-5.122
2026-05-20 17:36:51.413,1182150869,655413,2,0.81421,-0.6377,-0.00146,-2.282,0.954,-0.237
2026-05-20 17:36:51.613,1182151069,655613,1,0.89233,-0.18018,0.59668,5.489,4.542,-3.321
2026-05-20 17:36:51.613,1182151069,655613,2,0.79126,-0.62988,0.02832,-2.71,1.405,-0.008
2026-05-20 17:36:51.813,1182151269,655813,1,0.90503,-0.20142,0.61719,-3.267,-0.748,-7.137
2026-05-20 17:36:51.813,1182151269,655813,2,0.80493,-0.62817,0.04297,-1.908,0.046,0.962
2026-05-20 17:36:51.013,1182150469,656013,1,0.93652,-0.18774,0.56104,-7.275,2.809,-2.069
2026-05-20 17:36:51.013,1182150469,656013,2,0.81641,-0.64819,0.0127,-2.74,0.534,0.16
2026-05-20 17:36:51.213,1182150669,656213,1,0.91406,-0.18359,0.58618,-1.718,3.802,-1.282
2026-05-20 17:36:51.213,1182150669,656213,2,0.80347,-0.63501,0.03149,-1.221,-0.55,0.908
2026-05-20 17:36:52.413,1182151869,656413,1,0.9209,-0.19043,0.58032,-9.786,-3.565,0.389
2026-05-20 17:36:52.413,1182151869,656413,2,0.80054,-0.6438,0.01001,-3.687,1.573,-0.71
2026-05-20 17:36:52.613,1182152069,656613,1,0.92358,-0.22461,0.54932,-4.962,-6.0,3.42
2026-05-20 17:36:52.613,1182152069,656613,2,0.80444,-0.63135,0.00732,-1.466,1.191,
2026-05-20 17:36:52.813,1182152269,656813,1,0.92896,-0.20605,0.53101,1.511,2.298,0.511
2026-05-20 17:36:52.813,1182152269,656813,2,0.80664,-0.6311,0.00659,-0.977,-2.031,1.397
2026-05-20 17:36:52.013,1182151469,657013,1,0.92505,-0.22949,0.55225,-1.748,-0.618,1.969
2026-05-20 17:36:52.013,1182151469,657013,2,0.79492,-0.64258,0.00317,-2.466,1.656,-0.321
2026-05-20 17:36:52.213,1182151669,657213,1,0.92261,-0.21411,0.55005,6.198,1.672,2.069
2026-05-20 17:36:52.213,1182151669,657213,2,0.80811,-0.63452,0.00854,-1.748,0.168,0.748
2026-05-20 17:36:53.413,1182152869,657413,1,0.93994,-0.23535,0.51733,3.695,1.954,0.786
2026-05-20 17:36:53.413,1182152869,657413,2,0.80054,-0.63599,-0.00098,-0.71,2.824,0.305
2026-05-20 17:36:53.646,1182153102,657646,1,0.9209,-0.21313,0.54761,-2.733,0.489,-1.069
2026-05-20 17:36:53.646,1182153102,657646,2,0.79443,-0.63989,0.00317,-4.084,0.931,1.45
2026-05-20 17:36:53.846,1182153302,657846,1,0.92847,-0.22681,0.52734,0.046,3.176,-0.847
2026-05-20 17:36:53.846,1182153302,657846,2,0.80762,-0.63647,-0.00537,-1.405,1.863,-0.489
2026-05-20 17:36:53.046,1182152502,658046,1,0.92749,-0.24219,0.54492,4.71,8.725,-2.985
2026-05-20 17:36:53.046,1182152502,658046,2,0.8103,-0.63965,0.00391,0.74,2.038,-1.153
2026-05-20 17:36:53.246,1182152702,658246,1,0.91504,-0.20483,0.58423,5.802,4.634,-1.16
2026-05-20 17:36:53.246,1182152702,658246,2,0.81201,-0.62476,0.02124,1.992,-0.924,-1.473
2026-05-20 17:36:54.446,1182153902,658446,1,0.90405,-0.18457,0.58887,1.916,6.183,-3.695
2026-05-20 17:36:54.446,1182153902,658446,2,0.8147,-0.6333,0.04272,0.053,1.718,-0.756
2026-05-20 17:36:54.646,1182154102,658646,1,0.90259,-0.1731,0.60718,-0.611,0.397,-0.656
2026-05-20 17:36:54.646,1182154102,658646,2,0.80981,-0.61133,0.0354,-1.313,-0.237,-1.313
2026-05-20 17:36:54.846,1182154302,658846,1,0.90161,-0.17749,0.60425,1.351,3.588,-2.855
2026-05-20 17:36:54.846,1182154302,658846,2,0.81958,-0.61499,0.03613,-2.573,0.954,-0.359
2026-05-20 17:36:54.081,1182153537,659081,1,0.89819,-0.15942,0.6106,1.313,2.389,-1.015
2026-05-20 17:36:54.081,1182153537,659081,2,0.82446,-0.62183,0.03516,-0.16,0.244,-0.176
2026-05-20 17:36:54.281,1182153737,659281,1,0.90503,-0.17041,0.60107,-1.229,1.221,-1.725
2026-05-20 17:36:54.281,1182153737,659281,2,0.83398,-0.62866,0.02661,4.252,0.298,0.206
2026-05-20 17:36:55.481,1182154937,659481,1,0.89868,-0.16357,0.59839,-0.634,4.42,-4.168
2026-05-20 17:36:55.481,1182154937,659481,2,0.81348,-0.59204,0.04688,-4.015,4.282,-0.29
2026-05-20 17:36:55.681,1182155137,659681,1,0.89111,-0.13232,0.62695,1.008,0.878,-1.901
2026-05-20 17:36:55.681,1182155137,659681,2,0.81445,-0.60132,0.05835,-1.115,-0.336,-0.214
2026-05-20 17:36:55.881,1182155337,659881,1,0.90771,-0.14233,0.604,-4.611,-4.198,3.771
2026-05-20 17:36:55.881,1182155337,659881,2,0.83008,-0.61328,0.03394,-2.412,-3.58,3.924
2026-05-20 17:36:55.081,1182154537,660081,1,0.91333,-0.18164,0.58154,-3.313,-1.847,4.191
2026-05-20 17:36:55.081,1182154537,660081,2,0.82593,-0.62451,0.00391,-2.023,-2.534,5.069
2026-05-20 17:36:55.281,1182154737,660281,1,0.91846,-0.21411,0.57056,-3.702,-3.16,5.26
2026-05-20 17:36:55.281,1182154737,660281,2,0.80664,-0.63867,-0.00684,-1.237,-0.985,3.603
2026-05-20 17:36:56.481,1182155937,660481,1,0.92798,-0.23413,0.55591,-2.008,-2.733,2.458
2026-05-20 17:36:56.481,1182155937,660481,2,0.80786,-0.63721,-0.00781,-3.687,-0.885,0.733
2026-05-20 17:36:56.701,1182156157,660700,1,0.91284,-0.23901,0.54224,-2.595,1.916,-1.153
2026-05-20 17:36:56.701,1182156157,660700,2,0.79858,-0.6438,-0.00928,-2.137,0.939,-0.008
2026-05-20 17:36:56.993,1182156449,660993,1,0.93384,-0.22095,0.54541,2.267,1.954,-0.634
2026-05-20 17:36:56.993,1182156449,660993,2,0.80371,-0.63818,-0.01245,0.046,-1.237,-1.145
2026-05-20 17:36:56.193,1182155649,661193,1,0.91406,-0.23657,0.54492,4.198,5.855,-2.069
2026-05-20 17:36:56.193,1182155649,661193,2,0.80737,-0.63013,0.00977,2.305,2.649,-1.695
2026-05-20 17:36:56.393,1182155849,661393,1,0.91016,-0.20093,0.57935,8.107,7.542,-2.947
2026-05-20 17:36:56.393,1182155849,661393,2,0.81421,-0.62964,0.01733,1.237,5.466,-2.542
2026-05-20 17:36:57.593,1182157049,661593,1,0.90894,-0.18506,0.59351,7.809,6.824,-2.55
2026-05-20 17:36:57.593,1182157049,661593,2,0.82349,-0.60645,0.04565,0.794,4.969,-1.71
2026-05-20 17:36:57.793,1182157249,661793,1,0.88745,-0.16431,0.63184,0.389,5.366,-4.13
2026-05-20 17:36:57.793,1182157249,661793,2,0.81909,-0.60229,0.05859,-0.962,3.221,-1.221
2026-05-20 17:36:57.993,1182157449,661993,1,0.88208,-0.14673,0.63159,4.504,5.275,-4.038
2026-05-20 17:36:57.993,1182157449,661993,2,0.83105,-0.60205,0.04175,0.229,1.58,-2.565
2026-05-20 17:36:57.193,1182156649,662193,1,0.88379,-0.13354,0.63916,1.908,2.702,-2.786
2026-05-20 17:36:57.193,1182156649,662193,2,0.82642,-0.59619,0.06396,0.122,2.763,-2.435
2026-05-20 17:36:57.393,1182156849,662393,1,0.87305,-0.1062,0.65015,2.534,2.947,-3.649
2026-05-20 17:36:57.393,1182156849,662393,2,0.83545,-0.58618,0.08057,-0.962,1.931,-1.496
2026-05-20 17:36:58.593,1182158049,662593,1,0.87427,-0.11279,0.65381,-0.122,2.771,-5.0
2026-05-20 17:36:58.593,1182158049,662593,2,0.83179,-0.58032,0.09326,-2.282,1.519,-1.389
2026-05-20 17:36:58.793,1182158249,662793,1,0.87476,-0.09155,0.67285,0.435,0.664,-2.931
2026-05-20 17:36:58.793,1182158249,662793,2,0.85059,-0.57813,0.08643,-0.771,1.252,-2.046
2026-05-20 17:36:58.993,1182158449,662993,1,0.8772,-0.08228,0.64551,-0.71,0.313,-2.809
2026-05-20 17:36:58.993,1182158449,662993,2,0.85327,-0.56348,0.09058,0.29,1.626,-1.374
2026-05-20 17:36:58.193,1182157649,663193,1,0.87549,-0.08301,0.66406,-2.58,0.145,-1.534
2026-05-20 17:36:58.193,1182157649,663193,2,0.8418,-0.56519,0.10205,-0.069,3.092,-0.634
2026-05-20 17:36:58.393,1182157849,663393,1,0.86597,-0.073,0.66064,-0.908,3.481,-1.885
2026-05-20 17:36:58.393,1182157849,663393,2,0.85547,-0.56006,0.0957,-1.328,0.916,-0.557
2026-05-20 17:36:59.593,1182159049,663593,1,0.86792,-0.07056,0.66846,0.137,1.832,-0.954
2026-05-20 17:36:59.593,1182159049,663593,2,0.85352,-0.56177,0.09717,-0.55,0.595,-0.008
2026-05-20 17:36:59.793,1182159249,663793,1,0.88403,-0.08716,0.66431,-0.031,0.466,-0.847
2026-05-20 17:36:59.793,1182159249,663793,2,0.86279,-0.55859,0.0874,1.374,-2.397,-0.473
2026-05-20 17:36:59.993,1182159449,663993,1,0.85303,-0.07397,0.677,-0.206,-1.878,-3.092
2026-05-20 17:36:59.993,1182159449,663993,2,0.83398,-0.54761,0.12744,-1.099,1.954,-1.977
2026-05-20 17:36:59.193,1182158649,664193,1,0.88428,-0.05713,0.64355,-9.298,-9.504,-6.817
2026-05-20 17:36:59.193,1182158649,664193,2,0.87061,-0.53735,0.06592,-11.916,-4.504,-0.176
2026-05-20 17:36:59.393,1182158849,664393,1,0.93384,-0.07666,0.59155,-15.718,-4.832,-9.725
2026-05-20 17:36:59.393,1182158849,664393,2,0.85596,-0.56055,0.0708,-7.092,-1.153,-2.557
2026-05-20 17:37:00.593,1182160049,664593,1,0.92993,-0.05591,0.58057,7.412,2.336,-1.618
2026-05-20 17:37:00.593,1182160049,664593,2,0.87305,-0.5249,0.07153,6.183,0.511,-3.481
2026-05-20 17:37:00.793,1182160249,664793,1,0.92993,-0.02222,0.5979,5.55,9.046,-4.863
2026-05-20 17:37:00.793,1182160249,664793,2,0.87524,-0.53003,0.08521,1.672,4.321,-2.626
2026-05-20 17:37:00.993,1182160449,664993,1,0.91089,-0.00708,0.60938,2.061,6.275,-0.427
2026-05-20 17:37:00.993,1182160449,664993,2,0.87549,-0.50684,0.10303,1.45,3.321,-0.611
2026-05-20 17:37:00.193,1182159649,665193,1,0.89624,-0.01758,0.63208,-0.954,6.13,-1.931
2026-05-20 17:37:00.193,1182159649,665193,2,0.87646,-0.48828,0.14185,0.779,3.168,-1.351
2026-05-20 17:37:01.415,1182160871,665415,1,0.8689,-0.00854,0.66431,0.191,4.618,-0.992
2026-05-20 17:37:01.415,1182160871,665415,2,0.88232,-0.49878,0.14087,-0.168,2.84,-0.55
2026-05-20 17:37:01.615,1182161071,665615,1,0.87769,,0.65503,0.137,3.733,-0.931
2026-05-20 17:37:01.615,1182161071,665615,2,0.88623,-0.49463,0.15625,-0.191,1.397,
2026-05-20 17:37:01.815,1182161271,665815,1,0.875,-0.01172,0.67212,-2.214,2.893,-2.053
2026-05-20 17:37:01.815,1182161271,665815,2,0.87817,-0.50439,0.14893,-1.611,1.817,-0.443
2026-05-20 17:37:01.015,1182160471,666015,1,0.87476,-0.01001,0.6665,-0.908,0.58,-1.817
2026-05-20 17:37:01.015,1182160471,666015,2,0.88452,-0.49243,0.15674,-0.679,4.023,-0.443
2026-05-20 17:37:01.215,1182160671,666215,1,0.88843,-0.00146,0.66162,-1.214,0.756,-1.809
2026-05-20 17:37:01.215,1182160671,666215,2,0.875,-0.48633,0.15674,-0.771,0.588,-0.847
2026-05-20 17:37:02.415,1182161871,666415,1,0.87793,0.01392,0.65796,0.351,0.198,0.641
2026-05-20 17:37:02.415,1182161871,666415,2,0.8877,-0.48218,0.16211,-1.115,0.954,0.443
2026-05-20 17:37:02.615,1182162071,666615,1,0.88135,-0.00269,0.65796,-1.527,2.42,0.389
2026-05-20 17:37:02.615,1182162071,666615,2,0.87598,-0.48267,0.16479,0.718,1.435,0.985
2026-05-20 17:37:02.827,1182162283,666827,1,0.89014,-0.00977,0.65674,-2.595,1.344,0.328
2026-05-20 17:37:02.827,1182162283,666827,2,0.8855,-0.48779,0.15723,-0.038,0.954,0.786
2026-05-20 17:37:02.027,1182161483,667027,1,0.86548,-0.0022,0.66675,0.122,3.336,-0.344
2026-05-20 17:37:02.027,1182161483,667027,2,0.88477,-0.48291,0.15259,-1.588,0.397,0.061
2026-05-20 17:37:02.266,1182161722,667266,1,0.8645,-0.00317,0.66528,-1.061,2.58,-1.267
2026-05-20 17:37:02.266,1182161722,667266,2,0.8728,-0.48462,0.17236,-2.656,0.481,0.069
2026-05-20 17:37:03.466,1182162922,667466,1,0.86963,-0.0061,0.66602,-0.328,0.664,-1.305
2026-05-20 17:37:03.466,1182162922,667466,2,0.88525,-0.48486,0.14868,-1.58,0.511,0.328
2026-05-20 17:37:03.752,1182163208,667752,1,0.87402,-0.00464,0.65356,0.305,0.313,-0.55
2026-05-20 17:37:03.752,1182163208,667752,2,0.89014,-0.47388,0.15771,-2.038,0.008,-0.046
2026-05-20 17:37:03.952,1182163408,667952,1,0.87329,0.00757,0.66528,-1.237,-0.527,-0.42
2026-05-20 17:37:03.952,1182163408,667952,2,0.88257,-0.47827,0.14282,-1.229,-0.977,1.26
2026-05-20 17:37:03.252,1182162708,668252,1,0.88086,0.00366,0.66504,-0.687,0.878,0.237
2026-05-20 17:37:03.252,1182162708,668252,2,0.89453,-0.479,0.15186,-0.649,-0.847,0.969
2026-05-20 17:37:04.494,1182163950,668494,1,0.88257,-0.01465,0.65967,-1.84,1.527,0.55
2026-05-20 17:37:04.494,1182163950,668494,2,0.88086,-0.48096,0.15063,-3.84,-0.992,0.473
2026-05-20 17:37:04.694,1182164150,668694,1,0.88525,-0.01538,0.65845,5.061,0.832,2.595
2026-05-20 17:37:04.694,1182164150,668694,2,0.86816,-0.46509,0.14624,-1.0,-4.489,1.26
2026-05-20 17:37:04.894,1182164350,668894,1,0.875,-0.01392,0.67114,0.328,1.115,-1.87
2026-05-20 17:37:04.894,1182164350,668894,2,0.88965,-0.48047,0.1543,-2.115,0.359,-0.244
2026-05-20 17:37:04.094,1182163550,669094,1,0.87915,-0.00073,0.6665,1.603,1.191,0.023
2026-05-20 17:37:04.094,1182163550,669094,2,0.89331,-0.47192,0.15381,-1.947,3.076,-1.0
2026-05-20 17:37:04.294,1182163750,669294,1,0.88574,-0.01196,0.65552,-0.122,2.137,-3.527
2026-05-20 17:37:04.294,1182163750,669294,2,0.89917,-0.48657,0.14087,-1.939,2.718,-1.534
2026-05-20 17:37:05.494,1182164950,669494,1,0.8689,0.00928,0.64429,-2.947,-0.756,-0.473
2026-05-20 17:37:05.494,1182164950,669494,2,0.89502,-0.47705,0.13818,-3.756,1.626,0.565
2026-05-20 17:37:05.694,1182165150,669694,1,0.8855,-0.00195,0.6394,0.725,3.328,-4.069
2026-05-20 17:37:05.694,1182165150,669694,2,0.8894,-0.46265,0.14307,1.84,1.305,1.328
2026-05-20 17:37:05.894,1182165350,669894,1,0.8606,-0.00464,0.6853,-5.855,2.168,-4.565
2026-05-20 17:37:05.894,1182165350,669894,2,0.88501,-0.48022,0.13843,-1.916,3.206,-1.565
2026-05-20 17:37:05.100,1182164556,670100,1,0.8645,0.01416,0.66602,2.565,-0.595,-4.305
2026-05-20 17:37:05.100,1182164556,670100,2,0.88135,-0.48413,0.14063,-0.985,-1.122,-4.008
2026-05-20 17:37:05.300,1182164756,670300,1,0.87549,0.02759,0.6604,-1.366,-1.534,-2.71
2026-05-20 17:37:05.300,1182164756,670300,2,0.90283,-0.46069,0.13965,1.198,0.756,-0.267
2026-05-20 17:37:06.534,1182165990,670534,1,0.88281,0.04858,0.65308,1.374,0.496,0.092
2026-05-20 17:37:06.534,1182165990,670534,2,0.88721,-0.45752,0.13818,2.282,-0.359,0.481
2026-05-20 17:37:06.734,1182166190,670734,1,0.88428,0.04785,0.63574,0.916,1.0,1.687
2026-05-20 17:37:06.734,1182166190,670734,2,0.90894,-0.45313,0.13599,-0.702,-0.664,0.901
2026-05-20 17:37:06.934,1182166390,670934,1,0.90063,0.02002,0.64404,0.473,2.351,0.321
2026-05-20 17:37:06.934,1182166390,670934,2,0.90112,-0.45703,0.14307,0.527,0.725,-0.458
2026-05-20 17:37:06.134,1182165590,671134,1,0.88965,0.03247,0.64404,0.908,-1.183,2.0
2026-05-20 17:37:06.134,1182165590,671134,2,0.89917,-0.45679,0.14575,-0.557,0.176,0.061
2026-05-20 17:37:06.334,1182165790,671334,1,0.89722,0.01782,0.64307,-1.366,1.885,0.275
2026-05-20 17:37:06.334,1182165790,671334,2,0.89355,-0.46191,0.14526,-1.298,0.344,1.634
2026-05-20 17:37:07.534,1182166990,671534,1,0.88745,0.02637,0.646,-4.244,0.878,0.702
2026-05-20 17:37:07.534,1182166990,671534,2,0.90063,-0.46509,0.14111,-3.618,-0.275,1.481
2026-05-20 17:37:07.734,1182167190,671734,1,0.8938,0.00513,0.64233,-1.626,0.527,-1.29
2026-05-20 17:37:07.734,1182167190,671734,2,0.90161,-0.4624,0.13843,-5.634,1.252,-0.389
2026-05-20 17:37:07.963,1182167419,671963,1,0.8728,0.01831,0.65942,-2.023,4.069,-7.229
2026-05-20 17:37:07.963,1182167419,671963,2,0.88794,-0.47607,0.14551,-5.481,0.55,-2.389
2026-05-20 17:37:07.163,1182166619,672163,1,0.8811,0.05664,0.65649,4.26,-2.511,-1.542
2026-05-20 17:37:07.163,1182166619,672163,2,0.9082,-0.45068,0.12036,1.313,-4.443,-2.534
2026-05-20 17:37:07.363,1182166819,672363,1,0.89746,0.07886,0.6377,2.382,0.321,0.672
2026-05-20 17:37:07.363,1182166819,672363,2,0.9231,-0.43506,0.14355,-0.519,1.153,2.611
2026-05-20 17:37:08.563,1182168019,672563,1,0.8833,0.06592,0.6377,-5.588,0.557,1.794
2026-05-20 17:37:08.563,1182168019,672563,2,0.91406,-0.44556,0.14209,-2.366,2.496,3.908
2026-05-20 17:37:08.763,1182168219,672763,1,0.8938,0.00635,0.63696,-4.58,1.16,2.855
2026-05-20 17:37:08.763,1182168219,672763,2,0.89722,-0.45264,0.15112,1.282,0.611,1.328
2026-05-20 17:37:08.002,1182167458,673001,1,0.88965,0.01587,0.62964,-1.641,0.817,1.351
2026-05-20 17:37:08.002,1182167458,673001,2,0.89526,-0.46094,0.14893,-1.389,1.397,0.588
2026-05-20 17:37:08.201,1182167657,673201,1,0.88599,0.02563,0.63428,1.466,2.389,0.061
2026-05-20 17:37:08.201,1182167657,673201,2,0.89917,-0.44971,0.15625,-2.481,-0.053,-0.053
2026-05-20 17:37:08.401,1182167857,673401,1,0.89331,0.01172,0.6438,2.473,2.664,-1.809
2026-05-20 17:37:08.401,1182167857,673401,2,0.90088,-0.45386,0.15308,-0.786,1.344,-1.435
2026-05-20 17:37:09.601,1182169057,673601,1,0.88794,0.02612,0.64258,10.802,3.107,-4.771
2026-05-20 17:37:09.601,1182169057,673601,2,0.8938,-0.44824,0.15015,-3.542,2.099,-8.748
2026-05-20 17:37:09.801,1182169257,673801,1,0.87964,0.11816,0.63525,25.969,-5.924,4.008
2026-05-20 17:37:09.801,1182169257,673801,2,0.95923,-0.35059,0.19287,-2.122,7.84,-11.695
2026-05-20 17:37:09.001,1182168457,674001,1,0.91309,0.13208,0.61523,-14.229,-11.916,4.458
2026-05-20 17:37:09.001,1182168457,674001,2,0.94263,-0.3689,0.15039,-4.878,-2.466,-4.458
2026-05-20 17:37:09.201,1182168657,674201,1,0.9209,-0.01685,0.61621,-36.344,-7.099,1.038
2026-05-20 17:37:09.201,1182168657,674201,2,0.96265,-0.37402,0.15454,-6.435,13.076,-13.076
2026-05-20 17:37:09.401,1182168857,674401,1,0.89966,-0.05005,0.63354,17.244,7.221,1.924
2026-05-20 17:37:09.401,1182168857,674401,2,0.94629,-0.27417,0.146,8.313,-10.13,-9.031
2026-05-20 17:37:10.601,1182170057,674601,1,0.92041,-0.00122,0.61182,-11.015,-0.122,-3.756
2026-05-20 17:37:10.601,1182170057,674601,2,0.95874,-0.27148,0.17749,-0.763,0.748,-2.099
2026-05-20 17:37:10.866,1182170322,674866,1,0.91968,0.00293,0.60913,2.191,2.565,-0.397
2026-05-20 17:37:10.866,1182170322,674866,2,0.97681,-0.26196,0.16382,-1.229,-0.771,-0.153
2026-05-20 17:37:10.066,1182169522,675066,1,0.92212,-0.01709,0.59448,1.779,2.679,0.931
2026-05-20 17:37:10.066,1182169522,675066,2,0.97461,-0.2561,0.17212,-2.008,1.206,-0.069
2026-05-20 17:37:10.344,1182169800,675344,1,0.91357,0.00415,0.60693,-2.26,1.679,0.206
2026-05-20 17:37:10.344,1182169800,675344,2,0.97192,-0.27026,0.16382,-1.542,0.305,1.031
2026-05-20 17:37:11.544,1182171000,675544,1,0.92041,-0.01147,0.60522,-1.748,2.26,0.725
2026-05-20 17:37:11.544,1182171000,675544,2,0.97363,-0.2644,0.15283,-1.359,0.779,0.076
2026-05-20 17:37:11.744,1182171200,675744,1,0.9165,-0.01709,0.60522,-1.802,1.702,-0.198
2026-05-20 17:37:11.744,1182171200,675744,2,0.98315,-0.26318,0.16748,-1.45,1.229,-0.13
2026-05-20 17:37:11.944,1182171400,675944,1,0.92163,-0.00439,0.60498,-1.168,0.679,-1.084
2026-05-20 17:37:11.944,1182171400,675944,2,0.96851,-0.25342,0.16284,2.534,-2.076,2.611
2026-05-20 17:37:11.144,1182170600,676144,1,0.92041,0.00049,0.62378,18.282,3.489,0.855
2026-05-20 17:37:11.144,1182170600,676144,2,0.95605,-0.24927,0.14697,1.397,-3.817,4.42
2026-05-20 17:37:11.401,1182170857,676401,1,0.92578,0.01367,0.61499,-11.267,0.595,-2.336
2026-05-20 17:37:11.401,1182170857,676401,2,0.97119,-0.32007,0.14722,-3.573,0.298,0.458
2026-05-20 17:37:12.601,1182172057,676601,1,0.92285,-0.03198,0.604,-6.802,-0.519,3.931
2026-05-20 17:37:12.601,1182172057,676601,2,0.97583,-0.24902,0.16113,-1.221,1.672,-4.702
2026-05-20 17:37:12.801,1182172257,676801,1,0.91553,0.00781,0.63037,-2.863,2.527,-1.672
2026-05-20 17:37:12.801,1182172257,676801,2,0.97437,-0.24121,0.16333,-1.168,1.656,-1.252
2026-05-20 17:37:12.001,1182171457,677001,1,0.91724,0.0022,0.60474,0.366,2.282,-1.618
2026-05-20 17:37:12.001,1182171457,677001,2,0.97974,-0.24878,0.15552,-1.901,0.504,0.473
2026-05-20 17:37:12.201,1182171657,677201,1,0.90918,-0.01221,0.59888,0.939,1.305,0.198
2026-05-20 17:37:12.201,1182171657,677201,2,0.98535,-0.25146,0.16211,-2.191,-0.092,1.397
2026-05-20 17:37:12.401,1182171857,677401,1,0.92114,0.00781,0.61279,3.687,1.786,0.389
2026-05-20 17:37:12.401,1182171857,677401,2,0.97729,-0.24683,0.14233,-0.618,-1.504,2.153
2026-05-20 17:37:13.601,1182173057,677601,1,0.90234,0.00244,0.62549,10.626,0.969,3.092
2026-05-20 17:37:13.601,1182173057,677601,2,0.96826,-0.25317,0.14575,-1.214,-3.084,3.336
2026-05-20 17:37:13.801,1182173257,677801,1,0.927,,0.58374,3.0,-0.374,2.634
2026-05-20 17:37:13.801,1182173257,677801,2,0.97583,-0.26953,0.12256,-1.031,-0.244,4.008
2026-05-20 17:37:13.001,1182172457,678001,1,0.91895,0.01733,0.59521,8.053,-0.931,2.313
2026-05-20 17:37:13.001,1182172457,678001,2,0.98193,-0.25879,0.13989,-0.504,4.198,7.107
2026-05-20 17:37:13.210,1182172666,678209,1,0.92017,-0.03003,0.57007,-4.878,5.176,-8.618
2026-05-20 17:37:13.210,1182172666,678209,2,0.95947,-0.32007,0.14282,-2.214,4.565,6.183
2026-05-20 17:37:13.409,1182172865,678409,1,0.89722,-0.03613,0.61255,19.359,12.382,-7.573
2026-05-20 17:37:13.409,1182172865,678409,2,0.95581,-0.31445,0.17285,5.748,-1.382,-2.427
2026-05-20 17:37:14.609,1182174065,678609,1,0.90088,0.09497,0.6189,25.481,2.282,-2.275
2026-05-20 17:37:14.609,1182174065,678609,2,0.95361,-0.3064,0.16772,-3.687,-11.183,-6.107
2026-05-20 17:37:14.809,1182174265,678809,1,0.92554,0.14551,0.58179,19.733,-4.153,-1.832
2026-05-20 17:37:14.809,1182174265,678809,2,0.97778,-0.27539,0.10376,-4.954,-10.13,-1.122
2026-05-20 17:37:14.014,1182173470,679013,1,0.94214,0.13794,0.52563,-19.107,-5.611,0.649
2026-05-20 17:37:14.014,1182173470,679013,2,1.00952,-0.2627,0.05469,-2.489,-1.389,2.069
2026-05-20 17:37:14.213,1182173669,679213,1,0.96875,0.11621,0.52393,-9.58,-0.527,6.015
2026-05-20 17:37:14.213,1182173669,679213,2,0.9917,-0.27783,0.04736,0.435,-0.71,5.321
2026-05-20 17:37:15.413,1182174869,679413,1,0.93433,0.08032,0.54883,-0.046,2.374,3.198
2026-05-20 17:37:15.413,1182174869,679413,2,0.97144,-0.29175,0.0791,-0.679,3.359,3.771
2026-05-20 17:37:15.613,1182175069,679613,1,0.94629,0.07349,0.56494,-1.366,-1.0,3.779
2026-05-20 17:37:15.613,1182175069,679613,2,0.97729,-0.302,0.09229,0.183,-0.214,1.053
2026-05-20 17:37:15.813,1182175269,679813,1,0.95752,0.06201,0.51733,-11.351,-0.84,-0.519
2026-05-20 17:37:15.813,1182175269,679813,2,0.9873,-0.30908,0.07813,-3.664,-0.42,0.473
2026-05-20 17:37:15.013,1182174469,680013,1,0.94702,0.04712,0.55371,-2.901,1.389,-1.214
2026-05-20 17:37:15.013,1182174469,680013,2,0.97754,-0.30347,0.06616,-4.046,-0.244,0.771
2026-05-20 17:37:15.277,1182174733,680277,1,0.93652,0.06738,0.57471,11.626,2.397,-1.863
2026-05-20 17:37:15.277,1182174733,680277,2,0.97705,-0.30151,0.08594,-4.275,0.985,0.29
2026-05-20 17:37:16.477,1182175933,680477,1,0.9751,0.07349,0.56641,-34.504,-4.878,1.771
2026-05-20 17:37:16.477,1182175933,680477,2,0.99902,-0.31177,0.06885,-0.58,4.359,1.786
2026-05-20 17:37:16.677,1182176133,680677,1,0.92139,0.06934,0.5271,18.511,11.748,3.832
2026-05-20 17:37:16.677,1182176133,680677,2,0.96143,-0.29956,0.09863,1.458,-1.275,1.725
2026-05-20 17:37:16.877,1182176333,680877,1,0.9668,0.05811,0.55664,1.55,1.061,-2.435
2026-05-20 17:37:16.877,1182176333,680877,2,0.97632,-0.3103,0.06982,-5.42,-0.947,1.115
2026-05-20 17:37:16.077,1182175533,681077,1,0.94067,0.04224,0.57178,0.756,-1.847,0.244
2026-05-20 17:37:16.077,1182175533,681077,2,0.95703,-0.30762,0.09058,-2.122,-0.321,-3.534
2026-05-20 17:37:17.594,1182177050,681594,1,0.94775,0.04834,0.54761,-2.023,3.802,-0.679
2026-05-20 17:37:17.594,1182177050,681594,2,0.98291,-0.27563,0.07764,1.588,1.847,3.786
2026-05-20 17:37:17.230,1182176686,682230,1,0.97705,0.04443,0.54858,-41.985,2.046,-4.71
2026-05-20 17:37:17.230,1182176686,682230,2,0.95923,-0.31396,0.1416,7.351,4.244,1.908
2026-05-20 17:37:18.586,1182178042,682586,1,0.91406,0.02759,0.5918,-6.076,2.328,0.176
2026-05-20 17:37:18.586,1182178042,682586,2,0.96338,-0.33032,0.13428,-5.573,1.771,3.542
2026-05-20 17:37:18.786,1182178242,682786,1,0.90967,-0.02612,0.60278,-0.885,3.16,0.786
2026-05-20 17:37:18.786,1182178242,682786,2,0.9458,-0.35522,0.15137,2.321,2.16,1.695
2026-05-20 17:37:18.986,1182178442,682986,1,0.90649,-0.01904,0.60864,0.076,1.183,0.863
2026-05-20 17:37:18.986,1182178442,682986,2,0.94775,-0.35303,0.15015,0.267,-0.618,1.023
2026-05-20 17:37:18.186,1182177642,683186,1,0.91895,0.01074,0.61572,0.985,3.679,-0.84
2026-05-20 17:37:18.186,1182177642,683186,2,0.94214,-0.35962,0.15161,-2.061,1.145,1.45
2026-05-20 17:37:18.386,1182177842,683386,1,0.90967,-0.01025,0.60059,1.458,1.687,-0.321
2026-05-20 17:37:18.386,1182177842,683386,2,0.93799,-0.34863,0.15112,-2.565,1.237,-0.061
2026-05-20 17:37:19.586,1182179042,683586,1,0.91602,-0.00122,0.61401,-2.321,2.763,-0.885
2026-05-20 17:37:19.586,1182179042,683586,2,0.93774,-0.36377,0.13623,-1.069,0.763,1.031
2026-05-20 17:37:19.006,1182178462,684006,1,0.90869,-0.00146,0.62061,-2.565,2.023,-0.015
2026-05-20 17:37:19.006,1182178462,684006,2,0.92798,-0.35254,0.12744,-3.802,-5.26,1.977
2026-05-20 17:37:19.206,1182178662,684206,1,0.90259,-0.01636,0.63232,-0.252,2.603,-1.267
2026-05-20 17:37:19.206,1182178662,684206,2,0.95801,-0.36475,0.10571,-1.45,-1.855,1.038
2026-05-20 17:37:20.667,1182180123,684667,1,0.89307,-0.00269,0.64307,-0.221,3.786,-1.58
2026-05-20 17:37:20.667,1182180123,684667,2,0.94922,-0.37036,0.10962,-3.847,0.122,0.229
2026-05-20 17:37:20.867,1182180323,684867,1,0.90308,0.01001,0.64893,1.595,4.061,-1.015
2026-05-20 17:37:20.867,1182180323,684867,2,0.96045,-0.36475,0.11108,-0.71,-1.069,0.626
2026-05-20 17:37:20.067,1182179523,685067,1,0.89307,-0.01465,0.63379,0.84,2.473,-2.046
2026-05-20 17:37:20.067,1182179523,685067,2,0.93896,-0.37671,0.08179,-0.794,-3.832,1.13
2026-05-20 17:37:20.267,1182179723,685267,1,0.89526,0.00781,0.63379,-0.496,1.557,0.344
2026-05-20 17:37:20.267,1182179723,685267,2,0.95825,-0.3772,0.10059,2.58,-2.42,-0.641
2026-05-20 17:37:21.467,1182180923,685467,1,0.88281,0.02881,0.6438,2.527,3.458,-3.542
2026-05-20 17:37:21.467,1182180923,685467,2,0.93945,-0.38403,0.09863,-1.359,1.389,1.008
2026-05-20 17:37:21.667,1182181123,685667,1,0.89111,0.00073,0.65674,-3.374,0.626,-1.443
2026-05-20 17:37:21.667,1182181123,685667,2,0.9541,-0.37866,0.08618,3.794,-4.74,1.267
2026-05-20 17:37:21.245,1182180701,686245,1,0.89185,-0.01074,0.65259,-1.275,-1.206,0.527
2026-05-20 17:37:21.245,1182180701,686245,2,0.95093,-0.36768,0.08594,-4.45,-0.115,1.42
2026-05-20 17:37:22.581,1182182037,686580,1,0.90015,-0.00854,0.65039,-0.939,2.802,-1.031
2026-05-20 17:37:22.581,1182182037,686580,2,0.93652,-0.38452,0.08643,-3.458,2.321,-0.931
2026-05-20 17:37:22.819,1182182275,686819,1,0.89966,0.01099,0.64526,0.191,2.527,-0.985
2026-05-20 17:37:22.819,1182182275,686819,2,0.95313,-0.36914,0.09082,-2.527,-1.382,0.748
2026-05-20 17:37:22.040,1182181496,687039,1,0.89575,0.02051,0.64185,2.275,3.847,-0.565
2026-05-20 17:37:22.040,1182181496,687039,2,0.95654,-0.37891,0.08276,-3.473,-3.183,1.885
2026-05-20 17:37:22.273,1182181729,687273,1,0.89136,-0.00732,0.6377,2.824,0.183,1.244
2026-05-20 17:37:22.273,1182181729,687273,2,0.93799,-0.38599,0.06543,-0.885,-2.71,2.053
2026-05-20 17:37:23.530,1182182986,687530,1,0.90015,0.01587,0.63721,-0.954,-2.084,1.664
2026-05-20 17:37:23.530,1182182986,687530,2,0.96118,-0.37573,0.07178,-2.252,-1.282,1.908
2026-05-20 17:37:23.730,1182183186,687730,1,0.90283,-0.0022,0.62207,-1.672,-0.374,0.87
2026-05-20 17:37:23.730,1182183186,687730,2,0.95068,-0.38745,0.07495,0.084,-1.55,0.557
2026-05-20 17:37:23.930,1182183386,687930,1,0.89526,-0.0083,0.62988,0.435,1.634,0.145
2026-05-20 17:37:23.930,1182183386,687930,2,0.94409,-0.38525,0.06274,-2.336,2.496,-2.031
2026-05-20 17:37:23.130,1182182586,688130,1,0.90112,-0.01172,0.63501,-1.298,0.42,0.656
2026-05-20 17:37:23.130,1182182586,688130,2,0.95361,-0.36597,0.06909,-0.328,0.351,-1.794
2026-05-20 17:37:23.330,1182182786,688330,1,0.90063,0.00708,0.62769,0.893,2.534,-2.053
2026-05-20 17:37:23.330,1182182786,688330,2,0.95752,-0.36865,0.07837,-2.519,1.58,-0.695
2026-05-20 17:37:24.530,1182183986,688530,1,0.90698,0.00781,0.63184,3.588,2.153,-0.221
2026-05-20 17:37:24.530,1182183986,688530,2,0.95728,-0.36206,0.07495,-2.557,1.557,0.282
2026-05-20 17:37:24.730,1182184186,688730,1,0.90088,0.0022,0.6167,-0.908,1.397,-0.412
2026-05-20 17:37:24.730,1182184186,688730,2,0.95239,-0.36914,0.06738,-1.481,1.634,0.611
2026-05-20 17:37:24.930,1182184386,688930,1,0.90601,0.00879,0.62549,-0.26,3.038,-0.649
2026-05-20 17:37:24.930,1182184386,688930,2,0.95459,-0.36914,0.06885,-0.779,-0.489,0.504
2026-05-20 17:37:24.130,1182183586,689130,1,0.90063,-0.0127,0.6311,0.313,1.565,-1.794
2026-05-20 17:37:24.130,1182183586,689130,2,0.96265,-0.36133,0.07007,-1.565,1.763,-0.748
2026-05-20 17:37:24.330,1182183786,689330,1,0.87964,0.02832,0.64697,3.779,5.664,1.031
2026-05-20 17:37:24.330,1182183786,689330,2,0.94556,-0.36133,0.06665,-0.939,2.176,-3.427
2026-05-20 17:37:25.530,1182184986,689530,1,0.896,0.00366,0.63892,1.817,-0.992,1.565
2026-05-20 17:37:25.530,1182184986,689530,2,0.97681,-0.33765,0.09009,-3.519,1.275,-3.282
2026-05-20 17:37:25.730,1182185186,689730,1,0.91138,0.01611,0.61816,0.214,0.58,0.58
2026-05-20 17:37:25.730,1182185186,689730,2,0.98022,-0.33911,0.07471,-1.527,2.74,-0.26
2026-05-20 17:37:25.930,1182185386,689930,1,0.9043,-0.00342,0.60986,0.313,2.214,-2.069
2026-05-20 17:37:25.930,1182185386,689930,2,0.96094,-0.34155,0.08667,-2.42,4.443,0.336
2026-05-20 17:37:25.222,1182184678,690222,1,0.91431,0.00488,0.62769,-2.321,2.038,-0.832
2026-05-20 17:37:25.222,1182184678,690222,2,0.948,-0.33423,0.08154,7.947,0.473,5.244
2026-05-20 17:37:26.540,1182185996,690540,1,0.87866,-0.0105,0.6438,12.969,5.733,-2.824
2026-05-20 17:37:26.540,1182185996,690540,2,0.9751,-0.36206,0.05737,-5.221,1.099,3.176
2026-05-20 17:37:26.936,1182186392,690936,1,0.89966,0.03882,0.61035,-1.267,-4.58,-0.107
2026-05-20 17:37:26.936,1182186392,690936,2,0.96631,-0.34106,0.04883,-3.115,1.427,-1.42
2026-05-20 17:37:26.290,1182185746,691290,1,0.90015,0.04834,0.60522,-4.29,2.473,-1.519
2026-05-20 17:37:26.290,1182185746,691290,2,0.96704,-0.35718,0.04175,-0.534,-2.267,0.214
2026-05-20 17:37:27.490,1182186946,691490,1,0.89893,0.0459,0.6189,2.511,4.527,-1.45
2026-05-20 17:37:27.490,1182186946,691490,2,0.96362,-0.35596,0.04395,-0.695,-0.962,0.191
2026-05-20 17:37:27.704,1182187160,691704,1,0.89771,0.05786,0.61694,0.947,2.229,0.916
2026-05-20 17:37:27.704,1182187160,691704,2,0.96851,-0.3479,0.05713,-2.496,4.031,0.969
2026-05-20 17:37:27.939,1182187395,691939,1,0.91235,0.04321,0.61108,-1.198,2.634,0.763
2026-05-20 17:37:27.939,1182187395,691939,2,0.95508,-0.35181,0.09546,-1.13,7.183,-0.466
2026-05-20 17:37:27.209,1182186665,692209,1,0.89575,0.03784,0.63037,1.389,-0.099,1.366
2026-05-20 17:37:27.209,1182186665,692209,2,0.96704,-0.35278,0.05615,-1.412,2.382,-0.931
2026-05-20 17:37:28.548,1182188004,692548,1,0.90991,0.04468,0.62817,-1.069,1.626,-2.313
2026-05-20 17:37:28.548,1182188004,692548,2,0.93555,-0.35278,0.06396,0.977,2.031,-1.29
2026-05-20 17:37:28.063,1182187519,693063,1,0.90283,0.06836,0.6228,2.298,2.542,-2.29
2026-05-20 17:37:28.063,1182187519,693063,2,0.96069,-0.33545,0.0647,1.435,-3.038,1.321
2026-05-20 17:37:28.263,1182187719,693263,1,0.95215,0.10596,0.54053,-6.038,2.237,7.817
2026-05-20 17:37:28.263,1182187719,693263,2,0.9231,-0.37158,0.07861,8.885,-4.573,3.939
2026-05-20 17:37:29.463,1182188919,693463,1,0.89941,-0.01807,0.62598,2.58,4.275,11.0
2026-05-20 17:37:29.463,1182188919,693463,2,0.9353,-0.31787,0.11792,0.824,0.71,5.099
2026-05-20 17:37:29.666,1182189122,693666,1,0.87793,-0.05322,0.64795,-3.176,12.718,-4.443
2026-05-20 17:37:29.666,1182189122,693666,2,0.91821,-0.43359,0.06787,-6.511,7.756,5.885
2026-05-20 17:37:29.866,1182189322,693866,1,0.89795,-0.02197,0.63647,-2.924,-4.382,4.924
2026-05-20 17:37:29.866,1182189322,693866,2,0.96094,-0.38306,0.06812,-3.099,-0.45,2.389
2026-05-20 17:37:29.066,1182188522,694066,1,0.92798,0.01221,0.60522,-9.55,2.397,-0.031
2026-05-20 17:37:29.066,1182188522,694066,2,0.95361,-0.41455,0.03467,0.931,-3.099,3.313
2026-05-20 17:37:29.266,1182188722,694266,1,0.91382,-0.04565,0.62573,-5.74,0.183,1.611
2026-05-20 17:37:29.266,1182188722,694266,2,0.93481,-0.4082,0.06201,-2.198,1.076,1.771
2026-05-20 17:37:30.573,1182190029,694573,1,0.90894,-0.06763,0.62744,-2.748,0.527,1.435
2026-05-20 17:37:30.573,1182190029,694573,2,0.94946,-0.40894,0.04028,-3.031,-2.626,0.145
2026-05-20 17:37:30.773,1182190229,694773,1,0.89551,-0.06079,0.62109,1.947,2.122,-0.466
2026-05-20 17:37:30.773,1182190229,694773,2,0.93506,-0.41675,0.03003,-2.962,-2.893,1.359
2026-05-20 17:37:30.182,1182189638,695182,1,0.90356,-0.06152,0.62549,-0.336,1.779,-0.649
2026-05-20 17:37:30.182,1182189638,695182,2,0.93115,-0.41895,0.03687,-0.389,4.008,1.084
2026-05-20 17:37:31.437,1182190893,695437,1,0.90405,-0.06421,0.62476,-1.13,-0.023,0.863
2026-05-20 17:37:31.437,1182190893,695437,2,0.92358,-0.42529,0.0293,-4.221,1.611,1.42
2026-05-20 17:37:31.646,1182191102,695646,1,0.89526,-0.10034,0.65283,18.527,0.626,-4.962
2026-05-20 17:37:31.646,1182191102,695646,2,0.9502,-0.4104,0.02319,7.534,-10.542,11.748
2026-05-20 17:37:31.890,1182191346,695890,1,0.87793,0.0498,0.64355,10.031,8.718,-8.282
2026-05-20 17:37:31.890,1182191346,695890,2,0.9043,-0.50854,0.04199,-0.542,-2.061,11.397
2026-05-20 17:37:31.113,1182190569,696113,1,0.89331,0.09302,0.65381,20.458,7.099,4.16
2026-05-20 17:37:31.113,1182190569,696113,2,0.90552,-0.50537,0.03149,-3.916,1.779,7.412
2026-05-20 17:37:31.313,1182190769,696313,1,0.87842,0.0542,0.6604,-4.595,-1.328,2.023
2026-05-20 17:37:31.313,1182190769,696313,2,0.896,-0.50391,0.01294,0.489,-3.87,2.641
2026-05-20 17:37:32.513,1182191969,696513,1,0.89136,0.04272,0.63159,-6.427,-1.504,1.336
2026-05-20 17:37:32.513,1182191969,696513,2,0.90015,-0.50928,0.00391,0.061,0.206,1.725
2026-05-20 17:37:32.713,1182192169,696713,1,0.88477,0.05542,0.64819,-0.351,4.237,-0.122
2026-05-20 17:37:32.713,1182192169,696713,2,0.89185,-0.5293,-0.02246,1.137,-0.282,0.992
2026-05-20 17:37:32.932,1182192388,696931,1,0.8772,0.04688,0.65771,-1.122,0.687,3.26
2026-05-20 17:37:32.932,1182192388,696931,2,0.88989,-0.52173,0.03467,0.733,-1.313,0.466
2026-05-20 17:37:32.131,1182191587,697131,1,0.8833,0.02515,0.64307,-2.824,1.901,-0.176
2026-05-20 17:37:32.131,1182191587,697131,2,0.89111,-0.52563,0.03198,1.603,-0.176,-0.038
2026-05-20 17:37:32.331,1182191787,697331,1,0.88208,0.02612,0.64551,-1.794,2.802,-0.489
2026-05-20 17:37:32.331,1182191787,697331,2,0.87964,-0.52759,0.04028,-2.802,2.916,0.489
2026-05-20 17:37:33.531,1182192987,697531,1,0.87622,0.03589,0.64648,-2.359,-0.931,0.298
2026-05-20 17:37:33.531,1182192987,697531,2,0.85645,-0.53442,0.03931,-3.71,3.305,-0.29
2026-05-20 17:37:33.731,1182193187,697731,1,0.89575,0.03735,0.64404,-1.252,0.084,-1.153
2026-05-20 17:37:33.731,1182193187,697731,2,0.8833,-0.51807,0.02563,-3.496,3.527,-0.527
2026-05-20 17:37:33.931,1182193387,697931,1,0.89746,0.01831,0.65479,-1.71,3.099,-0.771
2026-05-20 17:37:33.931,1182193387,697931,2,0.87842,-0.52954,0.03735,-0.672,4.527,-2.542
2026-05-20 17:37:33.157,1182192613,698156,1,0.90137,0.00391,0.62476,-1.702,-3.412,7.237
2026-05-20 17:37:33.157,1182192613,698156,2,0.89063,-0.49219,0.05957,-0.84,-0.985,-3.107
2026-05-20 17:37:34.428,1182193884,698428,1,0.91089,0.00537,0.62378,-4.824,1.924,2.053
2026-05-20 17:37:34.428,1182193884,698428,2,0.88721,-0.48828,0.05737,-0.687,1.496,-0.275
2026-05-20 17:37:34.628,1182194084,698628,1,0.93384,0.01904,0.61548,-0.336,5.038,4.588
2026-05-20 17:37:34.628,1182194084,698628,2,0.90845,-0.47974,0.06714,-0.374,-7.198,5.382
2026-05-20 17:37:34.828,1182194284,698828,1,0.89575,-0.01807,0.64697,-6.389,7.298,-4.275
2026-05-20 17:37:34.828,1182194284,698828,2,0.88379,-0.52441,0.05078,-4.237,6.672,1.573
2026-05-20 17:37:34.040,1182193496,699040,1,0.90405,-0.04126,0.63062,1.053,2.092,0.947
2026-05-20 17:37:34.040,1182193496,699040,2,0.88232,-0.48511,0.06714,3.748,0.176,-1.542
2026-05-20 17:37:34.240,1182193696,699240,1,0.89819,-0.02661,0.66016,6.0,7.092,-0.664
2026-05-20 17:37:34.240,1182193696,699240,2,0.86353,-0.51318,0.08301,1.084,-3.779,2.496
2026-05-20 17:37:35.440,1182194896,699440,1,0.87695,-0.04761,0.66064,-5.16,-0.244,3.122
2026-05-20 17:37:35.440,1182194896,699440,2,0.89917,-0.50122,0.06445,-4.573,1.893,-0.519
2026-05-20 17:37:35.640,1182195096,699640,1,0.88965,-0.08838,0.6604,-3.611,3.458,-7.656
2026-05-20 17:37:35.640,1182195096,699640,2,0.88867,-0.51489,0.0708,0.115,6.786,-5.389
2026-05-20 17:37:35.840,1182195296,699840,1,0.86206,-0.01538,0.65894,9.0,-0.366,1.74
2026-05-20 17:37:35.840,1182195296,699840,2,0.89331,-0.44165,0.10449,3.42,-8.305,-2.542
2026-05-20 17:37:35.040,1182194496,700040,1,0.88745,-0.01245,0.65527,0.427,1.962,-2.435
2026-05-20 17:37:35.040,1182194496,700040,2,0.9126,-0.47437,0.05981,-5.977,-0.427,-0.221
2026-05-20 17:37:35.297,1182194753,700297,1,0.90063,-0.03638,0.63794,-3.053,-0.702,-0.954
2026-05-20 17:37:35.297,1182194753,700297,2,0.90063,-0.47095,0.08301,2.573,1.015,0.397
2026-05-20 17:37:36.497,1182195953,700497,1,0.90063,0.02393,0.646,10.435,3.557,4.443
2026-05-20 17:37:36.497,1182195953,700497,2,0.9165,-0.47192,0.06934,1.817,-3.435,2.985
2026-05-20 17:37:36.697,1182196153,700697,1,0.89331,-0.04004,0.64771,-3.275,-1.351,3.809
2026-05-20 17:37:36.697,1182196153,700697,2,0.90723,-0.48364,0.04028,-3.206,-3.191,-0.786
2026-05-20 17:37:36.897,1182196353,700897,1,0.90234,-0.0459,0.61694,-3.519,-0.015,1.26
2026-05-20 17:37:36.897,1182196353,700897,2,0.93481,-0.47046,0.0293,-0.336,-2.924,-0.931
2026-05-20 17:37:36.097,1182195553,701097,1,0.88672,-0.03955,0.64014,1.321,3.931,-4.427
2026-05-20 17:37:36.097,1182195553,701097,2,0.92236,-0.47339,0.05029,-3.038,10.84,0.214
2026-05-20 17:37:36.297,1182195753,701297,1,0.89282,-0.02271,0.64063,-1.733,1.718,-0.405
2026-05-20 17:37:36.297,1182195753,701297,2,0.90308,-0.47217,0.04565,-6.878,4.023,0.786
2026-05-20 17:37:37.497,1182196953,701497,1,0.91162,-0.05347,0.63159,-5.389,-0.321,-3.145
2026-05-20 17:37:37.497,1182196953,701497,2,0.90674,-0.46069,0.03467,-3.847,-2.74,-0.794
2026-05-20 17:37:37.697,1182197153,701697,1,0.88086,-0.03149,0.64673,0.832,5.023,-5.084
2026-05-20 17:37:37.697,1182197153,701697,2,0.9043,-0.46851,0.02319,0.489,-0.198,0.191
2026-05-20 17:37:37.897,1182197353,701897,1,0.88452,0.00708,0.67334,4.183,7.13,-2.718
2026-05-20 17:37:37.897,1182197353,701897,2,0.90479,-0.48486,0.00952,-4.824,-3.344,3.053
2026-05-20 17:37:37.126,1182196582,702126,1,0.8772,-0.01831,0.6582,-5.481,-2.229,1.763
2026-05-20 17:37:37.126,1182196582,702126,2,0.91333,-0.48193,0.01489,-1.893,1.771,-0.542
2026-05-20 17:37:37.326,1182196782,702326,1,0.87671,-0.01294,0.65088,4.115,4.015,-1.794
2026-05-20 17:37:37.326,1182196782,702326,2,0.90894,-0.46362,0.01392,1.855,-0.061,0.053
2026-05-20 17:37:38.526,1182197982,702526,1,0.86694,0.01392,0.68115,2.061,6.351,-2.695
2026-05-20 17:37:38.526,1182197982,702526,2,0.89893,-0.49414,0.03149,-1.511,-5.321,1.458
2026-05-20 17:37:38.726,1182198182,702726,1,0.8623,-0.02393,0.67627,-7.534,-2.511,0.878
2026-05-20 17:37:38.726,1182198182,702726,2,0.90967,-0.47021,0.03564,-2.931,2.893,-1.771
2026-05-20 17:37:38.926,1182198382,702926,1,0.87598,-0.00073,0.66064,1.115,3.313,-3.71
2026-05-20 17:37:38.926,1182198382,702926,2,0.91553,-0.46875,0.02881,3.725,-2.863,-0.107
2026-05-20 17:37:38.126,1182197582,703126,1,0.87451,0.00854,0.69922,9.397,3.802,1.221
2026-05-20 17:37:38.126,1182197582,703126,2,0.8855,-0.48022,0.04858,2.489,0.786,1.977
2026-05-20 17:37:38.326,1182197782,703326,1,0.8645,-0.01709,0.72949,-0.466,-4.504,3.427
2026-05-20 17:37:38.326,1182197782,703326,2,0.92847,-0.47803,0.04297,-2.275,6.672,1.458
2026-05-20 17:37:39.526,1182198982,703526,1,0.86865,-0.01343,0.6792,14.962,-4.42,4.008
2026-05-20 17:37:39.526,1182198982,703526,2,0.89893,-0.47852,0.06177,-1.26,3.977,-0.878
2026-05-20 17:37:39.726,1182199182,703726,1,0.89673,0.07349,0.64282,20.695,1.107,2.511
2026-05-20 17:37:39.726,1182199182,703726,2,0.90405,-0.48975,0.08569,-4.405,-12.725,8.87
2026-05-20 17:37:39.031,1182198487,704031,1,0.95752,0.00464,0.57324,-21.092,-10.565,5.901
2026-05-20 17:37:39.031,1182198487,704031,2,0.89307,-0.50806,-0.06665,0.267,-14.244,7.519
2026-05-20 17:37:39.356,1182198812,704356,1,0.90088,-0.08521,0.60059,-15.443,7.221,5.061
2026-05-20 17:37:39.356,1182198812,704356,2,0.83643,-0.59668,-0.03125,10.489,8.16,8.176
2026-05-20 17:37:40.556,1182200012,704556,1,0.89087,-0.15527,0.59131,-16.053,0.893,10.763
2026-05-20 17:37:40.556,1182200012,704556,2,0.84595,-0.58203,0.03076,4.221,8.733,5.649
2026-05-20 17:37:40.756,1182200212,704756,1,0.85547,-0.21899,0.64258,-8.26,0.053,5.0
2026-05-20 17:37:40.756,1182200212,704756,2,0.81982,-0.58838,0.05786,0.145,3.435,1.176
2026-05-20 17:37:40.956,1182200412,704956,1,0.88843,-0.18726,0.62744,2.985,5.618,-4.382
2026-05-20 17:37:40.956,1182200412,704956,2,0.82739,-0.57031,0.04395,-3.87,-1.405,4.282
2026-05-20 17:37:40.156,1182199612,705156,1,0.9043,-0.18628,0.65088,0.595,4.26,0.069
2026-05-20 17:37:40.156,1182199612,705156,2,0.8208,-0.60913,0.0376,0.947,5.71,2.756
2026-05-20 17:37:40.365,1182199821,705365,1,0.91772,-0.19287,0.61841,3.366,3.122,0.611
2026-05-20 17:37:40.365,1182199821,705365,2,0.81152,-0.58838,0.04858,1.954,-0.214,1.084
2026-05-20 17:37:41.565,1182201021,705565,1,0.87915,-0.16724,0.63989,-1.809,6.084,-3.71
2026-05-20 17:37:41.565,1182201021,705565,2,0.79077,-0.63037,0.01367,-14.061,3.42,-0.565
2026-05-20 17:37:41.765,1182201221,705765,1,0.8811,-0.18042,0.64819,3.252,4.099,-0.908
2026-05-20 17:37:41.765,1182201221,705765,2,0.83154,-0.60693,0.01904,-4.893,4.053,-0.313
2026-05-20 17:37:41.974,1182201430,705974,1,0.85986,-0.19409,0.66626,0.16,0.221,0.977
2026-05-20 17:37:41.974,1182201430,705974,2,0.82373,-0.59814,0.04468,-0.359,4.16,-3.206
2026-05-20 17:37:41.174,1182200630,706174,1,0.85083,-0.13257,0.67529,5.443,6.855,-0.74
2026-05-20 17:37:41.174,1182200630,706174,2,0.82324,-0.59106,0.04053,-3.145,1.748,0.13
2026-05-20 17:37:41.374,1182200830,706374,1,0.86963,-0.15063,0.66846,-0.824,1.405,1.878
2026-05-20 17:37:41.374,1182200830,706374,2,0.8313,-0.60107,-0.00171,-2.649,-0.931,1.924
2026-05-20 17:37:42.574,1182202030,706574,1,0.86255,-0.18652,0.66724,-3.305,0.122,1.275
2026-05-20 17:37:42.574,1182202030,706574,2,0.83398,-0.58936,0.04395,0.099,1.939,0.489
2026-05-20 17:37:42.774,1182202230,706774,1,0.85522,-0.14795,0.68164,4.519,3.031,0.13
2026-05-20 17:37:42.774,1182202230,706774,2,0.8457,-0.60376,0.03125,1.046,-2.878,1.504
2026-05-20 17:37:42.974,1182202430,706974,1,0.83789,-0.14551,0.70435,1.718,3.71,-1.237
2026-05-20 17:37:42.974,1182202430,706974,2,0.82471,-0.60815,0.02051,-4.832,8.794,1.0
2026-05-20 17:37:42.174,1182201630,707174,1,0.86328,-0.16724,0.68652,2.061,-0.29,1.763
2026-05-20 17:37:42.174,1182201630,707174,2,0.83008,-0.58057,0.04053,-0.511,-0.832,-1.26
2026-05-20 17:37:42.374,1182201830,707374,1,0.854,-0.12866,0.68335,0.84,4.076,-5.275
2026-05-20 17:37:42.374,1182201830,707374,2,0.82861,-0.60962,0.02661,3.313,-6.489,1.656
2026-05-20 17:37:43.615,1182203071,707615,1,0.82544,-0.12158,0.67505,-3.267,1.42,1.237
2026-05-20 17:37:43.615,1182203071,707615,2,0.81836,-0.62158,0.02686,-13.176,3.779,-0.702
2026-05-20 17:37:43.815,1182203271,707815,1,0.87842,-0.19287,0.6687,-2.863,-2.924,-2.191
2026-05-20 17:37:43.815,1182203271,707815,2,0.83545,-0.57446,0.0376,-3.405,5.42,-2.985
2026-05-20 17:37:43.015,1182202471,708015,1,0.82983,-0.1228,0.69336,4.397,6.237,-4.191
2026-05-20 17:37:43.015,1182202471,708015,2,0.84717,-0.59741,0.03589,2.397,-7.221,1.107
2026-05-20 17:37:43.215,1182202671,708215,1,0.8313,-0.11719,0.70239,-1.771,1.435,-0.221
2026-05-20 17:37:43.215,1182202671,708215,2,0.84277,-0.59082,0.02026,-5.847,7.901,1.55
2026-05-20 17:37:44.415,1182203871,708415,1,0.84521,-0.1543,0.69385,-0.038,-0.412,0.893
2026-05-20 17:37:44.415,1182203871,708415,2,0.88745,-0.55151,0.03638,0.473,1.053,-0.687
2026-05-20 17:37:44.624,1182204080,708624,1,0.84814,-0.11792,0.69336,1.634,6.626,-5.763
2026-05-20 17:37:44.624,1182204080,708624,2,0.86865,-0.58398,0.03882,-3.351,5.725,0.664
2026-05-20 17:37:44.824,1182204280,708824,1,0.82983,-0.11938,0.70605,-2.489,1.321,0.046
2026-05-20 17:37:44.824,1182204280,708824,2,0.8186,-0.58936,0.06836,-1.321,3.023,-0.496
2026-05-20 17:37:44.024,1182203480,709024,1,0.83667,-0.1394,0.72412,1.916,4.038,1.031
2026-05-20 17:37:44.024,1182203480,709024,2,0.85254,-0.55884,0.06714,0.718,2.481,-0.237
2026-05-20 17:37:44.224,1182203680,709224,1,0.83081,-0.12256,0.71973,1.954,5.031,-3.748
2026-05-20 17:37:44.224,1182203680,709224,2,0.85376,-0.5835,0.06006,-2.687,2.229,3.321
2026-05-20 17:37:45.424,1182204880,709424,1,0.81372,-0.12061,0.71729,-2.359,2.038,0.87
2026-05-20 17:37:45.424,1182204880,709424,2,0.84253,-0.58594,0.06787,-2.153,4.718,-1.962
2026-05-20 17:37:45.661,1182205117,709661,1,0.83179,-0.13745,0.70557,-2.58,-1.901,0.649
2026-05-20 17:37:45.661,1182205117,709661,2,0.84448,-0.56592,0.07764,-1.237,1.45,-0.176
2026-05-20 17:37:45.861,1182205317,709861,1,0.84937,-0.09839,0.7124,1.435,5.351,-4.557
2026-05-20 17:37:45.861,1182205317,709861,2,0.81934,-0.60132,0.07544,0.656,-5.878,2.939
2026-05-20 17:37:45.085,1182204541,710084,1,0.8186,-0.14868,0.72998,-2.16,-0.885,4.084
2026-05-20 17:37:45.085,1182204541,710084,2,0.83276,-0.58569,0.06934,-0.794,4.298,-1.947
2026-05-20 17:37:45.284,1182204740,710284,1,0.82007,-0.1438,0.70386,0.053,-0.977,-0.702
2026-05-20 17:37:45.284,1182204740,710284,2,0.84717,-0.57153,0.06445,0.351,0.038,0.359
2026-05-20 17:37:46.484,1182205940,710484,1,0.83765,-0.12476,0.70581,-1.298,4.16,-7.634
2026-05-20 17:37:46.484,1182205940,710484,2,0.83789,-0.59058,0.05908,-5.153,-3.122,3.069
2026-05-20 17:37:46.684,1182206140,710684,1,0.84009,-0.12646,0.71143,0.542,-0.573,2.756
2026-05-20 17:37:46.684,1182206140,710684,2,0.82568,-0.60474,0.04321,0.229,2.229,0.176
2026-05-20 17:37:46.884,1182206340,710884,1,0.8457,-0.1355,0.69946,-3.969,1.023,-3.061
2026-05-20 17:37:46.884,1182206340,710884,2,0.84082,-0.58813,0.05737,-1.336,-0.099,-0.649
2026-05-20 17:37:46.084,1182205540,711084,1,0.84839,-0.11304,0.70947,-2.305,2.779,-5.305
2026-05-20 17:37:46.084,1182205540,711084,2,0.83154,-0.61279,0.05469,-0.374,5.687,0.481
2026-05-20 17:37:46.284,1182205740,711284,1,0.82861,-0.11938,0.70483,-2.916,0.275,2.328
2026-05-20 17:37:46.284,1182205740,711284,2,0.84229,-0.58667,0.07324,-2.893,-0.405,-0.603
2026-05-20 17:37:47.499,1182206955,711499,1,0.83374,-0.13647,0.69946,-2.031,1.969,-1.519
2026-05-20 17:37:47.499,1182206955,711499,2,0.82495,-0.58301,0.08301,1.901,1.557,1.137
2026-05-20 17:37:47.699,1182207155,711699,1,0.83569,-0.10254,0.70679,1.588,3.687,-2.954
2026-05-20 17:37:47.699,1182207155,711699,2,0.83325,-0.59741,0.05615,0.611,-2.214,2.198
2026-05-20 17:37:47.899,1182207355,711899,1,0.83594,-0.12939,0.69824,-8.397,-8.023,3.87
2026-05-20 17:37:47.899,1182207355,711899,2,0.82275,-0.59521,0.06348,-4.763,-1.786,1.183
2026-05-20 17:37:47.109,1182206565,712109,1,0.88794,-0.17847,0.63501,-5.244,-1.573,1.481
2026-05-20 17:37:47.109,1182206565,712109,2,0.83276,-0.58716,0.03125,4.702,0.008,0.267
2026-05-20 17:37:47.331,1182206787,712331,1,0.87671,-0.14941,0.66455,6.069,3.725,-2.053
2026-05-20 17:37:47.331,1182206787,712331,2,0.83423,-0.60278,0.06226,0.855,2.092,2.008
2026-05-20 17:37:48.531,1182207987,712531,1,0.83521,-0.16309,0.67578,-7.137,-3.802,1.786
2026-05-20 17:37:48.531,1182207987,712531,2,0.8252,-0.60156,0.04077,-7.084,-0.55,-0.878
2026-05-20 17:37:48.731,1182208187,712731,1,0.8667,-0.16943,0.65161,-4.412,1.191,-1.893
2026-05-20 17:37:48.731,1182208187,712731,2,0.84912,-0.59106,0.0271,-1.458,2.198,1.267
2026-05-20 17:37:48.931,1182208387,712931,1,0.88989,-0.17407,0.67871,4.794,9.336,-4.542
2026-05-20 17:37:48.931,1182208387,712931,2,0.82031,-0.61279,0.0083,-3.87,-5.092,1.305
2026-05-20 17:37:48.142,1182207598,713141,1,0.86279,-0.17725,0.6604,-6.29,-2.878,2.603
2026-05-20 17:37:48.142,1182207598,713141,2,0.84082,-0.61353,0.01392,-1.832,5.809,-2.198
2026-05-20 17:37:48.341,1182207797,713341,1,0.86157,-0.16479,0.67334,3.588,4.313,-3.038
2026-05-20 17:37:48.341,1182207797,713341,2,0.84302,-0.59888,0.04443,4.595,3.641,-1.718
2026-05-20 17:37:49.541,1182208997,713541,1,0.86353,-0.13354,0.68042,5.618,6.855,-4.885
2026-05-20 17:37:49.541,1182208997,713541,2,0.81909,-0.6106,0.02856,-2.496,-6.366,2.298
2026-05-20 17:37:49.748,1182209204,713748,1,0.84155,-0.18408,0.69653,-0.183,-3.962,1.084
2026-05-20 17:37:49.748,1182209204,713748,2,0.84253,-0.60083,0.02637,-1.588,1.977,-2.641
2026-05-20 17:37:49.948,1182209404,713948,1,0.85986,-0.14282,0.677,2.137,2.382,0.847
2026-05-20 17:37:49.948,1182209404,713948,2,0.85498,-0.56689,0.03467,-2.855,3.885,4.115
2026-05-20 17:37:49.188,1182208644,714188,1,0.85522,-0.11548,0.68335,1.176,9.504,-4.053
2026-05-20 17:37:49.188,1182208644,714188,2,0.80566,-0.62036,0.04785,3.382,-3.336,1.939
2026-05-20 17:37:49.388,1182208844,714388,1,0.83911,-0.16626,0.68408,-3.389,-6.847,4.237
2026-05-20 17:37:49.388,1182208844,714388,2,0.81543,-0.60669,0.03394,-0.183,3.748,-0.695
2026-05-20 17:37:50.588,1182210044,714588,1,0.85059,-0.12695,0.6748,3.0,9.321,2.908
2026-05-20 17:37:50.588,1182210044,714588,2,0.85278,-0.58838,0.03027,-5.427,1.878,2.626
2026-05-20 17:37:50.788,1182210244,714788,1,0.85059,-0.12988,0.69531,-0.802,7.0,-3.229
2026-05-20 17:37:50.788,1182210244,714788,2,0.79028,-0.6394,0.05078,1.0,-2.634,1.962
2026-05-20 17:37:50.988,1182210444,714988,1,0.84473,-0.14893,0.69263,1.252,-3.084,9.191
2026-05-20 17:37:50.988,1182210444,714988,2,0.82373,-0.60913,0.05615,-1.313,1.725,-2.237
2026-05-20 17:37:50.188,1182209644,715188,1,0.84692,-0.16382,0.68433,-2.069,4.206,-4.519
2026-05-20 17:37:50.188,1182209644,715188,2,0.83105,-0.58716,0.05591,-3.618,-14.496,1.992
2026-05-20 17:37:51.455,1182210911,715455,1,0.87158,-0.14429,0.68652,6.153,0.13,0.275
2026-05-20 17:37:51.455,1182210911,715455,2,0.8396,-0.59204,0.03223,-3.504,1.809,-2.298
2026-05-20 17:37:51.839,1182211295,715839,1,0.87207,-0.14868,0.66553,-7.0,8.221,-11.359
2026-05-20 17:37:51.839,1182211295,715839,2,0.8291,-0.5918,0.02759,3.382,1.473,-1.847
2026-05-20 17:37:51.039,1182210495,716039,1,0.87451,-0.13745,0.67383,10.046,7.046,-0.198
2026-05-20 17:37:51.039,1182210495,716039,2,0.83276,-0.58496,0.04199,0.748,-7.756,0.366
2026-05-20 17:37:51.239,1182210695,716239,1,0.84839,-0.12769,0.67993,-2.26,2.489,1.71
2026-05-20 17:37:51.239,1182210695,716239,2,0.85303,-0.59741,0.03125,2.878,5.015,-1.756
2026-05-20 17:37:52.439,1182211895,716439,1,0.85376,-0.12231,0.69434,6.29,8.099,-3.031
2026-05-20 17:37:52.439,1182211895,716439,2,0.77051,-0.56738,0.1001,2.802,-2.313,-0.565
2026-05-20 17:37:52.639,1182212095,716639,1,0.81934,-0.07446,0.72095,6.099,7.718,-1.687
2026-05-20 17:37:52.639,1182212095,716639,2,0.82837,-0.59424,0.06299,-0.954,0.786,1.176
2026-05-20 17:37:52.839,1182212295,716839,1,0.81738,-0.09497,0.73022,-5.099,-3.046,1.779
2026-05-20 17:37:52.839,1182212295,716839,2,0.84326,-0.59473,0.05518,-4.137,3.718,1.458
2026-05-20 17:37:52.039,1182211495,717039,1,0.83789,-0.13916,0.71362,-6.855,-2.779,-0.481
2026-05-20 17:37:52.039,1182211495,717039,2,0.85327,-0.57031,0.06665,-3.626,1.534,0.878
2026-05-20 17:37:52.239,1182211695,717239,1,0.85547,-0.11401,0.69409,0.458,1.542,-1.206
2026-05-20 17:37:52.239,1182211695,717239,2,0.83276,-0.60278,0.04395,-0.641,-4.092,3.382
2026-05-20 17:37:53.439,1182212895,717439,1,0.83569,-0.14087,0.71387,-7.122,1.443,2.305
2026-05-20 17:37:53.439,1182212895,717439,2,0.8269,-0.61841,0.04346,-3.679,4.244,2.336
2026-05-20 17:37:53.639,1182213095,717639,1,0.84229,-0.16406,0.6875,-2.527,-0.244,2.015
2026-05-20 17:37:53.639,1182213095,717639,2,0.82642,-0.59766,0.05005,-2.374,1.634,0.115
2026-05-20 17:37:53.839,1182213295,717839,1,0.84229,-0.14307,0.70898,4.206,5.847,-3.603
2026-05-20 17:37:53.839,1182213295,717839,2,0.82544,-0.61035,0.05713,-1.275,-1.122,2.046
2026-05-20 17:37:53.039,1182212495,718039,1,0.83154,-0.1311,0.70288,-3.008,1.405,-1.504
2026-05-20 17:37:53.039,1182212495,718039,2,0.81543,-0.62109,0.0332,-3.206,-2.0,1.557
2026-05-20 17:37:53.239,1182212695,718239,1,0.84375,-0.16113,0.69702,-0.649,-2.053,3.015
2026-05-20 17:37:53.239,1182212695,718239,2,0.82813,-0.59448,0.0625,-2.359,1.42,-1.901
2026-05-20 17:37:54.439,1182213895,718439,1,0.85229,-0.13232,0.70093,3.092,2.832,-5.908
2026-05-20 17:37:54.439,1182213895,718439,2,0.83984,-0.5896,0.03979,0.198,-4.656,-0.374
2026-05-20 17:37:54.639,1182214095,718639,1,0.84766,-0.11182,0.70752,,1.405,-1.069
2026-05-20 17:37:54.639,1182214095,718639,2,0.82813,-0.60596,0.04346,3.076,1.504,-0.092
2026-05-20 17:37:54.873,1182214329,718873,1,0.84424,-0.14551,0.70093,2.115,-2.954,2.962
2026-05-20 17:37:54.873,1182214329,718873,2,0.83374,-0.5708,0.06348,-4.0,2.588,0.008
2026-05-20 17:37:54.073,1182213529,719073,1,0.85156,-0.11035,0.70605,2.26,5.008,-5.756
2026-05-20 17:37:54.073,1182213529,719073,2,0.83398,-0.5918,0.05103,-1.313,6.137,1.458
2026-05-20 17:37:54.273,1182213729,719273,1,0.85522,-0.1062,0.70117,1.229,2.924,1.595
2026-05-20 17:37:54.273,1182213729,719273,2,0.82813,-0.61523,0.03467,-4.0,4.504,2.221
2026-05-20 17:37:55.473,1182214929,719473,1,0.84473,-0.14185,0.698,-1.046,-1.649,8.435
2026-05-20 17:37:55.473,1182214929,719473,2,0.83057,-0.59155,0.06323,-1.641,1.221,-0.328
2026-05-20 17:37:55.673,1182215129,719673,1,0.85449,-0.13794,0.69385,-1.427,3.939,-5.779
2026-05-20 17:37:55.673,1182215129,719673,2,0.84058,-0.59302,0.02734,0.206,2.573,-0.092
2026-05-20 17:37:55.873,1182215329,719873,1,0.85352,-0.11401,0.70435,-1.733,1.473,-4.344
2026-05-20 17:37:55.873,1182215329,719873,2,0.81836,-0.61475,0.02466,-4.443,-0.282,1.534
2026-05-20 17:37:55.073,1182214529,720073,1,0.86206,-0.15747,0.7085,-4.954,-8.145,1.328
2026-05-20 17:37:55.073,1182214529,720073,2,0.83594,-0.59937,0.04858,-2.756,3.145,-1.046
2026-05-20 17:37:55.273,1182214729,720273,1,0.85571,-0.14697,0.69507,-5.313,-11.42,-9.786
2026-05-20 17:37:55.273,1182214729,720273,2,0.81226,-0.61914,0.06177,-1.962,-3.992,-7.198
2026-05-20 17:37:56.499,1182215955,720499,1,0.88477,-0.08984,0.62915,20.176,-1.321,-4.115
2026-05-20 17:37:56.499,1182215955,720499,2,0.84399,-0.58398,0.02759,-5.557,-1.42,-3.771
2026-05-20 17:37:56.699,1182216155,720699,1,0.94629,-0.06274,0.61523,-6.168,-10.443,5.977
2026-05-20 17:37:56.699,1182216155,720699,2,0.87256,-0.55957,-0.00073,-7.489,-4.603,0.305
2026-05-20 17:37:56.899,1182216355,720899,1,0.93799,-0.08813,0.57202,-13.42,3.145,-3.679
2026-05-20 17:37:56.899,1182216355,720899,2,0.86621,-0.56763,-0.01221,5.275,-0.71,5.061
2026-05-20 17:37:56.099,1182215555,721099,1,0.90698,-0.11646,0.61597,7.992,9.321,1.389
2026-05-20 17:37:56.099,1182215555,721099,2,0.823,-0.60791,0.02148,-2.344,-0.832,2.229
2026-05-20 17:37:57.427,1182216883,721427,1,0.89429,-0.14819,0.63062,-7.252,-4.573,2.198
2026-05-20 17:37:57.427,1182216883,721427,2,0.83667,-0.58325,0.03247,-1.328,3.046,-0.313
2026-05-20 17:37:57.627,1182217083,721627,1,0.90527,-0.12061,0.62793,4.748,1.588,-4.916
2026-05-20 17:37:57.627,1182217083,721627,2,0.84082,-0.58765,0.02075,-5.969,-6.641,0.244
2026-05-20 17:37:57.827,1182217283,721827,1,0.90137,-0.12451,0.61328,-5.092,-3.908,-3.58
2026-05-20 17:37:57.827,1182217283,721827,2,0.84277,-0.60791,-0.01318,-10.71,-2.573,-1.191
2026-05-20 17:37:57.027,1182216483,722027,1,0.9314,-0.10718,0.57739,-1.504,-3.252,-0.901
2026-05-20 17:37:57.027,1182216483,722027,2,0.84497,-0.54956,0.00903,5.756,14.824,-0.328
2026-05-20 17:37:57.231,1182216687,722231,1,0.94482,-0.06445,0.604,10.252,5.29,-2.557
2026-05-20 17:37:57.231,1182216687,722231,2,0.85327,-0.59424,-0.00879,-3.863,-6.473,4.153
2026-05-20 17:37:58.431,1182217887,722431,1,0.92456,-0.09326,0.59277,3.122,0.794,5.481
2026-05-20 17:37:58.431,1182217887,722431,2,0.83716,-0.61694,-0.04541,-3.626,-4.954,1.733
2026-05-20 17:37:58.631,1182218087,722631,1,0.87695,-0.09717,0.59961,1.099,-2.626,8.763
2026-05-20 17:37:58.631,1182218087,722631,2,0.81738,-0.59204,0.00366,2.107,-2.053,-0.107
2026-05-20 17:37:58.857,1182218313,722856,1,0.90332,-0.10156,0.60254,1.046,3.992,1.649
2026-05-20 17:37:58.857,1182218313,722856,2,0.85718,-0.56519,-0.021,-4.893,-4.771,2.16
2026-05-20 17:37:58.056,1182217512,723056,1,0.90161,-0.12939,0.59766,-1.176,-1.115,1.473
2026-05-20 17:37:58.056,1182217512,723056,2,0.8269,-0.5979,-0.01245,1.031,5.58,0.863
2026-05-20 17:37:58.256,1182217712,723256,1,0.90161,-0.12378,0.63306,-3.382,5.29,-5.45
2026-05-20 17:37:58.256,1182217712,723256,2,0.84644,-0.59424,-0.0249,0.374,-4.145,-0.969
2026-05-20 17:37:59.456,1182218912,723456,1,0.89575,-0.11694,0.61353,11.214,2.55,0.87
2026-05-20 17:37:59.456,1182218912,723456,2,0.84424,-0.58423,0.00293,-1.802,0.824,-0.496
2026-05-20 17:37:59.683,1182219139,723683,1,0.90356,-0.07275,0.61743,4.221,7.878,-2.977
2026-05-20 17:37:59.683,1182219139,723683,2,0.8501,-0.58887,-0.01221,-2.809,-2.74,0.725
2026-05-20 17:37:59.883,1182219339,723883,1,0.90747,-0.08032,0.64209,10.008,-1.427,1.725
2026-05-20 17:37:59.883,1182219339,723883,2,0.84668,-0.58105,-0.01147,-1.504,7.595,-3.351
2026-05-20 17:37:59.083,1182218539,724083,1,0.89209,-0.07007,0.6355,2.13,2.183,-1.939
2026-05-20 17:37:59.083,1182218539,724083,2,0.84814,-0.56201,0.0144,-0.511,3.038,-1.855
2026-05-20 17:37:59.311,1182218767,724310,1,0.89941,-0.03857,0.63354,4.221,1.611,-0.947
2026-05-20 17:37:59.311,1182218767,724310,2,0.86157,-0.56592,0.02051,-3.588,2.008,-0.863
2026-05-20 17:38:00.510,1182219966,724510,1,0.9126,-0.05103,0.62134,1.969,-0.824,-0.191
2026-05-20 17:38:00.510,1182219966,724510,2,0.85791,-0.55908,0.02905,-0.069,2.817,-0.771
2026-05-20 17:38:00.710,1182220166,724710,1,0.91211,-0.05518,0.62817,2.29,-3.0,2.084
2026-05-20 17:38:00.710,1182220166,724710,2,0.85449,-0.5459,0.0354,-0.42,-4.817,0.466
2026-05-20 17:38:00.910,1182220366,724910,1,0.90649,-0.05054,0.62231,0.069,-2.588,1.305
2026-05-20 17:38:00.910,1182220366,724910,2,0.84326,-0.57349,0.01172,-1.878,-2.412,0.84
2026-05-20 17:38:00.110,1182219566,725110,1,0.92212,-0.0625,0.59839,-3.221,0.328,0.16
2026-05-20 17:38:00.110,1182219566,725110,2,0.86377,-0.55737,0.03076,-2.611,1.122,1.389
2026-05-20 17:38:00.310,1182219766,725310,1,0.93115,-0.06567,0.60449,-3.718,-5.359,0.588
2026-05-20 17:38:00.310,1182219766,725310,2,0.81421,-0.57788,0.00684,1.328,-6.084,1.893
2026-05-20 17:38:01.510,1182220966,725510,1,0.89917,-0.05615,0.57275,-25.695,-11.076,1.443
2026-05-20 17:38:01.510,1182220966,725510,2,0.83984,-0.57202,0.00903,-7.603,-4.214,3.282
2026-05-20 17:38:01.710,1182221166,725710,1,0.87158,-0.03491,0.64624,-1.626,-11.26,4.573
2026-05-20 17:38:01.710,1182221166,725710,2,0.83276,-0.53955,-0.02222,-15.58,-22.099,9.244
2026-05-20 17:38:01.910,1182221366,725910,1,0.94067,-0.04565,0.61279,-22.931,-23.565,-6.305
2026-05-20 17:38:01.910,1182221366,725910,2,0.89917,-0.60449,-0.30688,-36.237,-63.412,0.435
2026-05-20 17:38:01.110,1182220566,726110,1,1.11792,-0.27612,0.27515,-250.137,-183.214,-44.359
2026-05-20 17:38:01.110,1182220566,726110,2,0.81299,-0.59033,-0.3103,-34.863,-12.053,-4.298
2026-05-20 17:38:01.310,1182220766,726310,1,1.12402,0.12109,-0.1167,5.229,-13.893,-12.489
2026-05-20 17:38:01.310,1182220766,726310,2,0.79053,-0.56665,-0.28711,0.985,3.504,4.534
2026-05-20 17:38:02.510,1182221966,726510,1,1.07031,0.04956,0.05249,-1.481,7.481,11.817
2026-05-20 17:38:02.510,1182221966,726510,2,0.80127,-0.60059,-0.26367,-4.267,3.893,0.29
2026-05-20 17:38:02.710,1182222166,726710,1,1.06348,0.0127,0.02124,41.656,35.412,68.641
2026-05-20 17:38:02.710,1182222166,726710,2,0.80859,-0.59839,-0.27393,11.0,16.511,4.221
2026-05-20 17:38:02.945,1182222401,726945,1,1.09326,-0.03394,0.33301,-23.695,100.779,-23.786
2026-05-20 17:38:02.945,1182222401,726945,2,0.85913,-0.54492,-0.25732,34.382,30.046,-31.038
2026-05-20 17:38:02.145,1182221601,727145,1,1.22217,0.15381,0.78979,-31.847,55.672,-8.702
2026-05-20 17:38:02.145,1182221601,727145,2,1.07837,-0.57178,0.22144,78.313,127.359,-18.55
2026-05-20 17:38:02.345,1182221801,727345,1,0.53442,0.01538,0.94043,1.031,60.977,22.664
2026-05-20 17:38:02.345,1182221801,727345,2,0.53027,-0.2876,0.41821,26.519,3.466,7.534
2026-05-20 17:38:03.545,1182223001,727545,1,0.24805,-0.11011,0.95215,33.466,-11.763,12.855
2026-05-20 17:38:03.545,1182223001,727545,2,0.5564,-0.29834,0.38379,29.076,-12.588,2.458
2026-05-20 17:38:03.745,1182223201,727745,1,0.41235,0.021,0.92407,0.74,-41.374,1.817
2026-05-20 17:38:03.745,1182223201,727745,2,-0.24609,0.37622,1.29907,-218.611,57.237,28.679
2026-05-20 17:38:03.945,1182223401,727945,1,0.73291,-0.09619,0.84644,16.427,13.702,-21.29
2026-05-20 17:38:03.945,1182223401,727945,2,0.80298,-0.52661,0.11206,-88.939,-41.359,39.359
2026-05-20 17:38:03.145,1182222601,728145,1,1.0437,-0.0896,0.64526,-15.618,-24.267,8.931
2026-05-20 17:38:03.145,1182222601,728145,2,0.86572,-0.56763,-0.14966,-20.611,-5.061,3.0
2026-05-20 17:38:03.345,1182222801,728345,1,0.83618,-0.21216,0.59082,30.496,-25.137,12.733
2026-05-20 17:38:03.345,1182222801,728345,2,0.68628,-0.62085,-0.09229,6.641,-2.153,2.252
2026-05-20 17:38:04.545,1182224001,728545,1,0.99658,-0.16455,0.48438,-2.015,-24.534,10.344
2026-05-20 17:38:04.545,1182224001,728545,2,0.88818,-0.62402,-0.12256,-3.229,-8.733,-0.214
2026-05-20 17:38:04.745,1182224201,728745,1,1.04956,-0.13574,0.38745,-1.824,8.504,-6.466
2026-05-20 17:38:04.745,1182224201,728745,2,0.8479,-0.59399,-0.14502,-0.069,6.542,0.282
2026-05-20 17:38:04.945,1182224401,728945,1,0.94873,-0.12817,0.53003,16.511,22.573,0.55
2026-05-20 17:38:04.945,1182224401,728945,2,0.85791,-0.57788,-0.11865,-4.466,6.412,-0.107
2026-05-20 17:38:04.145,1182223601,729145,1,0.9043,-0.0769,0.61743,-1.534,19.214,-11.809
2026-05-20 17:38:04.145,1182223601,729145,2,0.84546,-0.57935,-0.1001,-1.344,5.71,1.344
2026-05-20 17:38:04.345,1182223801,729345,1,0.91553,-0.11523,0.62036,-2.504,1.252,-1.786
2026-05-20 17:38:04.345,1182223801,729345,2,0.83887,-0.59351,-0.10352,3.237,2.359,1.359
2026-05-20 17:38:05.545,1182225001,729545,1,0.91113,-0.08008,0.62842,-6.763,-0.656,-0.496
2026-05-20 17:38:05.545,1182225001,729545,2,0.83911,-0.58887,-0.10522,-4.29,-4.733,1.985
2026-05-20 17:38:05.745,1182225201,729745,1,0.91504,-0.11182,0.59839,1.275,2.733,0.427
2026-05-20 17:38:05.745,1182225201,729745,2,0.83398,-0.59375,-0.11816,-2.191,-0.061,0.443
2026-05-20 17:38:05.945,1182225401,729945,1,0.9104,-0.09961,0.61401,3.145,2.733,3.038
2026-05-20 17:38:05.945,1182225401,729945,2,0.84106,-0.58984,-0.11426,-1.954,0.618,0.214
2026-05-20 17:38:05.145,1182224601,730145,1,0.92334,-0.10376,0.61694,-0.969,3.771,-1.878
2026-05-20 17:38:05.145,1182224601,730145,2,0.84131,-0.59497,-0.11646,-0.076,0.969,0.817
2026-05-20 17:38:05.349,1182224805,730348,1,0.91235,-0.1145,0.6084,-2.908,2.87,-1.786
2026-05-20 17:38:05.349,1182224805,730348,2,0.84302,-0.59009,-0.12329,4.053,1.618,0.344
2026-05-20 17:38:06.548,1182226004,730548,1,0.88379,-0.13843,0.61206,5.756,0.656,-2.008
2026-05-20 17:38:06.548,1182226004,730548,2,0.8396,-0.60474,-0.0835,0.824,1.603,0.748
2026-05-20 17:38:06.748,1182226204,730748,1,0.90698,-0.17065,0.62573,-5.496,10.733,-13.344
2026-05-20 17:38:06.748,1182226204,730748,2,0.83618,-0.60645,-0.05103,0.847,4.313,-0.534
2026-05-20 17:38:06.948,1182226404,730948,1,0.95947,-0.05273,0.61279,-9.588,7.366,-37.16
2026-05-20 17:38:06.948,1182226404,730948,2,0.27124,0.46411,0.25879,96.603,116.511,31.786
2026-05-20 17:38:06.148,1182225604,731148,1,0.87524,0.19604,0.56763,30.542,3.084,0.092
2026-05-20 17:38:06.148,1182225604,731148,2,0.97583,-0.38013,0.17114,-1.771,21.969,-30.038
2026-05-20 17:38:06.348,1182225804,731348,1,0.94043,0.18237,0.73804,-22.359,19.221,3.038
2026-05-20 17:38:06.348,1182225804,731348,2,1.31592,-0.40942,0.23682,18.763,90.214,31.099
2026-05-20 17:38:07.558,1182227014,731558,1,0.66992,0.01343,0.9292,21.084,35.771,12.588
2026-05-20 17:38:07.558,1182227014,731558,2,0.79541,-0.41064,0.35229,8.183,0.71,11.145
2026-05-20 17:38:07.758,1182227214,731758,1,0.55566,-0.04883,0.875,-8.679,21.0,11.664
2026-05-20 17:38:07.758,1182227214,731758,2,0.75757,-0.40894,0.4126,5.748,22.267,5.649
2026-05-20 17:38:07.958,1182227414,731958,1,0.46094,0.06787,0.92651,-5.489,38.351,-1.649
2026-05-20 17:38:07.958,1182227414,731958,2,0.59082,-0.42773,0.42188,-27.0,-61.229,3.557
2026-05-20 17:38:07.343,1182226799,732343,1,0.60352,-0.1189,0.80786,-16.656,-71.344,13.015
2026-05-20 17:38:07.343,1182226799,732343,2,0.88062,-0.54321,0.21973,-12.603,9.595,6.137
2026-05-20 17:38:08.543,1182227999,732543,1,0.78833,-0.19263,0.83008,-6.702,-53.878,-6.962
2026-05-20 17:38:08.543,1182227999,732543,2,0.85034,-0.65308,0.37988,-3.725,-5.42,-4.817
2026-05-20 17:38:08.743,1182228199,732743,1,0.93042,-0.06006,0.5564,38.519,-53.908,11.366
2026-05-20 17:38:08.743,1182228199,732743,2,0.93213,-0.59937,0.20313,-5.878,-6.45,-6.351
2026-05-20 17:38:08.943,1182228399,732943,1,1.04321,-0.02075,0.48462,41.725,-17.397,10.107
2026-05-20 17:38:08.943,1182228399,732943,2,0.91553,-0.49512,-0.02124,-1.168,-12.664,-1.679
2026-05-20 17:38:08.143,1182227599,733143,1,1.02466,0.00562,0.39771,8.099,-14.198,11.427
2026-05-20 17:38:08.143,1182227599,733143,2,0.91284,-0.45825,0.02075,-11.664,-6.893,3.038
2026-05-20 17:38:08.343,1182227799,733343,1,1.01367,-0.10474,0.44727,-29.542,-3.206,-3.122
2026-05-20 17:38:08.343,1182227799,733343,2,0.91821,-0.52466,-0.04932,-4.13,-6.397,5.985
2026-05-20 17:38:09.543,1182228999,733543,1,0.98828,-0.10718,0.42358,-34.962,12.137,-7.366
2026-05-20 17:38:09.543,1182228999,733543,2,0.89209,-0.54858,-0.02734,3.099,13.092,2.672
2026-05-20 17:38:09.743,1182229199,733743,1,0.90747,-0.12476,0.53003,1.924,7.718,5.305
2026-05-20 17:38:09.743,1182229199,733743,2,0.86182,-0.5022,0.05859,5.893,0.115,3.046
2026-05-20 17:38:09.943,1182229399,733943,1,0.94409,-0.12061,0.51855,-0.664,3.992,-0.672
2026-05-20 17:38:09.943,1182229399,733943,2,0.86157,-0.55347,0.00049,-6.351,0.321,1.076
2026-05-20 17:38:09.143,1182228599,734143,1,0.98682,-0.12061,0.50977,5.405,7.382,-1.527
2026-05-20 17:38:09.143,1182228599,734143,2,0.8811,-0.53638,0.0166,-4.145,5.802,-0.634
2026-05-20 17:38:09.343,1182228799,734343,1,0.9397,-0.08838,0.53125,-9.191,3.863,-5.634
2026-05-20 17:38:09.343,1182228799,734343,2,0.87305,-0.53589,0.01978,-2.504,2.466,-0.832
2026-05-20 17:38:10.543,1182229999,734543,1,0.95728,-0.10669,0.54492,-7.779,2.282,-2.168
2026-05-20 17:38:10.543,1182229999,734543,2,0.87305,-0.52466,0.03589,-0.13,5.992,-1.061
2026-05-20 17:38:10.743,1182230199,734743,1,0.96802,-0.06445,0.54517,-4.481,1.878,-0.702
2026-05-20 17:38:10.743,1182230199,734743,2,0.87695,-0.51563,0.05518,-2.321,3.916,0.71
2026-05-20 17:38:10.943,1182230399,734943,1,0.94116,-0.09644,0.54443,-4.229,-0.321,1.641
2026-05-20 17:38:10.943,1182230399,734943,2,0.87158,-0.53467,0.05103,-0.954,-1.504,2.092
2026-05-20 17:38:10.143,1182229599,735143,1,0.94165,-0.10132,0.54688,-1.58,-2.802,1.832
2026-05-20 17:38:10.143,1182229599,735143,2,0.87549,-0.53345,0.03882,-1.802,-4.664,3.504
2026-05-20 17:38:10.343,1182229799,735343,1,0.95459,-0.11743,0.51953,5.328,5.58,0.847
2026-05-20 17:38:10.343,1182229799,735343,2,0.8606,-0.54956,0.01489,0.366,-3.298,1.947
2026-05-20 17:38:11.543,1182230999,735543,1,0.96338,-0.12134,0.54272,-3.321,-0.13,-1.725
2026-05-20 17:38:11.543,1182230999,735543,2,0.875,-0.54785,0.01758,-0.893,1.031,-0.985
2026-05-20 17:38:11.743,1182231199,735743,1,0.95068,-0.09961,0.54419,-2.947,-0.351,-2.061
2026-05-20 17:38:11.743,1182231199,735743,2,0.87329,-0.54395,0.03027,-1.885,0.618,-0.321
2026-05-20 17:38:11.943,1182231399,735943,1,0.94507,-0.09668,0.53247,-1.092,0.962,-0.977
2026-05-20 17:38:11.943,1182231399,735943,2,0.87524,-0.53564,0.02588,-1.802,-0.916,-0.038
2026-05-20 17:38:11.143,1182230599,736143,1,0.93335,-0.10474,0.53418,-3.779,4.863,-5.137
2026-05-20 17:38:11.143,1182230599,736143,2,0.86816,-0.52466,0.0542,-11.374,-2.443,1.023
2026-05-20 17:38:11.343,1182230799,736343,1,0.85815,-0.12354,0.59058,-4.42,33.611,-6.908
2026-05-20 17:38:11.343,1182230799,736343,2,0.87866,-0.60425,0.00293,-20.099,-25.74,3.687
2026-05-20 17:38:12.543,1182231999,736543,1,0.84863,-0.05762,0.6792,10.183,29.481,-5.008
2026-05-20 17:38:12.543,1182231999,736543,2,0.84204,-0.54419,-0.04395,-8.977,-4.885,-2.008
2026-05-20 17:38:12.743,1182232199,736743,1,0.92236,-0.06714,0.63501,-3.168,-10.435,-1.046
2026-05-20 17:38:12.743,1182232199,736743,2,0.84814,-0.52295,-0.11108,-0.832,2.924,-0.588
2026-05-20 17:38:12.943,1182232399,736943,1,0.88965,-0.07422,0.65625,-3.748,-0.565,-0.183
2026-05-20 17:38:12.943,1182232399,736943,2,0.90991,-0.54077,-0.13525,0.16,-3.916,0.504
2026-05-20 17:38:12.143,1182231599,737143,1,0.87524,-0.07007,0.65283,0.099,3.847,-2.87
2026-05-20 17:38:12.143,1182231599,737143,2,0.87549,-0.55078,-0.12134,-1.641,-0.336,1.542
2026-05-20 17:38:12.343,1182231799,737343,1,0.88037,-0.06396,0.6521,-1.336,1.855,-0.427
2026-05-20 17:38:12.343,1182231799,737343,2,0.87012,-0.54395,-0.12573,-2.412,-0.115,0.504
2026-05-20 17:38:13.543,1182232999,737543,1,0.88818,-0.07178,0.64111,-1.817,2.092,-0.122
2026-05-20 17:38:13.543,1182232999,737543,2,0.86987,-0.54224,-0.12793,-0.252,0.298,1.237
2026-05-20 17:38:13.761,1182233217,737761,1,0.88574,-0.073,0.64844,-1.489,1.863,0.511
2026-05-20 17:38:13.761,1182233217,737761,2,0.86914,-0.55078,-0.13452,-3.061,0.435,0.565
2026-05-20 17:38:13.063,1182232519,738062,1,0.88672,-0.08569,0.65552,-0.282,1.183,-0.351
2026-05-20 17:38:13.063,1182232519,738062,2,0.87183,-0.54468,-0.12793,-1.672,1.0,0.008
2026-05-20 17:38:13.262,1182232718,738262,1,0.88525,-0.07642,0.64746,-0.695,1.534,-0.603
2026-05-20 17:38:13.262,1182232718,738262,2,0.87256,-0.55078,-0.12744,-0.809,0.374,0.733
2026-05-20 17:38:14.462,1182233918,738462,1,0.88672,-0.08057,0.64795,-1.099,-0.252,-0.237
2026-05-20 17:38:14.462,1182233918,738462,2,0.86792,-0.55103,-0.12842,-0.038,0.977,0.687
2026-05-20 17:38:14.662,1182234118,738662,1,0.88721,-0.08057,0.65039,-0.656,0.389,0.58
2026-05-20 17:38:14.662,1182234118,738662,2,0.86938,-0.55127,-0.12305,-0.344,0.328,0.733
2026-05-20 17:38:14.862,1182234318,738862,1,0.88672,-0.0769,0.65259,-0.672,1.366,-0.42
2026-05-20 17:38:14.862,1182234318,738862,2,0.86719,-0.54565,-0.12158,-0.214,0.29,0.679
2026-05-20 17:38:14.062,1182233518,739062,1,0.88599,-0.08228,0.65308,-1.718,0.603,-0.824
2026-05-20 17:38:14.062,1182233518,739062,2,0.86304,-0.5498,-0.11694,-1.595,0.748,0.336
2026-05-20 17:38:14.262,1182233718,739262,1,0.88647,-0.07544,0.64526,-1.221,1.282,-0.45
2026-05-20 17:38:14.262,1182233718,739262,2,0.87329,-0.55542,-0.11841,-2.275,-0.443,0.87
2026-05-20 17:38:15.462,1182234918,739462,1,0.89404,-0.06372,0.65723,0.13,1.206,-0.489
2026-05-20 17:38:15.462,1182234918,739462,2,0.86279,-0.54346,-0.11426,-2.756,0.473,0.412
2026-05-20 17:38:15.662,1182235118,739662,1,0.96777,-0.08008,0.7063,-1.008,-18.382,3.618
2026-05-20 17:38:15.662,1182235118,739662,2,0.87793,-0.56714,-0.08228,17.527,14.733,-2.092
2026-05-20 17:38:15.862,1182235318,739862,1,0.92529,-0.11255,0.57153,8.137,-23.267,13.672
2026-05-20 17:38:15.862,1182235318,739862,2,0.85181,-0.49878,-0.05298,19.397,7.313,-2.618
2026-05-20 17:38:15.062,1182234518,740062,1,0.91846,-0.11523,0.47485,14.099,-8.313,6.092
2026-05-20 17:38:15.062,1182234518,740062,2,0.85303,-0.53833,0.05664,10.687,-3.008,0.305
2026-05-20 17:38:15.262,1182234718,740262,1,0.96997,-0.13696,0.4707,-2.954,-2.504,-1.611
2026-05-20 17:38:15.262,1182234718,740262,2,0.87402,-0.53101,-0.00684,-4.733,-1.344,0.534
2026-05-20 17:38:16.462,1182235918,740462,1,0.98828,-0.14282,0.47876,-4.0,-1.321,-1.084
2026-05-20 17:38:16.462,1182235918,740462,2,0.88086,-0.52197,-0.00928,-0.718,-0.26,-0.603
2026-05-20 17:38:16.662,1182236118,740662,1,0.98706,-0.12305,0.46118,-2.71,2.237,-1.267
2026-05-20 17:38:16.662,1182236118,740662,2,0.89185,-0.51929,-0.01196,-0.481,-0.557,1.076
2026-05-20 17:38:16.862,1182236318,740862,1,0.98438,-0.12891,0.45874,-3.008,-0.061,-0.229
2026-05-20 17:38:16.862,1182236318,740862,2,0.88818,-0.53003,-0.01514,-2.366,-0.122,0.916
2026-05-20 17:38:16.062,1182235518,741062,1,0.98608,-0.13257,0.44971,-1.534,0.992,-0.069
2026-05-20 17:38:16.062,1182235518,741062,2,0.88818,-0.52002,-0.01611,-1.748,0.038,0.672
2026-05-20 17:38:16.262,1182235718,741262,1,0.98022,-0.12988,0.45215,0.252,2.969,-0.282
2026-05-20 17:38:16.262,1182235718,741262,2,0.89355,-0.53149,-0.05298,-0.756,-1.351,1.015
2026-05-20 17:38:17.462,1182236918,741462,1,1.00439,-0.12891,0.45386,4.229,3.038,1.527
2026-05-20 17:38:17.462,1182236918,741462,2,0.8728,-0.52051,-0.00732,-2.802,0.198,0.649
2026-05-20 17:38:17.662,1182237118,741662,1,0.99683,-0.10693,0.46094,-14.664,1.901,1.099
2026-05-20 17:38:17.662,1182237118,741662,2,0.88257,-0.50952,-0.02295,-12.237,4.206,7.084
2026-05-20 17:38:17.862,1182237318,741862,1,0.96851,-0.21069,0.46094,-12.26,8.29,-4.504
2026-05-20 17:38:17.862,1182237318,741862,2,0.86133,-0.5752,-0.00464,-0.756,5.42,0.351
2026-05-20 17:38:17.062,1182236518,742062,1,0.97168,-0.14795,0.47949,3.603,3.794,-0.145
2026-05-20 17:38:17.062,1182236518,742062,2,0.86792,-0.54443,0.00366,-0.962,0.855,-0.328
2026-05-20 17:38:17.262,1182236718,742262,1,0.93604,-0.1543,0.53809,-2.443,9.359,-2.954
2026-05-20 17:38:17.262,1182236718,742262,2,0.85938,-0.52661,0.08862,-13.45,-2.282,1.84
2026-05-20 17:38:18.462,1182237918,742462,1,0.89307,-0.15503,0.51025,-12.015,34.595,-14.053
2026-05-20 17:38:18.462,1182237918,742462,2,0.81714,-0.59253,-0.073,-26.969,-7.931,9.824
2026-05-20 17:38:18.662,1182238118,742662,1,0.96191,-0.10156,0.60181,19.534,39.008,-8.336
2026-05-20 17:38:18.662,1182238118,742662,2,0.95239,-0.58594,-0.23389,1.305,-7.153,0.061
2026-05-20 17:38:18.862,1182238318,742862,1,0.93213,-0.0896,0.5835,-2.527,-3.031,0.779
2026-05-20 17:38:18.862,1182238318,742862,2,0.8584,-0.55029,-0.14307,0.206,5.282,-0.458
2026-05-20 17:38:18.062,1182237518,743062,1,0.90552,-0.08936,0.61743,-0.809,0.214,1.359
2026-05-20 17:38:18.062,1182237518,743062,2,0.86206,-0.5647,-0.16211,-0.672,0.672,1.328
2026-05-20 17:38:18.262,1182237718,743262,1,0.97192,-0.10986,0.57007,-1.405,2.519,-0.046
2026-05-20 17:38:18.262,1182237718,743262,2,0.87573,-0.55884,-0.21094,7.458,10.885,-0.076
2026-05-20 17:38:19.581,1182239037,743581,1,0.87158,-0.13086,0.5918,0.107,-5.473,5.55
2026-05-20 17:38:19.581,1182239037,743581,2,0.86353,-0.57202,-0.07129,-5.351,4.649,2.038
2026-05-20 17:38:19.888,1182239344,743888,1,0.93506,-0.11353,0.61206,2.397,11.58,-4.26
2026-05-20 17:38:19.888,1182239344,743888,2,0.82617,-0.58472,-0.06079,4.954,2.435,-0.672
2026-05-20 17:38:19.088,1182238544,744088,1,0.89893,-0.08081,0.60181,7.573,1.115,1.435
2026-05-20 17:38:19.088,1182238544,744088,2,0.84863,-0.54614,-0.01294,-1.786,0.13,-1.771
2026-05-20 17:38:19.288,1182238744,744288,1,0.90137,-0.08667,0.61646,-1.481,0.397,0.298
2026-05-20 17:38:19.288,1182238744,744288,2,0.86523,-0.54077,-0.02295,-2.626,3.191,-1.26
2026-05-20 17:38:20.488,1182239944,744488,1,0.91797,-0.08521,0.61157,-1.115,3.985,-2.198
2026-05-20 17:38:20.488,1182239944,744488,2,0.86523,-0.54639,-0.04443,-1.779,-0.725,1.313
2026-05-20 17:38:20.688,1182240144,744688,1,0.89551,-0.08545,0.61523,4.405,2.183,1.397
2026-05-20 17:38:20.688,1182240144,744688,2,0.86572,-0.55249,-0.0376,-0.069,-1.061,1.076
2026-05-20 17:38:20.888,1182240344,744888,1,0.91235,-0.12036,0.61084,-7.229,-4.412,-0.962
2026-05-20 17:38:20.888,1182240344,744888,2,0.86426,-0.56201,-0.05273,0.649,0.267,-0.084
2026-05-20 17:38:20.088,1182239544,745088,1,0.91333,-0.10229,0.61646,1.321,-1.45,0.145
2026-05-20 17:38:20.088,1182239544,745088,2,0.83398,-0.59058,-0.0813,-2.076,-15.519,-1.588
2026-05-20 17:38:20.288,1182239744,745288,1,0.91943,-0.10986,0.59863,-2.641,2.0,-2.534
2026-05-20 17:38:20.288,1182239744,745288,2,0.88843,-0.56152,-0.06934,-5.366,-2.916,0.069
2026-05-20 17:38:21.488,1182240944,745488,1,0.90894,-0.0835,0.60669,-1.779,2.832,-3.183
2026-05-20 17:38:21.488,1182240944,745488,2,0.86475,-0.5437,-0.0686,-1.611,-2.397,-0.137
2026-05-20 17:38:21.688,1182241144,745688,1,0.92822,-0.08716,0.57056,-1.962,-1.885,0.069
2026-05-20 17:38:21.688,1182241144,745688,2,0.86597,-0.55615,-0.08325,1.405,1.153,2.16
2026-05-20 17:38:21.888,1182241344,745888,1,0.90723,-0.07178,0.59473,-1.473,-4.115,2.901
2026-05-20 17:38:21.888,1182241344,745888,2,0.88428,-0.56177,-0.07935,-6.985,-1.374,3.244
2026-05-20 17:38:21.088,1182240544,746088,1,0.91309,-0.14307,0.53516,-15.588,-2.832,1.015
2026-05-20 17:38:21.088,1182240544,746088,2,0.85278,-0.56299,-0.0896,-4.939,-1.519,2.695
2026-05-20 17:38:21.288,1182240744,746288,1,0.91357,-0.13257,0.59302,5.939,1.092,0.427
2026-05-20 17:38:21.288,1182240744,746288,2,0.86719,-0.58057,-0.11377,-7.733,-6.855,-0.794
2026-05-20 17:38:22.511,1182241967,746511,1,0.9314,-0.12183,0.57373,12.847,7.076,-0.534
2026-05-20 17:38:22.511,1182241967,746511,2,0.91992,-0.5769,-0.15381,14.183,16.313,-3.931
2026-05-20 17:38:22.711,1182242167,746711,1,0.90576,-0.15479,0.61499,17.275,4.42,-2.382
2026-05-20 17:38:22.711,1182242167,746711,2,0.86475,-0.55542,-0.07202,10.878,-2.679,1.611
2026-05-20 17:38:22.911,1182242367,746911,1,0.96606,-0.14209,0.52002,-7.107,10.672,-9.122
2026-05-20 17:38:22.911,1182242367,746911,2,0.86646,-0.58813,-0.13574,-3.328,-6.588,3.053
2026-05-20 17:38:22.111,1182241567,747111,1,0.9646,-0.14233,0.52832,1.29,-1.947,1.458
2026-05-20 17:38:22.111,1182241567,747111,2,0.8562,-0.56226,-0.11865,3.725,2.237,-1.298
2026-05-20 17:38:22.311,1182241767,747311,1,0.95068,-0.09692,0.5354,4.939,0.305,0.573
2026-05-20 17:38:22.311,1182241767,747311,2,0.87256,-0.56641,-0.11694,-0.878,1.855,-0.802
2026-05-20 17:38:23.511,1182242967,747511,1,0.95508,-0.09326,0.53979,0.313,6.382,-0.664
2026-05-20 17:38:23.511,1182242967,747511,2,0.854,-0.55908,-0.10034,-0.344,1.229,1.504
2026-05-20 17:38:23.711,1182243167,747711,1,0.94189,-0.12988,0.5647,-6.229,0.672,-3.595
2026-05-20 17:38:23.711,1182243167,747711,2,0.86621,-0.56982,-0.10474,1.573,3.931,-0.542
2026-05-20 17:38:23.911,1182243367,747911,1,0.95874,-0.07935,0.52881,-5.763,3.969,0.58
2026-05-20 17:38:23.911,1182243367,747911,2,0.87134,-0.55225,-0.08618,-2.183,4.29,2.84
2026-05-20 17:38:23.111,1182242567,748111,1,0.92407,-0.16284,0.58032,-10.947,6.076,-1.489
2026-05-20 17:38:23.111,1182242567,748111,2,0.84351,-0.59424,-0.10034,-3.779,3.122,3.885
2026-05-20 17:38:23.311,1182242767,748311,1,0.90918,-0.14307,0.58203,8.443,6.351,-0.206
2026-05-20 17:38:23.311,1182242767,748311,2,0.85547,-0.60156,-0.05859,7.321,2.023,-0.252
2026-05-20 17:38:24.511,1182243967,748511,1,0.86133,-0.08643,0.59961,-0.496,4.74,-2.229
2026-05-20 17:38:24.511,1182243967,748511,2,0.81006,-0.58154,-0.0293,-2.229,-3.244,0.809
2026-05-20 17:38:24.711,1182244167,748711,1,0.95142,-0.14185,0.60938,-2.878,0.351,0.527
2026-05-20 17:38:24.711,1182244167,748711,2,0.86182,-0.56982,-0.01196,3.115,6.336,-1.489
2026-05-20 17:38:24.911,1182244367,748911,1,0.83179,-0.07007,0.61694,4.863,3.603,-3.221
2026-05-20 17:38:24.911,1182244367,748911,2,0.84497,-0.55762,-0.01807,-7.473,-4.229,-1.115
2026-05-20 17:38:24.210,1182243666,749210,1,0.91943,-0.08105,0.58667,-2.29,2.008,-8.466
2026-05-20 17:38:24.210,1182243666,749210,2,0.84326,-0.56128,-0.04248,-1.931,-9.0,0.58
2026-05-20 17:38:25.484,1182244940,749484,1,0.91919,-0.06763,0.60913,-1.305,-4.687,3.137
2026-05-20 17:38:25.484,1182244940,749484,2,0.86157,-0.54761,-0.04102,-10.282,-9.275,1.87
2026-05-20 17:38:25.684,1182245140,749684,1,0.94385,-0.13599,0.56445,-2.733,2.985,-3.359
2026-05-20 17:38:25.684,1182245140,749684,2,0.8689,-0.55225,-0.06763,2.679,-3.145,-0.16
2026-05-20 17:38:25.896,1182245352,749896,1,0.92334,-0.10474,0.57446,-3.092,-5.282,3.0
2026-05-20 17:38:25.896,1182245352,749896,2,0.85815,-0.54468,-0.04053,-4.687,-2.809,0.588
2026-05-20 17:38:25.096,1182244552,750096,1,0.93384,-0.11133,0.57715,-0.473,2.053,-1.26
2026-05-20 17:38:25.096,1182244552,750096,2,0.8606,-0.56543,-0.04541,-1.252,-0.16,0.618
2026-05-20 17:38:25.296,1182244752,750296,1,0.93018,-0.09985,0.56177,0.557,2.298,-0.985
2026-05-20 17:38:25.296,1182244752,750296,2,0.87134,-0.56323,-0.03467,-0.267,3.198,-0.374
2026-05-20 17:38:26.496,1182245952,750496,1,0.92773,-0.09204,0.58643,0.763,0.359,-0.397
2026-05-20 17:38:26.496,1182245952,750496,2,0.86719,-0.55859,-0.05005,-1.206,0.992,0.13
2026-05-20 17:38:26.696,1182246152,750696,1,0.94067,-0.08789,0.58057,-2.748,-0.29,-1.328
2026-05-20 17:38:26.696,1182246152,750696,2,0.85889,-0.55688,-0.05249,-1.71,0.71,1.061
2026-05-20 17:38:26.896,1182246352,750896,1,0.92139,-0.1001,0.60425,-0.779,0.221,2.481
2026-05-20 17:38:26.896,1182246352,750896,2,0.88696,-0.573,-0.0249,8.817,2.748,-1.122
2026-05-20 17:38:26.096,1182245552,751096,1,0.91992,-0.09106,0.56885,0.969,-2.13,0.962
2026-05-20 17:38:26.096,1182245552,751096,2,0.85254,-0.52368,0.01782,-3.779,1.977,3.565
2026-05-20 17:38:26.305,1182245761,751305,1,0.90649,-0.12158,0.61401,-8.664,4.588,0.824
2026-05-20 17:38:26.305,1182245761,751305,2,0.87769,-0.54712,-0.03564,-11.565,0.153,6.695
2026-05-20 17:38:27.505,1182246961,751505,1,0.9353,-0.18115,0.52686,-14.542,-9.038,6.649
2026-05-20 17:38:27.505,1182246961,751505,2,0.82788,-0.59351,-0.03467,1.672,-6.008,1.267
2026-05-20 17:38:27.705,1182247161,751705,1,0.95044,-0.14063,0.53418,1.473,0.931,-2.45
2026-05-20 17:38:27.705,1182247161,751705,2,0.87061,-0.55591,-0.04224,-3.916,0.252,-0.168
2026-05-20 17:38:27.905,1182247361,751905,1,0.9397,-0.14355,0.54834,3.313,2.786,-3.427
2026-05-20 17:38:27.905,1182247361,751905,2,0.854,-0.55859,-0.03418,4.206,1.298,-0.374
2026-05-20 17:38:27.105,1182246561,752105,1,0.98364,-0.1167,0.52881,8.916,3.504,3.58
2026-05-20 17:38:27.105,1182246561,752105,2,0.87061,-0.55176,-0.02661,0.298,-0.405,1.053
2026-05-20 17:38:27.305,1182246761,752305,1,0.91602,-0.11646,0.604,1.374,2.061,-2.023
2026-05-20 17:38:27.305,1182246761,752305,2,0.86401,-0.59155,-0.02734,6.344,2.58,-1.924
2026-05-20 17:38:28.505,1182247961,752505,1,0.92432,-0.09814,0.57446,13.176,-15.573,1.359
2026-05-20 17:38:28.505,1182247961,752505,2,0.87671,-0.56836,0.0293,26.641,4.252,-4.733
2026-05-20 17:38:28.705,1182248161,752705,1,0.93311,-0.08374,0.53467,5.573,-9.282,4.649
2026-05-20 17:38:28.705,1182248161,752705,2,0.88574,-0.47144,0.13037,6.985,5.328,-2.588
2026-05-20 17:38:28.905,1182248361,752905,1,0.9436,-0.08911,0.51489,0.252,-1.611,-0.26
2026-05-20 17:38:28.905,1182248361,752905,2,0.87891,-0.50488,0.07495,0.115,-6.359,0.061
2026-05-20 17:38:28.105,1182247561,753105,1,0.97412,-0.1145,0.45923,-3.092,-1.908,0.344
2026-05-20 17:38:28.105,1182247561,753105,2,0.88672,-0.51831,0.03198,-4.351,-5.198,2.466
2026-05-20 17:38:28.305,1182247761,753305,1,0.98267,-0.11475,0.46509,-3.611,-0.977,0.122
2026-05-20 17:38:28.305,1182247761,753305,2,0.88647,-0.51831,0.03027,-3.221,-2.191,0.954
2026-05-20 17:38:29.505,1182248961,753505,1,0.98389,-0.12183,0.46777,-6.931,-2.435,-2.084
2026-05-20 17:38:29.505,1182248961,753505,2,0.89014,-0.51245,0.03052,-2.618,-1.397,0.611
2026-05-20 17:38:29.705,1182249161,753705,1,0.98779,-0.12231,0.45361,-2.397,0.496,-2.313
2026-05-20 17:38:29.705,1182249161,753705,2,0.89014,-0.52344,0.00342,-1.84,-0.489,-0.977
2026-05-20 17:38:29.905,1182249361,753905,1,0.97778,-0.10059,0.45117,-6.366,-0.748,-1.817
2026-05-20 17:38:29.905,1182249361,753905,2,0.89111,-0.50391,0.01416,-2.985,1.061,0.275
2026-05-20 17:38:29.105,1182248561,754105,1,0.98535,-0.1167,0.46045,-0.618,1.924,-0.84
2026-05-20 17:38:29.105,1182248561,754105,2,0.88672,-0.51929,0.01758,-2.679,1.55,1.656
2026-05-20 17:38:29.305,1182248761,754305,1,0.97827,-0.11133,0.48755,-2.038,3.84,-1.992
2026-05-20 17:38:29.305,1182248761,754305,2,0.88306,-0.53101,0.02344,-0.901,0.87,0.588
2026-05-20 17:38:30.505,1182249961,754505,1,0.97827,-0.10278,0.47437,0.817,2.069,0.267
2026-05-20 17:38:30.505,1182249961,754505,2,0.88843,-0.5127,0.021,-0.42,-0.145,0.695
2026-05-20 17:38:30.705,1182250161,754705,1,0.97485,-0.1106,0.47998,0.275,2.038,-0.115
2026-05-20 17:38:30.705,1182250161,754705,2,0.88965,-0.51953,0.0127,-2.458,-0.359,0.931
2026-05-20 17:38:30.310,1182249766,755310,1,0.97559,-0.11548,0.46851,0.313,1.519,0.092
2026-05-20 17:38:30.310,1182249766,755310,2,0.88184,-0.5127,0.03101,-4.458,-0.023,0.809
2026-05-20 17:38:31.510,1182250966,755510,1,0.93506,-0.11597,0.42822,-2.931,19.023,-1.779
2026-05-20 17:38:31.510,1182250966,755510,2,0.85303,-0.50146,0.0271,-34.42,5.321,2.244
2026-05-20 17:38:31.710,1182251166,755710,1,0.96191,-0.10278,0.58765,-3.176,30.176,-3.985
2026-05-20 17:38:31.710,1182251166,755710,2,0.84155,-0.53613,-0.1145,-21.038,-9.168,4.832
2026-05-20 17:38:31.910,1182251366,755910,1,0.91553,-0.10205,0.6189,8.992,12.763,-0.427
2026-05-20 17:38:31.910,1182251366,755910,2,0.86841,-0.51831,-0.08008,-4.076,-1.389,0.679
2026-05-20 17:38:31.110,1182250566,756110,1,0.9126,-0.0874,0.63794,-0.42,2.557,-1.664
2026-05-20 17:38:31.110,1182250566,756110,2,0.88037,-0.54199,-0.11353,0.55,-0.771,3.954
2026-05-20 17:38:31.310,1182250766,756310,1,0.90356,-0.09229,0.62402,0.107,1.107,-1.382
2026-05-20 17:38:31.310,1182250766,756310,2,0.8689,-0.55029,-0.09961,-2.305,-0.359,0.855
2026-05-20 17:38:32.510,1182251966,756510,1,0.89282,-0.08276,0.64673,-0.229,0.824,-1.099
2026-05-20 17:38:32.510,1182251966,756510,2,0.87085,-0.55103,-0.11792,-2.802,-0.87,0.863
2026-05-20 17:38:32.710,1182252166,756710,1,0.90283,-0.07764,0.6311,0.725,2.817,-2.931
2026-05-20 17:38:32.710,1182252166,756710,2,0.86792,-0.552,-0.11646,-2.321,-0.015,0.534
2026-05-20 17:38:32.910,1182252366,756910,1,0.89966,-0.07544,0.6333,0.26,1.099,-0.511
2026-05-20 17:38:32.910,1182252366,756910,2,0.87085,-0.53979,-0.11377,-0.313,1.038,0.382
2026-05-20 17:38:32.110,1182251566,757110,1,0.90015,-0.08374,0.63184,-1.679,1.435,-2.427
2026-05-20 17:38:32.110,1182251566,757110,2,0.8728,-0.54956,-0.12036,-1.763,-0.672,0.565
2026-05-20 17:38:32.310,1182251766,757310,1,0.89575,-0.07739,0.62744,-1.221,1.313,-0.275
2026-05-20 17:38:32.310,1182251766,757310,2,0.87231,-0.55151,-0.12158,-0.977,0.115,0.275
2026-05-20 17:38:33.510,1182252966,757510,1,0.90161,-0.07178,0.62695,1.122,3.023,0.382
2026-05-20 17:38:33.510,1182252966,757510,2,0.8689,-0.54395,-0.11426,-1.649,0.672,0.405
2026-05-20 17:38:33.710,1182253166,757710,1,0.89673,-0.06738,0.6416,0.916,1.481,0.221
2026-05-20 17:38:33.710,1182253166,757710,2,0.86328,-0.5459,-0.1189,-1.611,0.29,0.947
2026-05-20 17:38:33.910,1182253366,757910,1,0.90063,-0.07617,0.63672,-1.344,1.336,-0.321
2026-05-20 17:38:33.910,1182253366,757910,2,0.86987,-0.5437,-0.10376,0.038,1.16,0.832
2026-05-20 17:38:33.126,1182252582,758126,1,0.89624,-0.06836,0.64258,-0.763,1.687,-0.748
2026-05-20 17:38:33.126,1182252582,758126,2,0.8728,-0.5459,-0.11133,-1.221,0.779,0.473
2026-05-20 17:38:33.326,1182252782,758326,1,0.88452,-0.06738,0.646,-2.153,0.954,-0.366
2026-05-20 17:38:33.326,1182252782,758326,2,0.87061,-0.55176,-0.11304,-1.214,0.351,0.565
2026-05-20 17:38:34.526,1182253982,758526,1,0.89063,-0.073,0.63965,-0.405,0.397,-0.221
2026-05-20 17:38:34.526,1182253982,758526,2,0.86987,-0.54468,-0.11182,-1.893,0.046,0.595
2026-05-20 17:38:34.726,1182254182,758726,1,0.89209,-0.0708,0.64233,-1.412,0.29,-0.656
2026-05-20 17:38:34.726,1182254182,758726,2,0.86719,-0.54541,-0.12134,-1.802,0.214,0.809
2026-05-20 17:38:34.926,1182254382,758926,1,0.89185,-0.07422,0.64697,-1.229,0.588,-0.145
2026-05-20 17:38:34.926,1182254382,758926,2,0.87012,-0.55029,-0.09912,-1.893,-0.473,0.573
2026-05-20 17:38:34.126,1182253582,759126,1,0.9021,-0.07056,0.6355,-0.55,0.069,0.229
2026-05-20 17:38:34.126,1182253582,759126,2,0.86157,-0.5437,-0.11328,-1.885,-0.702,0.664
2026-05-20 17:38:34.326,1182253782,759326,1,0.89282,-0.07617,0.62891,-1.191,0.557,-0.046
2026-05-20 17:38:34.326,1182253782,759326,2,0.87109,-0.55322,-0.11816,-1.924,-0.038,0.679
2026-05-20 17:38:35.526,1182254982,759526,1,0.90259,-0.07471,0.6355,-0.427,0.718,-0.26
2026-05-20 17:38:35.526,1182254982,759526,2,0.87134,-0.54907,-0.11963,-1.008,0.389,0.618
2026-05-20 17:38:35.726,1182255182,759726,1,0.9043,-0.08057,0.63159,-3.954,-2.16,-0.115
2026-05-20 17:38:35.726,1182255182,759726,2,0.87305,-0.55957,-0.11206,0.595,0.366,1.237
2026-05-20 17:38:35.926,1182255382,759926,1,0.90771,-0.10107,0.60449,-0.809,-2.466,0.435
2026-05-20 17:38:35.926,1182255382,759926,2,0.87085,-0.5498,-0.11401,1.0,1.053,0.641
2026-05-20 17:38:35.126,1182254582,760126,1,0.9126,-0.08545,0.59619,-0.771,2.42,0.42
2026-05-20 17:38:35.126,1182254582,760126,2,0.87305,-0.56519,-0.11646,-0.779,-0.496,1.275
2026-05-20 17:38:35.326,1182254782,760326,1,0.93237,-0.11597,0.59912,-4.573,4.863,-1.649
2026-05-20 17:38:35.326,1182254782,760326,2,0.87549,-0.54639,-0.06494,6.908,11.023,-0.336
2026-05-20 17:38:36.720,1182256176,760719,1,0.89746,-0.08936,0.63574,-4.008,0.916,-2.695
2026-05-20 17:38:36.720,1182256176,760719,2,0.85986,-0.5542,-0.06934,3.702,0.924,-0.427
2026-05-20 17:38:36.954,1182256410,760954,1,0.91528,-0.07813,0.604,3.847,1.763,-0.191
2026-05-20 17:38:36.954,1182256410,760954,2,0.85767,-0.54614,-0.07666,-0.969,1.443,0.565
2026-05-20 17:38:36.154,1182255610,761154,1,0.90918,-0.08789,0.60791,-3.504,0.924,-1.489
2026-05-20 17:38:36.154,1182255610,761154,2,0.85913,-0.55859,-0.05859,-1.611,-0.229,0.992
2026-05-20 17:38:36.354,1182255810,761354,1,0.91235,-0.08813,0.6189,0.16,0.183,0.588
2026-05-20 17:38:36.354,1182255810,761354,2,0.86108,-0.54468,-0.05933,-1.183,0.412,0.389
2026-05-20 17:38:37.554,1182257010,761554,1,0.90967,-0.08521,0.61084,-0.42,2.466,-1.038
2026-05-20 17:38:37.554,1182257010,761554,2,0.85986,-0.55835,-0.06616,-2.275,1.168,0.435
2026-05-20 17:38:37.754,1182257210,761754,1,0.91357,-0.08472,0.60742,,1.504,-0.206
2026-05-20 17:38:37.754,1182257210,761754,2,0.86621,-0.5498,-0.07471,-1.878,-0.405,0.878
2026-05-20 17:38:37.954,1182257410,761954,1,0.91162,-0.08521,0.61401,-0.618,1.107,-0.885
2026-05-20 17:38:37.954,1182257410,761954,2,0.85986,-0.55054,-0.06665,-1.122,0.695,0.214
2026-05-20 17:38:37.154,1182256610,762154,1,0.91602,-0.09009,0.61133,0.206,1.344,-0.824
2026-05-20 17:38:37.154,1182256610,762154,2,0.86792,-0.55273,-0.07739,-1.45,-1.023,-0.053
2026-05-20 17:38:37.354,1182256810,762354,1,0.90723,-0.07886,0.61475,-0.695,1.511,-0.878
2026-05-20 17:38:37.354,1182256810,762354,2,0.87354,-0.55615,-0.08008,-1.435,1.183,0.565
2026-05-20 17:38:38.554,1182258010,762554,1,0.91455,-0.08545,0.60596,-0.748,1.908,-0.427
2026-05-20 17:38:38.554,1182258010,762554,2,0.86646,-0.55225,-0.07251,-1.092,1.687,0.58
2026-05-20 17:38:38.754,1182258210,762754,1,0.90869,-0.08081,0.6189,-1.061,1.183,-0.763
2026-05-20 17:38:38.754,1182258210,762754,2,0.85107,-0.55933,-0.06152,-1.153,-0.305,0.87
2026-05-20 17:38:38.954,1182258410,762954,1,0.90747,-0.08398,0.61328,0.115,1.534,0.084
2026-05-20 17:38:38.954,1182258410,762954,2,0.87036,-0.55542,-0.06836,-2.29,-0.321,0.573
2026-05-20 17:38:38.154,1182257610,763154,1,0.91211,-0.08691,0.61914,-0.275,1.42,-0.13
2026-05-20 17:38:38.154,1182257610,763154,2,0.875,-0.55762,-0.07129,-1.038,0.565,0.443
2026-05-20 17:38:38.354,1182257810,763354,1,0.90625,-0.08447,0.59888,-0.305,0.099,0.16
2026-05-20 17:38:38.354,1182257810,763354,2,0.86792,-0.5542,-0.06812,-1.985,0.084,0.611
2026-05-20 17:38:39.554,1182259010,763554,1,0.9126,-0.08862,0.61157,-0.557,1.16,-0.588
2026-05-20 17:38:39.554,1182259010,763554,2,0.87085,-0.55762,-0.07178,-1.099,0.389,0.366
2026-05-20 17:38:39.754,1182259210,763754,1,0.91895,-0.09155,0.60229,-0.489,1.855,-1.0
2026-05-20 17:38:39.754,1182259210,763754,2,0.86328,-0.5564,-0.07617,-1.687,-0.137,0.366
2026-05-20 17:38:39.954,1182259410,763954,1,0.91333,-0.09351,0.60181,0.153,0.832,-0.733
2026-05-20 17:38:39.954,1182259410,763954,2,0.86499,-0.55298,-0.06274,-0.015,-0.107,0.427
2026-05-20 17:38:39.154,1182258610,764154,1,0.92969,-0.08154,0.59277,4.496,1.405,5.687
2026-05-20 17:38:39.154,1182258610,764154,2,0.87329,-0.56763,-0.06909,1.626,1.924,0.053
2026-05-20 17:38:39.354,1182258810,764354,1,0.92627,-0.08081,0.57446,-6.321,-1.275,-3.015
2026-05-20 17:38:39.354,1182258810,764354,2,0.85132,-0.55688,-0.06348,-3.237,-1.679,2.153
2026-05-20 17:38:40.554,1182260010,764554,1,0.91846,-0.12476,0.58789,-16.71,-5.069,1.183
2026-05-20 17:38:40.554,1182260010,764554,2,0.85742,-0.57349,-0.06763,0.489,2.137,1.847
2026-05-20 17:38:40.754,1182260210,764754,1,0.89966,-0.20117,0.59839,0.74,4.611,1.191
2026-05-20 17:38:40.754,1182260210,764754,2,0.86841,-0.56104,-0.0647,2.855,3.099,-1.435
2026-05-20 17:38:40.954,1182260410,764954,1,0.88892,-0.11987,0.60059,2.26,7.053,0.473
2026-05-20 17:38:40.954,1182260410,764954,2,0.87769,-0.55713,-0.04126,-1.58,3.397,0.557
2026-05-20 17:38:40.154,1182259610,765154,1,0.91431,-0.11865,0.60083,2.718,4.153,-2.153
2026-05-20 17:38:40.154,1182259610,765154,2,0.85767,-0.5564,-0.01953,-1.466,1.359,0.321
2026-05-20 17:38:40.354,1182259810,765354,1,0.91138,-0.14258,0.63159,18.687,0.397,-8.588
2026-05-20 17:38:40.354,1182259810,765354,2,0.86719,-0.57837,-0.05127,4.733,1.588,-6.733
2026-05-20 17:38:41.554,1182261010,765554,1,0.93555,-0.01636,0.5354,16.847,-3.863,4.634
2026-05-20 17:38:41.554,1182261010,765554,2,0.89722,-0.53003,0.02295,12.786,3.305,-3.412
2026-05-20 17:38:41.754,1182261210,765754,1,0.96265,-0.04614,0.5459,-6.656,-9.282,-1.947
2026-05-20 17:38:41.754,1182261210,765754,2,0.87012,-0.52197,0.00098,4.366,0.466,0.511
2026-05-20 17:38:41.954,1182261410,765954,1,0.92896,-0.13428,0.52588,8.519,-0.687,3.595
2026-05-20 17:38:41.954,1182261410,765954,2,0.8916,-0.50366,0.02734,-0.595,-4.824,0.023
2026-05-20 17:38:41.338,1182260794,766338,1,0.97144,-0.11646,0.47192,-5.252,-4.214,-1.053
2026-05-20 17:38:41.338,1182260794,766338,2,0.87476,-0.50757,0.01758,0.58,-0.351,1.695
2026-05-20 17:38:42.544,1182262000,766544,1,0.98169,-0.09473,0.48975,0.733,0.198,-0.557
2026-05-20 17:38:42.544,1182262000,766544,2,0.88794,-0.5249,0.02344,-0.817,0.748,0.534
2026-05-20 17:38:42.744,1182262200,766744,1,0.98413,-0.06909,0.47437,-1.534,-1.618,0.672
2026-05-20 17:38:42.744,1182262200,766744,2,0.88452,-0.51318,0.01172,-2.489,0.435,1.275
2026-05-20 17:38:42.944,1182262400,766944,1,0.9751,-0.12378,0.48218,-1.198,3.221,-0.702
2026-05-20 17:38:42.944,1182262400,766944,2,0.89893,-0.51709,0.01807,2.992,-2.817,-1.374
2026-05-20 17:38:42.155,1182261611,767155,1,0.98047,-0.07349,0.47754,9.664,3.565,-1.137
2026-05-20 17:38:42.155,1182261611,767155,2,0.89844,-0.49414,-0.06592,3.244,0.084,1.0
2026-05-20 17:38:42.355,1182261811,767355,1,0.96899,-0.08252,0.49341,-9.863,0.168,-1.511
2026-05-20 17:38:42.355,1182261811,767355,2,0.88843,-0.52002,0.01465,-5.008,0.992,0.908
2026-05-20 17:38:43.555,1182263011,767555,1,0.97461,-0.09326,0.48779,3.443,2.328,1.504
2026-05-20 17:38:43.555,1182263011,767555,2,0.89209,-0.51489,0.01099,-2.641,1.122,1.153
2026-05-20 17:38:43.762,1182263218,767762,1,0.96851,-0.09204,0.49365,-3.763,0.176,-0.779
2026-05-20 17:38:43.762,1182263218,767762,2,0.89209,-0.52295,0.0022,-2.466,0.992,0.725
2026-05-20 17:38:43.962,1182263418,767962,1,0.97437,-0.09399,0.48706,-0.603,1.26,-0.183
2026-05-20 17:38:43.962,1182263418,767962,2,0.89087,-0.51074,0.01245,-2.107,2.305,0.336
2026-05-20 17:38:43.162,1182262618,768162,1,0.96582,-0.08789,0.48804,-2.237,1.344,-1.298
2026-05-20 17:38:43.162,1182262618,768162,2,0.88403,-0.52148,0.01611,-0.779,1.137,-0.092
2026-05-20 17:38:43.362,1182262818,768362,1,0.96484,-0.09253,0.47534,-1.244,1.0,-0.634
2026-05-20 17:38:43.362,1182262818,768362,2,0.88477,-0.51294,0.01807,0.664,-0.397,0.244
2026-05-20 17:38:44.562,1182264018,768562,1,0.98755,-0.09351,0.48364,0.725,1.382,0.282
2026-05-20 17:38:44.562,1182264018,768562,2,0.89331,-0.51294,0.00342,-1.649,0.45,0.267
2026-05-20 17:38:44.762,1182264218,768762,1,0.97485,-0.09033,0.50073,-1.0,1.695,0.611
2026-05-20 17:38:44.762,1182264218,768762,2,0.88818,-0.51343,0.02148,-2.183,1.542,0.908
2026-05-20 17:38:44.962,1182264418,768962,1,0.97046,-0.08813,0.49658,-1.366,2.229,-0.496
2026-05-20 17:38:44.962,1182264418,768962,2,0.89111,-0.51563,0.01392,-3.351,2.908,1.298
2026-05-20 17:38:44.162,1182263618,769162,1,0.96851,-0.08252,0.49854,-2.985,2.847,-2.366
2026-05-20 17:38:44.162,1182263618,769162,2,0.87915,-0.51611,0.02148,-8.626,7.794,3.588
2026-05-20 17:38:44.362,1182263818,769362,1,0.95825,-0.08691,0.51074,1.679,6.947,-3.122
2026-05-20 17:38:44.362,1182263818,769362,2,0.86914,-0.54419,0.0498,0.649,3.267,0.55
2026-05-20 17:38:45.562,1182265018,769562,1,0.95459,-0.07837,0.52148,0.351,2.321,1.771
2026-05-20 17:38:45.562,1182265018,769562,2,0.87817,-0.53369,0.04858,0.611,-1.298,-0.748
2026-05-20 17:38:45.762,1182265218,769762,1,0.95532,-0.07349,0.51196,-0.008,2.603,1.756
2026-05-20 17:38:45.762,1182265218,769762,2,0.87915,-0.52246,0.04321,-4.672,1.893,-0.221
2026-05-20 17:38:45.962,1182265418,769962,1,0.96021,-0.10181,0.51587,-1.779,0.786,0.328
2026-05-20 17:38:45.962,1182265418,769962,2,0.88721,-0.51123,0.05078,-0.855,-0.221,0.389
2026-05-20 17:38:45.162,1182264618,770162,1,0.96313,-0.09277,0.52246,-0.977,0.58,-1.931
2026-05-20 17:38:45.162,1182264618,770162,2,0.87769,-0.53296,0.03809,-0.13,-2.74,2.252
2026-05-20 17:38:45.362,1182264818,770362,1,0.96411,-0.09985,0.50928,0.252,0.58,0.313
2026-05-20 17:38:45.362,1182264818,770362,2,0.87646,-0.53809,0.03857,-4.305,0.931,1.313
2026-05-20 17:38:46.562,1182266018,770562,1,0.9646,-0.10693,0.50317,-4.756,0.656,2.099
2026-05-20 17:38:46.562,1182266018,770562,2,0.87939,-0.53735,0.02905,-3.145,0.977,-0.252
2026-05-20 17:38:46.762,1182266218,770762,1,0.96655,-0.10742,0.51343,2.626,1.595,-0.13
2026-05-20 17:38:46.762,1182266218,770762,2,0.88354,-0.53564,0.02954,1.878,-1.16,-0.855
2026-05-20 17:38:46.962,1182266418,770962,1,0.9646,-0.10767,0.50879,0.664,1.824,-1.939
2026-05-20 17:38:46.962,1182266418,770962,2,0.88354,-0.53491,0.02661,-1.267,2.237,0.809
2026-05-20 17:38:46.162,1182265618,771162,1,0.94482,-0.09131,0.52246,-13.267,-8.305,-0.137
2026-05-20 17:38:46.162,1182265618,771162,2,0.88672,-0.52759,0.02075,-1.672,1.649,1.29
2026-05-20 17:38:46.366,1182265822,771366,1,0.95581,-0.09937,0.51221,-6.374,2.382,-1.947
2026-05-20 17:38:46.366,1182265822,771366,2,0.87939,-0.5271,0.04053,-3.733,0.664,1.779
2026-05-20 17:38:47.570,1182267026,771570,1,0.96411,-0.11401,0.49878,-3.389,0.176,-0.595
2026-05-20 17:38:47.570,1182267026,771570,2,0.86963,-0.54102,0.04639,-1.588,1.656,0.695
2026-05-20 17:38:47.923,1182267379,771923,1,0.96948,-0.12305,0.50659,-2.924,5.221,-2.115
2026-05-20 17:38:47.923,1182267379,771923,2,0.87524,-0.52881,0.03491,-0.603,0.901,0.557
2026-05-20 17:38:47.123,1182266579,772123,1,0.94214,-0.12231,0.5249,-2.947,7.496,-3.588
2026-05-20 17:38:47.123,1182266579,772123,2,0.86987,-0.54248,0.04736,-1.87,3.16,-0.053
2026-05-20 17:38:47.323,1182266779,772323,1,0.95288,-0.10278,0.50659,,4.718,-1.489
2026-05-20 17:38:47.323,1182266779,772323,2,0.87183,-0.5271,0.06299,1.641,-5.817,1.137
2026-05-20 17:38:48.535,1182267991,772535,1,0.9834,-0.10425,0.59546,11.42,-3.489,5.328
2026-05-20 17:38:48.535,1182267991,772535,2,0.85498,-0.52368,0.06714,-6.389,-4.328,0.313
2026-05-20 17:38:48.735,1182268191,772735,1,0.93896,-0.13989,0.52808,-2.023,9.206,-5.908
2026-05-20 17:38:48.735,1182268191,772735,2,0.90698,-0.5481,0.0144,8.924,5.313,-1.718
2026-05-20 17:38:48.935,1182268391,772935,1,0.95898,-0.06738,0.59717,-11.29,-7.908,0.832
2026-05-20 17:38:48.935,1182268391,772935,2,0.87744,-0.47266,0.02563,-4.672,4.656,-2.664
2026-05-20 17:38:48.135,1182267591,773135,1,0.93066,-0.09106,0.58667,1.168,1.718,-1.725
2026-05-20 17:38:48.135,1182267591,773135,2,0.88306,-0.51855,0.04883,-3.351,-0.374,0.992
2026-05-20 17:38:48.335,1182267791,773335,1,0.96313,-0.08643,0.54028,-7.069,-4.069,-3.137
2026-05-20 17:38:48.335,1182267791,773335,2,0.87793,-0.53662,0.02954,-8.198,0.626,-0.046
2026-05-20 17:38:49.535,1182268991,773535,1,0.9646,-0.08887,0.52222,-1.183,-2.656,-1.305
2026-05-20 17:38:49.535,1182268991,773535,2,0.8916,-0.50415,0.02417,0.718,-1.244,-1.641
2026-05-20 17:38:49.735,1182269191,773735,1,0.96533,-0.05908,0.52759,0.328,1.718,-4.481
2026-05-20 17:38:49.735,1182269191,773735,2,0.8855,-0.53076,0.00635,5.504,-2.863,-1.16
2026-05-20 17:38:49.935,1182269391,773935,1,0.95972,-0.08472,0.5127,-1.023,2.336,1.725
2026-05-20 17:38:49.935,1182269391,773935,2,0.90015,-0.50732,0.01904,1.42,1.29,-2.87
2026-05-20 17:38:49.135,1182268591,774135,1,0.96631,-0.09546,0.55688,-0.084,-0.626,3.099
2026-05-20 17:38:49.135,1182268591,774135,2,0.9021,-0.48486,0.02026,2.916,2.985,-1.298
2026-05-20 17:38:49.335,1182268791,774335,1,0.948,-0.05054,0.5249,-1.824,6.878,-5.038
2026-05-20 17:38:49.335,1182268791,774335,2,0.89185,-0.50098,0.02881,-4.939,5.397,3.695
2026-05-20 17:38:50.535,1182269991,774535,1,0.948,-0.07422,0.56128,-1.725,-4.229,1.649
2026-05-20 17:38:50.535,1182269991,774535,2,0.89014,-0.51636,0.04419,-1.931,-3.0,4.29
2026-05-20 17:38:50.735,1182270191,774735,1,0.93555,-0.10254,0.56348,-2.221,-0.779,2.641
2026-05-20 17:38:50.735,1182270191,774735,2,0.87769,-0.53003,0.02759,-7.298,1.214,1.389
2026-05-20 17:38:50.935,1182270391,774935,1,0.96655,-0.1355,0.53662,-3.229,-3.427,1.344
2026-05-20 17:38:50.935,1182270391,774935,2,0.88696,-0.49341,0.0459,0.557,-2.405,-1.595
2026-05-20 17:38:50.135,1182269591,775135,1,0.97437,-0.07422,0.51416,2.099,2.618,-6.687
2026-05-20 17:38:50.135,1182269591,775135,2,0.89648,-0.52759,0.01147,-0.382,-0.183,0.847
2026-05-20 17:38:50.335,1182269791,775335,1,0.96094,-0.07227,0.53174,3.206,1.588,2.16
2026-05-20 17:38:50.335,1182269791,775335,2,0.89038,-0.51367,0.02148,-3.534,1.863,0.443
2026-05-20 17:38:51.535,1182270991,775535,1,0.94458,-0.09448,0.54639,-8.786,-1.992,1.916
2026-05-20 17:38:51.535,1182270991,775535,2,0.87524,-0.5188,0.01709,-4.29,1.863,0.702
2026-05-20 17:38:51.735,1182271191,775735,1,0.94995,-0.08472,0.56372,8.664,2.725,0.733
2026-05-20 17:38:51.735,1182271191,775735,2,0.88892,-0.50269,0.04858,-3.603,-5.695,1.786
2026-05-20 17:38:51.935,1182271391,775935,1,0.8103,-0.02222,0.49536,-8.885,23.733,-6.954
2026-05-20 17:38:51.935,1182271391,775935,2,0.77686,-0.47876,-0.08252,-41.328,-5.435,6.084
2026-05-20 17:38:51.135,1182270591,776135,1,0.96191,-0.11816,0.65527,-3.809,25.58,-10.038
2026-05-20 17:38:51.135,1182270591,776135,2,0.90454,-0.54541,-0.19702,-10.031,0.931,1.069
2026-05-20 17:38:51.335,1182270791,776335,1,0.93677,-0.06445,0.59644,9.237,-3.443,5.878
2026-05-20 17:38:51.335,1182270791,776335,2,0.87231,-0.53467,-0.1106,5.191,-0.412,-1.725
2026-05-20 17:38:52.535,1182271991,776535,1,0.93188,-0.05737,0.59033,-6.687,-5.275,0.008
2026-05-20 17:38:52.535,1182271991,776535,2,0.87646,-0.54102,-0.14258,-7.992,-8.038,2.969
2026-05-20 17:38:52.735,1182272191,776735,1,0.927,-0.09717,0.59082,-1.832,4.878,-8.908
2026-05-20 17:38:52.735,1182272191,776735,2,0.84839,-0.57397,-0.1687,-3.885,-1.084,3.282
2026-05-20 17:38:52.935,1182272391,776935,1,0.91724,-0.05957,0.60913,-2.321,3.153,-0.168
2026-05-20 17:38:52.935,1182272391,776935,2,0.86279,-0.5459,-0.15527,-7.046,0.115,3.244
2026-05-20 17:38:52.135,1182271591,777135,1,0.91455,-0.06055,0.60864,-4.344,1.893,-0.42
2026-05-20 17:38:52.135,1182271591,777135,2,0.86304,-0.5686,-0.1438,2.565,5.893,2.809
2026-05-20 17:38:52.351,1182271807,777351,1,0.91797,-0.08228,0.6145,-3.969,-8.244,8.382
2026-05-20 17:38:52.351,1182271807,777351,2,0.86743,-0.55176,-0.12402,2.099,2.023,1.168
2026-05-20 17:38:53.684,1182273140,777684,1,0.88965,-0.13208,0.6062,-3.45,3.412,1.29
2026-05-20 17:38:53.684,1182273140,777684,2,0.85571,-0.5813,-0.07861,-0.229,2.809,2.687
2026-05-20 17:38:53.884,1182273340,777884,1,0.90747,-0.13135,0.60962,2.023,5.55,-2.573
2026-05-20 17:38:53.884,1182273340,777884,2,0.8269,-0.57935,-0.10962,-5.947,-3.237,0.908
2026-05-20 17:38:53.084,1182272540,778084,1,0.89136,-0.12524,0.62622,0.023,4.008,-3.695
2026-05-20 17:38:53.084,1182272540,778084,2,0.83398,-0.58765,-0.1167,0.924,1.489,1.137
2026-05-20 17:38:53.284,1182272740,778284,1,0.89111,-0.11816,0.6145,0.366,-1.122,2.374
