datetime,epoch_ms,ts_millis,mpu_id,ax,ay,az,gx,gy,gz
2026-05-20 14:57:44.060,1172603516,2120060,2,0.95654,-0.1355,0.31055,-3.481,-1.237,0.244
2026-05-20 14:57:57.558,1172617014,2133558,1,0.88965,-0.17163,0.57666,42.527,-9.74,5.885
2026-05-20 14:57:57.558,1172617014,2133558,2,0.97119,-0.01172,0.34399,-4.252,0.122,2.137
2026-05-20 14:57:58.929,1172618385,2133929,1,0.83081,-0.23364,0.7124,1.374,19.237,7.351
2026-05-20 14:57:58.929,1172618385,2133929,2,0.90747,0.02637,0.38184,14.618,11.397,7.427
2026-05-20 14:57:58.129,1172617585,2134129,1,0.80566,-0.22876,0.72778,-8.924,20.649,4.0
2026-05-20 14:57:58.129,1172617585,2134129,2,0.97461,-0.00903,0.31689,-16.595,-4.901,7.924
2026-05-20 14:57:58.329,1172617785,2134329,1,0.76538,-0.27246,0.77368,-1.221,0.733,-3.122
2026-05-20 14:57:58.329,1172617785,2134329,2,0.93164,-0.07764,0.35669,-4.588,-4.26,7.687
2026-05-20 14:57:58.529,1172617985,2134529,1,0.77661,-0.29858,0.7395,-3.901,3.847,1.74
2026-05-20 14:57:58.529,1172617985,2134529,2,0.94995,-0.08838,0.32739,-3.618,-1.527,2.473
2026-05-20 14:57:58.729,1172618185,2134729,1,0.77686,-0.28125,0.73413,0.015,1.351,-1.718
2026-05-20 14:57:58.729,1172618185,2134729,2,0.94946,-0.0896,0.33057,-1.153,1.191,-1.336
2026-05-20 14:57:59.929,1172619385,2134929,1,0.78003,-0.26001,0.74414,-1.29,1.458,-1.29
2026-05-20 14:57:59.929,1172619385,2134929,2,0.94849,-0.08374,0.33057,-2.725,-0.13,-0.008
2026-05-20 14:57:59.129,1172618585,2135129,1,0.78174,-0.25952,0.74536,-0.763,1.206,-0.42
2026-05-20 14:57:59.129,1172618585,2135129,2,0.94702,-0.07935,0.32959,-1.885,0.618,0.672
2026-05-20 14:57:59.329,1172618785,2135329,1,0.78369,-0.23779,0.76318,-0.145,0.344,2.443
2026-05-20 14:57:59.329,1172618785,2135329,2,0.94751,-0.0791,0.3252,2.679,2.42,6.137
2026-05-20 14:57:59.529,1172618985,2135529,1,0.78247,-0.29004,0.72119,-4.305,1.931,-0.916
2026-05-20 14:57:59.529,1172618985,2135529,2,0.94897,-0.12939,0.33081,-1.282,0.824,2.733
2026-05-20 14:57:59.729,1172619185,2135729,1,0.77832,-0.3103,0.73853,1.328,1.58,0.405
2026-05-20 14:57:59.729,1172619185,2135729,2,0.94995,-0.12134,0.32617,0.351,1.595,1.977
2026-05-20 14:58:00.929,1172620385,2135929,1,0.76953,-0.30029,0.74512,-0.924,1.153,0.405
2026-05-20 14:58:00.929,1172620385,2135929,2,0.94727,-0.10156,0.33105,0.443,0.427,0.244
2026-05-20 14:58:00.129,1172619585,2136129,1,0.77637,-0.2832,0.7356,-0.122,1.573,-1.244
2026-05-20 14:58:00.129,1172619585,2136129,2,0.94922,-0.11987,0.33203,-0.084,0.687,1.053
2026-05-20 14:58:00.329,1172619785,2136329,1,0.76636,-0.29663,0.73438,-0.595,1.412,0.573
2026-05-20 14:58:00.329,1172619785,2136329,2,0.94507,-0.10864,0.32422,-3.252,0.718,0.679
2026-05-20 14:58:00.529,1172619985,2136529,1,0.76733,-0.2959,0.73022,-0.786,1.748,-0.244
2026-05-20 14:58:00.529,1172619985,2136529,2,0.94727,-0.10913,0.32251,-2.153,0.618,0.557
2026-05-20 14:58:00.729,1172620185,2136729,1,0.77246,-0.29272,0.74023,-0.542,1.275,-0.656
2026-05-20 14:58:00.729,1172620185,2136729,2,0.94897,-0.11426,0.32568,-2.137,0.015,0.252
2026-05-20 14:58:01.929,1172621385,2136929,1,0.77441,-0.29224,0.73047,-0.84,1.359,-0.527
2026-05-20 14:58:01.929,1172621385,2136929,2,0.94824,-0.11328,0.32104,-2.992,-0.687,0.466
2026-05-20 14:58:01.129,1172620585,2137129,1,0.77612,-0.29272,0.73779,-0.679,1.641,-0.206
2026-05-20 14:58:01.129,1172620585,2137129,2,0.94653,-0.11182,0.31885,-1.954,0.076,0.618
2026-05-20 14:58:01.329,1172620785,2137329,1,0.7749,-0.29028,0.7478,-0.427,1.336,-0.542
2026-05-20 14:58:01.329,1172620785,2137329,2,0.94922,-0.11499,0.32251,-1.672,0.58,0.55
2026-05-20 14:58:01.529,1172620985,2137529,1,0.77148,-0.2981,0.72974,0.115,1.107,-1.168
2026-05-20 14:58:01.529,1172620985,2137529,2,0.94727,-0.12085,0.3252,-2.061,0.473,-0.168
2026-05-20 14:58:01.729,1172621185,2137729,1,0.7749,-0.27539,0.73999,1.153,1.351,-0.458
2026-05-20 14:58:01.729,1172621185,2137729,2,0.95483,-0.10352,0.32349,2.176,1.176,0.656
2026-05-20 14:58:02.929,1172622385,2137929,1,0.76929,-0.27856,0.74414,-0.061,1.55,1.061
2026-05-20 14:58:02.929,1172622385,2137929,2,0.94873,-0.11572,0.32568,0.198,0.985,1.779
2026-05-20 14:58:02.129,1172621585,2138129,1,0.76611,-0.29297,0.74414,-0.992,1.252,-0.107
2026-05-20 14:58:02.129,1172621585,2138129,2,0.94556,-0.11157,0.33032,-1.229,0.344,0.893
2026-05-20 14:58:02.329,1172621785,2138329,1,0.76807,-0.28979,0.74023,-1.038,-0.275,-3.13
2026-05-20 14:58:02.329,1172621785,2138329,2,0.94946,-0.11572,0.3186,-2.527,-0.542,-0.863
2026-05-20 14:58:02.529,1172621985,2138529,1,0.7749,-0.27441,0.7373,0.817,2.855,-0.779
2026-05-20 14:58:02.529,1172621985,2138529,2,0.94824,-0.10449,0.3208,-1.153,0.672,0.214
2026-05-20 14:58:02.729,1172622185,2138729,1,0.77441,-0.27466,0.74097,-0.527,2.015,-0.618
2026-05-20 14:58:02.729,1172622185,2138729,2,0.94067,-0.10278,0.32837,-2.366,0.214,1.053
2026-05-20 14:58:03.929,1172623385,2138929,1,0.77124,-0.2771,0.74023,-0.473,1.527,0.176
2026-05-20 14:58:03.929,1172623385,2138929,2,0.94604,-0.10889,0.32031,-1.588,0.794,1.153
2026-05-20 14:58:03.129,1172622585,2139129,1,0.76929,-0.28003,0.7439,-0.504,1.504,-0.58
2026-05-20 14:58:03.129,1172622585,2139129,2,0.94336,-0.11987,0.32031,-1.802,0.267,0.664
2026-05-20 14:58:03.495,1172622951,2139495,1,0.76147,-0.26416,0.7439,1.511,1.069,0.237
2026-05-20 14:58:03.495,1172622951,2139495,2,0.94385,-0.1062,0.32275,-4.351,-0.557,0.84
2026-05-20 14:58:03.695,1172623151,2139695,1,0.77539,-0.27417,0.7439,-0.115,1.16,-2.176
2026-05-20 14:58:03.695,1172623151,2139695,2,0.95093,-0.1189,0.31714,-2.542,0.779,0.542
2026-05-20 14:58:04.895,1172624351,2139895,1,0.77026,-0.28931,0.74902,-0.954,1.344,0.344
2026-05-20 14:58:04.895,1172624351,2139895,2,0.95264,-0.11108,0.31543,-1.634,-0.313,0.519
2026-05-20 14:58:04.095,1172623551,2140095,1,0.76904,-0.28613,0.75439,-0.336,1.573,-0.824
2026-05-20 14:58:04.095,1172623551,2140095,2,0.95044,-0.11304,0.32104,-2.237,-0.107,0.45
2026-05-20 14:58:04.295,1172623751,2140295,1,0.77197,-0.28223,0.74731,-0.412,1.26,-0.656
2026-05-20 14:58:04.295,1172623751,2140295,2,0.94482,-0.11475,0.31641,-1.038,-0.023,0.092
2026-05-20 14:58:04.495,1172623951,2140495,1,0.77051,-0.28296,0.75195,-0.374,1.42,-0.221
2026-05-20 14:58:04.495,1172623951,2140495,2,0.94897,-0.11523,0.32104,-1.298,0.389,0.389
2026-05-20 14:58:04.695,1172624151,2140695,1,0.77319,-0.28784,0.7439,0.053,1.786,-0.58
2026-05-20 14:58:04.695,1172624151,2140695,2,0.94946,-0.11792,0.32544,-1.519,0.092,-0.168
2026-05-20 14:58:05.895,1172625351,2140895,1,0.76611,-0.27686,0.74683,2.122,-4.496,-0.87
2026-05-20 14:58:05.895,1172625351,2140895,2,0.96655,-0.10327,0.31714,-3.573,0.076,1.305
2026-05-20 14:58:05.095,1172624551,2141095,1,0.77539,-0.26367,0.73022,-0.084,3.802,0.863
2026-05-20 14:58:05.095,1172624551,2141095,2,0.94409,-0.12085,0.32471,-3.145,1.542,1.557
2026-05-20 14:58:05.295,1172624751,2141295,1,0.77612,-0.26172,0.75098,1.351,2.626,1.748
2026-05-20 14:58:05.295,1172624751,2141295,2,0.94434,-0.11279,0.34131,-6.229,-1.42,0.84
2026-05-20 14:58:05.495,1172624951,2141495,1,0.76196,-0.30933,0.74878,5.595,8.275,-8.237
2026-05-20 14:58:05.495,1172624951,2141495,2,0.94019,-0.13281,0.33813,-7.092,2.168,-1.412
2026-05-20 14:58:05.695,1172625151,2141695,1,0.77563,-0.26611,0.75708,-2.817,0.794,2.809
2026-05-20 14:58:05.695,1172625151,2141695,2,0.95459,-0.11035,0.31519,-3.046,-1.115,1.015
2026-05-20 14:58:06.895,1172626351,2141895,1,0.7688,-0.28223,0.73145,-1.359,0.328,1.908
2026-05-20 14:58:06.895,1172626351,2141895,2,0.94165,-0.13477,0.32446,-2.0,-1.183,2.626
2026-05-20 14:58:06.095,1172625551,2142095,1,0.77002,-0.28906,0.74072,-4.366,1.313,1.168
2026-05-20 14:58:06.095,1172625551,2142095,2,0.95557,-0.12964,0.3125,-6.466,-2.687,2.252
2026-05-20 14:58:06.295,1172625751,2142295,1,0.77051,-0.29956,0.74854,-1.328,3.214,1.069
2026-05-20 14:58:06.295,1172625751,2142295,2,0.94897,-0.14233,0.31616,-1.504,1.427,3.305
2026-05-20 14:58:06.495,1172625951,2142495,1,0.76245,-0.30591,0.74585,-2.16,0.695,-2.313
2026-05-20 14:58:06.495,1172625951,2142495,2,0.95581,-0.14746,0.31079,-2.038,-2.916,0.099
2026-05-20 14:58:06.695,1172626151,2142695,1,0.77539,-0.30835,0.73169,0.351,0.511,-4.221
2026-05-20 14:58:06.695,1172626151,2142695,2,0.94971,-0.1416,0.30981,4.725,3.221,-1.977
2026-05-20 14:58:07.895,1172627351,2142895,1,0.77759,-0.25708,0.74487,0.802,-0.015,0.405
2026-05-20 14:58:07.895,1172627351,2142895,2,0.95703,-0.11621,0.30347,-0.702,0.84,1.336
2026-05-20 14:58:07.095,1172626551,2143095,1,0.76147,-0.29492,0.74072,-0.618,2.076,-1.527
2026-05-20 14:58:07.095,1172626551,2143095,2,0.96021,-0.13892,0.30249,-1.664,0.29,0.847
2026-05-20 14:58:07.323,1172626779,2143323,1,0.76978,-0.28564,0.72998,-0.092,1.611,0.313
2026-05-20 14:58:07.323,1172626779,2143323,2,0.95703,-0.12598,0.31348,-0.901,1.473,0.115
2026-05-20 14:58:07.523,1172626979,2143523,1,0.76733,-0.28296,0.74902,-0.328,1.458,-0.168
2026-05-20 14:58:07.523,1172626979,2143523,2,0.95166,-0.12842,0.30884,-2.725,-0.626,0.649
2026-05-20 14:58:07.723,1172627179,2143723,1,0.77075,-0.28149,0.74707,-0.305,1.71,0.031
2026-05-20 14:58:07.723,1172627179,2143723,2,0.94995,-0.12891,0.30713,-1.427,0.015,0.58
2026-05-20 14:58:08.923,1172628379,2143923,1,0.77271,-0.28809,0.75439,-0.519,1.389,-0.298
2026-05-20 14:58:08.923,1172628379,2143923,2,0.95581,-0.1333,0.30713,-1.099,0.412,0.588
2026-05-20 14:58:08.123,1172627579,2144123,1,0.77319,-0.28223,0.74512,-0.748,1.282,-0.588
2026-05-20 14:58:08.123,1172627579,2144123,2,0.94971,-0.13379,0.31543,-1.519,0.702,0.664
2026-05-20 14:58:08.323,1172627779,2144323,1,0.77051,-0.28369,0.75244,-0.176,1.496,-0.328
2026-05-20 14:58:08.323,1172627779,2144323,2,0.95483,-0.13062,0.3208,-1.13,0.565,0.626
2026-05-20 14:58:08.523,1172627979,2144523,1,0.76758,-0.28271,0.74634,-0.74,1.221,-0.084
2026-05-20 14:58:08.523,1172627979,2144523,2,0.95361,-0.13525,0.31348,-0.527,0.183,0.42
2026-05-20 14:58:08.723,1172628179,2144723,1,0.77954,-0.38623,0.73682,4.969,-13.038,-8.481
2026-05-20 14:58:08.723,1172628179,2144723,2,0.97705,-0.13892,0.27148,3.573,8.908,-20.489
2026-05-20 14:58:09.923,1172629379,2144923,1,0.84351,-0.19922,0.65405,25.183,-44.397,-17.786
2026-05-20 14:58:09.923,1172629379,2144923,2,0.9209,0.0293,0.39282,3.664,20.863,-27.847
2026-05-20 14:58:09.123,1172628579,2145123,1,0.96143,-0.02466,0.48706,8.618,-22.183,-19.115
2026-05-20 14:58:09.123,1172628579,2145123,2,0.85156,0.02271,0.49463,8.763,3.008,-16.992
2026-05-20 14:58:09.323,1172628779,2145323,1,0.95654,-0.05347,0.50684,0.794,8.191,-13.244
2026-05-20 14:58:09.323,1172628779,2145323,2,0.94849,0.0957,0.30273,-27.527,-32.198,-8.229
2026-05-20 14:58:09.523,1172628979,2145523,1,0.98169,-0.08936,0.48193,-4.366,-0.115,2.321
2026-05-20 14:58:09.523,1172628979,2145523,2,0.90259,0.04297,0.41821,4.565,1.802,7.397
2026-05-20 14:58:09.723,1172629179,2145723,1,0.96411,-0.09277,0.51904,-3.55,2.779,1.29
2026-05-20 14:58:09.723,1172629179,2145723,2,0.92407,0.04785,0.39453,-5.0,-8.855,1.939
2026-05-20 14:58:10.923,1172630379,2145923,1,0.96362,-0.09521,0.51025,-1.229,0.557,0.878
2026-05-20 14:58:10.923,1172630379,2145923,2,0.91553,0.0376,0.4021,-1.115,-1.229,0.786
2026-05-20 14:58:10.123,1172629579,2146123,1,0.9646,-0.08813,0.49951,-1.099,0.855,1.023
2026-05-20 14:58:10.123,1172629579,2146123,2,0.92285,0.05664,0.39502,-0.076,2.389,0.847
2026-05-20 14:58:10.323,1172629779,2146323,1,0.96948,-0.08862,0.50073,-1.351,1.527,-0.351
2026-05-20 14:58:10.323,1172629779,2146323,2,0.92065,0.05225,0.38623,1.122,0.275,1.336
2026-05-20 14:58:10.523,1172629979,2146523,1,0.95972,-0.08228,0.50244,-1.481,1.267,-0.16
2026-05-20 14:58:10.523,1172629979,2146523,2,0.92603,0.03979,0.42358,1.985,-3.656,3.366
2026-05-20 14:58:10.723,1172630179,2146723,1,0.95776,-0.07202,0.49805,-15.267,5.382,-7.702
2026-05-20 14:58:10.723,1172630179,2146723,2,0.92163,0.02075,0.29736,1.878,-2.397,9.733
2026-05-20 14:58:11.923,1172631379,2146923,1,0.96094,-0.10596,0.51953,2.672,1.137,1.313
2026-05-20 14:58:11.923,1172631379,2146923,2,0.9231,0.02173,0.39185,-0.924,2.695,1.206
2026-05-20 14:58:11.123,1172630579,2147123,1,0.95337,-0.09814,0.52368,2.351,1.573,-0.084
2026-05-20 14:58:11.123,1172630579,2147123,2,0.92847,0.0354,0.38452,-0.13,0.939,0.603
2026-05-20 14:58:11.323,1172630779,2147323,1,0.9624,-0.09741,0.51392,-0.29,1.015,-0.076
2026-05-20 14:58:11.323,1172630779,2147323,2,0.92603,0.02539,0.38135,-1.115,1.863,0.855
2026-05-20 14:58:11.523,1172630979,2147523,1,0.95557,-0.09619,0.52686,-0.008,0.878,0.664
2026-05-20 14:58:11.523,1172630979,2147523,2,0.92627,0.01782,0.3855,-0.458,1.29,0.55
2026-05-20 14:58:11.723,1172631179,2147723,1,0.96021,-0.10522,0.5144,0.87,1.115,0.214
2026-05-20 14:58:11.723,1172631179,2147723,2,0.92334,0.02368,0.38843,-0.099,2.901,0.504
2026-05-20 14:58:12.923,1172632379,2147923,1,0.9541,-0.09814,0.52295,-0.679,1.695,-0.542
2026-05-20 14:58:12.923,1172632379,2147923,2,0.92529,0.02759,0.39453,-1.26,0.58,0.137
2026-05-20 14:58:12.123,1172631579,2148123,1,0.95605,-0.10181,0.51953,-0.473,1.191,0.176
2026-05-20 14:58:12.123,1172631579,2148123,2,0.92432,0.03125,0.38696,-1.588,1.565,0.672
2026-05-20 14:58:12.323,1172631779,2148323,1,0.96143,-0.10083,0.52417,0.45,1.443,-0.153
2026-05-20 14:58:12.323,1172631779,2148323,2,0.92847,0.03174,0.38135,-0.321,0.748,0.733
2026-05-20 14:58:12.523,1172631979,2148523,1,0.95801,-0.10278,0.51782,-0.565,1.366,-0.542
2026-05-20 14:58:12.523,1172631979,2148523,2,0.92505,0.02344,0.38843,-0.939,0.672,0.237
2026-05-20 14:58:12.723,1172632179,2148723,1,0.96021,-0.09766,0.51514,-0.565,1.611,-0.351
2026-05-20 14:58:12.723,1172632179,2148723,2,0.9209,0.02539,0.38721,-1.191,0.435,0.321
2026-05-20 14:58:13.923,1172633379,2148923,1,0.95947,-0.09595,0.5166,-0.42,1.611,-0.786
2026-05-20 14:58:13.923,1172633379,2148923,2,0.92334,0.02686,0.38794,-0.87,-0.092,0.618
2026-05-20 14:58:13.123,1172632579,2149123,1,0.95654,-0.10229,0.5271,0.336,1.359,0.206
2026-05-20 14:58:13.123,1172632579,2149123,2,0.92407,0.03003,0.39502,-2.634,-0.198,0.244
2026-05-20 14:58:13.323,1172632779,2149323,1,0.96411,-0.10596,0.51318,1.809,1.168,0.725
2026-05-20 14:58:13.323,1172632779,2149323,2,0.92822,0.04395,0.38135,1.267,3.412,0.893
2026-05-20 14:58:13.523,1172632979,2149523,1,0.96289,-0.10693,0.51392,-1.366,1.0,-0.656
2026-05-20 14:58:13.523,1172632979,2149523,2,0.92505,0.02319,0.39307,-1.58,-0.458,0.885
2026-05-20 14:58:13.723,1172633179,2149723,1,0.95532,-0.10767,0.51147,0.351,1.74,-0.328
2026-05-20 14:58:13.723,1172633179,2149723,2,0.93066,0.02612,0.3855,-1.817,-0.008,0.611
2026-05-20 14:58:14.923,1172634379,2149923,1,0.96069,-0.10449,0.51807,0.603,2.176,-0.626
2026-05-20 14:58:14.923,1172634379,2149923,2,0.92432,0.01929,0.38672,-0.962,0.618,0.634
2026-05-20 14:58:14.123,1172633579,2150123,1,0.95947,-0.10498,0.52637,-0.481,1.305,-0.511
2026-05-20 14:58:14.123,1172633579,2150123,2,0.91577,0.02686,0.38892,-1.435,1.443,0.473
2026-05-20 14:58:14.323,1172633779,2150323,1,0.95752,-0.09375,0.51685,-0.374,1.153,-0.145
2026-05-20 14:58:14.323,1172633779,2150323,2,0.92505,0.02905,0.38452,-1.084,0.092,0.725
2026-05-20 14:58:14.523,1172633979,2150523,1,0.9668,-0.1189,0.52393,0.435,1.191,-0.023
2026-05-20 14:58:14.523,1172633979,2150523,2,0.94531,0.02051,0.41919,3.244,-0.496,-0.863
2026-05-20 14:58:14.723,1172634179,2150723,1,0.92139,-0.12427,0.51929,1.328,1.336,0.756
2026-05-20 14:58:14.723,1172634179,2150723,2,0.94849,0.05615,0.39307,-4.427,-9.435,-1.954
2026-05-20 14:58:15.923,1172635379,2150923,1,0.91211,-0.09497,0.51611,-1.847,2.473,0.328
2026-05-20 14:58:15.923,1172635379,2150923,2,0.92114,0.07349,0.33691,-4.664,-5.672,-1.046
2026-05-20 14:58:15.123,1172634579,2151123,1,0.97266,-0.10645,0.53662,-3.908,1.771,-0.939
2026-05-20 14:58:15.123,1172634579,2151123,2,0.92896,0.0271,0.34253,4.198,3.779,0.924
2026-05-20 14:58:15.323,1172634779,2151323,1,0.9895,-0.10181,0.50244,0.649,0.42,-0.496
2026-05-20 14:58:15.323,1172634779,2151323,2,0.94458,0.0625,0.36768,7.458,4.282,2.641
2026-05-20 14:58:15.523,1172634979,2151523,1,0.96558,-0.1123,0.5022,-0.901,-0.252,0.29
2026-05-20 14:58:15.523,1172634979,2151523,2,0.927,0.04297,0.39917,-2.992,6.71,-0.817
2026-05-20 14:58:15.723,1172635179,2151723,1,0.95728,-0.07886,0.52344,0.13,-0.122,-0.969
2026-05-20 14:58:15.723,1172635179,2151723,2,0.91602,0.04541,0.37524,-10.893,-2.13,-0.908
2026-05-20 14:58:16.923,1172636379,2151923,1,0.97412,-0.10034,0.51318,-2.16,,-0.679
2026-05-20 14:58:16.923,1172636379,2151923,2,0.91724,0.03564,0.41162,-3.145,0.626,0.748
2026-05-20 14:58:16.123,1172635579,2152123,1,0.96582,-0.09448,0.50806,2.244,2.328,-0.153
2026-05-20 14:58:16.123,1172635579,2152123,2,0.90161,0.03467,0.37842,-3.985,-0.374,0.328
2026-05-20 14:58:16.323,1172635779,2152323,1,0.96118,-0.11719,0.49927,-2.832,3.153,1.069
2026-05-20 14:58:16.323,1172635779,2152323,2,0.92163,0.02002,0.39795,1.305,1.779,2.221
2026-05-20 14:58:16.523,1172635979,2152523,1,0.96289,-0.09814,0.50903,0.481,2.252,-0.756
2026-05-20 14:58:16.523,1172635979,2152523,2,0.93433,0.0332,0.40161,-0.092,4.336,1.573
2026-05-20 14:58:16.723,1172636179,2152723,1,0.97388,-0.10889,0.50757,-0.611,1.183,0.603
2026-05-20 14:58:16.723,1172636179,2152723,2,0.91089,0.03564,0.37964,-1.107,3.038,-0.099
2026-05-20 14:58:17.923,1172637379,2152923,1,0.95801,-0.09741,0.50854,-0.214,1.305,0.061
2026-05-20 14:58:17.923,1172637379,2152923,2,0.91895,0.03101,0.40063,2.099,2.191,1.069
2026-05-20 14:58:17.123,1172636579,2153123,1,0.95898,-0.11182,0.51099,-2.611,0.87,-0.092
2026-05-20 14:58:17.123,1172636579,2153123,2,0.91284,0.02686,0.39941,-2.664,-0.908,0.489
2026-05-20 14:58:17.323,1172636779,2153323,1,0.96265,-0.11084,0.51294,-0.282,1.031,-0.427
2026-05-20 14:58:17.323,1172636779,2153323,2,0.92017,0.03247,0.40601,-1.863,-0.794,0.198
2026-05-20 14:58:17.523,1172636979,2153523,1,0.96021,-0.10767,0.51465,-0.26,1.718,-0.435
2026-05-20 14:58:17.523,1172636979,2153523,2,0.92627,0.03394,0.38403,-2.832,-1.26,1.046
2026-05-20 14:58:17.723,1172637179,2153723,1,0.9646,-0.10938,0.50708,-1.038,0.786,-0.221
2026-05-20 14:58:17.723,1172637179,2153723,2,0.9104,0.03394,0.41211,0.656,1.847,0.298
2026-05-20 14:58:18.923,1172638379,2153923,1,0.9668,-0.11133,0.5061,-0.626,1.725,-0.397
2026-05-20 14:58:18.923,1172638379,2153923,2,0.92554,0.02368,0.39795,-1.656,0.244,0.733
2026-05-20 14:58:18.123,1172637579,2154123,1,0.95947,-0.10327,0.51025,-0.504,1.076,-0.519
2026-05-20 14:58:18.123,1172637579,2154123,2,0.9231,0.03564,0.3916,-0.939,0.832,0.45
2026-05-20 14:58:18.323,1172637779,2154323,1,0.96313,-0.11572,0.5105,-1.038,1.962,-1.015
2026-05-20 14:58:18.323,1172637779,2154323,2,0.92114,0.03638,0.39209,-0.985,0.237,0.588
2026-05-20 14:58:18.523,1172637979,2154523,1,0.96143,-0.10522,0.51489,0.275,1.534,-0.275
2026-05-20 14:58:18.523,1172637979,2154523,2,0.91919,0.03149,0.40161,-1.71,0.168,0.779
2026-05-20 14:58:21.569,1172641025,2157569,1,0.95581,-0.10205,0.51074,-0.084,1.771,-0.443
2026-05-20 14:58:21.569,1172641025,2157569,2,0.92041,0.02832,0.3938,-0.672,0.275,0.557
2026-05-20 14:58:22.769,1172642225,2157769,1,0.96387,-0.10303,0.51782,-0.534,1.489,-0.71
2026-05-20 14:58:22.769,1172642225,2157769,2,0.92334,0.02661,0.39258,-1.519,0.053,0.443
2026-05-20 14:58:22.969,1172642425,2157969,1,0.95337,-0.10376,0.50879,-0.832,0.901,0.092
2026-05-20 14:58:22.969,1172642425,2157969,2,0.9209,0.03247,0.38232,-2.527,-0.229,0.748
2026-05-20 14:58:22.169,1172641625,2158169,1,0.95703,-0.10303,0.51294,-1.023,0.794,0.13
2026-05-20 14:58:22.169,1172641625,2158169,2,0.91846,0.0249,0.39771,-0.939,0.74,0.527
2026-05-20 14:58:22.369,1172641825,2158369,1,0.9624,-0.10938,0.51929,-0.71,1.359,-0.221
2026-05-20 14:58:22.369,1172641825,2158369,2,0.92017,0.03198,0.39111,-0.176,1.313,0.649
2026-05-20 14:58:22.569,1172642025,2158569,1,0.95947,-0.10156,0.51025,-0.176,1.344,-0.328
2026-05-20 14:58:22.569,1172642025,2158569,2,0.91626,0.02588,0.39331,0.13,1.092,0.756
2026-05-20 14:58:23.769,1172643225,2158769,1,0.95825,-0.09912,0.51196,-0.244,1.328,-0.725
2026-05-20 14:58:23.769,1172643225,2158769,2,0.91821,0.02783,0.39185,-1.458,-0.061,0.176
2026-05-20 14:58:23.969,1172643425,2158969,1,0.95313,-0.10132,0.5166,-0.13,1.511,-0.351
2026-05-20 14:58:23.969,1172643425,2158969,2,0.92041,0.03442,0.39893,-1.611,-0.344,0.427
2026-05-20 14:58:23.169,1172642625,2159169,1,0.95728,-0.10181,0.50806,-0.206,1.519,-0.603
2026-05-20 14:58:23.169,1172642625,2159169,2,0.91309,0.03174,0.39819,-3.321,-0.58,0.046
2026-05-20 14:58:23.369,1172642825,2159369,1,0.9585,-0.10547,0.50903,-0.977,1.534,-0.351
2026-05-20 14:58:23.369,1172642825,2159369,2,0.92432,0.03442,0.39648,-2.42,-1.427,0.366
2026-05-20 14:58:23.569,1172643025,2159569,1,0.95776,-0.10254,0.5166,-0.58,1.305,-0.389
2026-05-20 14:58:23.569,1172643025,2159569,2,0.91284,0.02881,0.396,-1.023,0.305,0.74
2026-05-20 14:58:24.769,1172644225,2159769,1,0.95898,-0.10059,0.50977,-0.229,1.931,-0.397
2026-05-20 14:58:24.769,1172644225,2159769,2,0.92188,0.03198,0.38892,-0.489,0.427,0.718
2026-05-20 14:58:24.969,1172644425,2159969,1,0.96143,-0.10718,0.51025,-0.718,1.718,-0.687
2026-05-20 14:58:24.969,1172644425,2159969,2,0.91772,0.02905,0.39258,-1.237,-0.435,0.328
2026-05-20 14:58:24.169,1172643625,2160169,1,0.96753,-0.09741,0.51953,-0.618,1.565,-0.504
2026-05-20 14:58:24.169,1172643625,2160169,2,0.92456,0.03613,0.39209,-1.099,0.756,0.595
2026-05-20 14:58:24.389,1172643845,2160389,1,0.9624,-0.10449,0.52344,-0.748,1.58,-0.473
2026-05-20 14:58:24.389,1172643845,2160389,2,0.92554,0.03345,0.38843,-2.092,-0.053,0.573
2026-05-20 14:58:24.589,1172644045,2160589,1,0.96289,-0.10034,0.51807,-0.473,1.298,-0.275
2026-05-20 14:58:24.589,1172644045,2160589,2,0.91919,0.0271,0.38892,-1.405,0.313,0.664
2026-05-20 14:58:25.789,1172645245,2160789,1,0.95679,-0.10498,0.52612,-0.359,1.298,-0.595
2026-05-20 14:58:25.789,1172645245,2160789,2,0.92212,0.02783,0.39307,-1.168,0.397,0.405
2026-05-20 14:58:25.989,1172645445,2160989,1,0.95972,-0.10376,0.52246,-0.191,1.191,-0.244
2026-05-20 14:58:25.989,1172645445,2160989,2,0.92139,0.03125,0.39673,-0.977,0.618,0.695
2026-05-20 14:58:25.189,1172644645,2161189,1,0.94946,-0.10059,0.50488,0.053,1.366,-0.122
2026-05-20 14:58:25.189,1172644645,2161189,2,0.9231,0.02954,0.39771,-1.405,1.405,0.733
2026-05-20 14:58:25.389,1172644845,2161389,1,0.96313,-0.10352,0.51855,-0.176,1.481,-0.237
2026-05-20 14:58:25.389,1172644845,2161389,2,0.92017,0.03198,0.39282,-0.031,1.145,0.794
2026-05-20 14:58:25.589,1172645045,2161589,1,0.95801,-0.10449,0.50928,-0.443,1.321,-0.336
2026-05-20 14:58:25.589,1172645045,2161589,2,0.92407,0.03027,0.39087,-0.634,1.092,0.87
2026-05-20 14:58:26.789,1172646245,2161789,1,0.9585,-0.09766,0.53052,-0.557,1.45,-0.137
2026-05-20 14:58:26.789,1172646245,2161789,2,0.91968,0.02979,0.39624,-2.618,-0.489,0.29
2026-05-20 14:58:26.989,1172646445,2161989,1,0.96045,-0.10303,0.52075,-0.87,1.435,-0.489
2026-05-20 14:58:26.989,1172646445,2161989,2,0.91626,0.03027,0.40356,-1.748,-0.298,0.282
2026-05-20 14:58:26.189,1172645645,2162189,1,0.96216,-0.10034,0.5293,-0.611,1.366,-0.595
2026-05-20 14:58:26.189,1172645645,2162189,2,0.92334,0.02661,0.41235,-0.924,0.924,0.84
2026-05-20 14:58:26.389,1172645845,2162389,1,0.96167,-0.10547,0.51904,-1.061,1.557,-0.519
2026-05-20 14:58:26.389,1172645845,2162389,2,0.92432,0.02368,0.38477,-0.893,1.0,0.855
2026-05-20 14:58:26.589,1172646045,2162589,1,0.9585,-0.10767,0.51611,-0.618,1.527,-0.573
2026-05-20 14:58:26.589,1172646045,2162589,2,0.92578,0.02783,0.39258,-2.168,-0.427,0.267
2026-05-20 14:58:27.789,1172647245,2162789,1,0.96069,-0.10913,0.52075,-0.687,1.137,-0.313
2026-05-20 14:58:27.789,1172647245,2162789,2,0.92212,0.0271,0.39063,-1.198,1.191,0.534
2026-05-20 14:58:27.989,1172647445,2162989,1,0.95728,-0.11157,0.51123,-1.099,1.855,-1.137
2026-05-20 14:58:27.989,1172647445,2162989,2,0.9292,0.03027,0.39331,-0.809,0.221,0.305
2026-05-20 14:58:27.189,1172646645,2163189,1,0.96582,-0.09546,0.51978,-0.26,0.847,-0.366
2026-05-20 14:58:27.189,1172646645,2163189,2,0.92114,0.02539,0.39771,-1.084,0.336,0.382
2026-05-20 14:58:27.389,1172646845,2163389,1,0.95532,-0.10596,0.52417,-0.298,1.282,-0.221
2026-05-20 14:58:27.389,1172646845,2163389,2,0.92505,0.03027,0.39136,-0.336,1.321,1.038
2026-05-20 14:58:27.589,1172647045,2163589,1,0.95703,-0.10083,0.50952,-0.099,1.153,-0.115
2026-05-20 14:58:27.589,1172647045,2163589,2,0.9231,0.0332,0.39478,-1.748,0.481,0.58
2026-05-20 14:58:28.789,1172648245,2163789,1,0.96289,-0.10547,0.51294,0.321,1.069,0.16
2026-05-20 14:58:28.789,1172648245,2163789,2,0.91943,0.03638,0.38745,-0.573,1.359,0.733
2026-05-20 14:58:28.989,1172648445,2163989,1,0.95679,-0.10693,0.50659,-0.214,1.137,-0.107
2026-05-20 14:58:28.989,1172648445,2163989,2,0.92065,0.02222,0.40112,-0.794,0.756,0.595
2026-05-20 14:58:28.198,1172647654,2164197,1,0.96265,-0.10815,0.51733,-0.351,1.313,-0.527
2026-05-20 14:58:28.198,1172647654,2164197,2,0.91919,0.03296,0.39844,-2.275,-0.359,0.206
2026-05-20 14:58:28.397,1172647853,2164397,1,0.95752,-0.10742,0.52148,-2.061,0.908,-0.42
2026-05-20 14:58:28.397,1172647853,2164397,2,0.9187,0.01807,0.40308,-1.733,0.573,0.015
2026-05-20 14:58:28.597,1172648053,2164597,1,0.94678,-0.09351,0.53711,-4.71,0.351,2.458
2026-05-20 14:58:28.597,1172648053,2164597,2,0.91357,0.03979,0.40625,-10.595,-12.695,-0.557
2026-05-20 14:58:29.797,1172649253,2164797,1,0.94629,-0.14453,0.54028,2.763,-8.962,-0.405
2026-05-20 14:58:29.797,1172649253,2164797,2,0.92676,0.01563,0.41333,-2.733,6.038,-2.176
2026-05-20 14:58:29.997,1172649453,2164997,1,0.96216,-0.104,0.51978,-3.321,2.45,-2.053
2026-05-20 14:58:29.997,1172649453,2164997,2,0.91382,0.02979,0.40283,-2.695,3.908,1.13
2026-05-20 14:58:29.197,1172648653,2165197,1,0.94775,-0.11743,0.521,0.053,1.366,-0.328
2026-05-20 14:58:29.197,1172648653,2165197,2,0.92114,0.0354,0.38525,-2.855,-1.863,-0.053
2026-05-20 14:58:29.397,1172648853,2165397,1,0.96582,-0.11304,0.52148,-0.191,0.214,-0.855
2026-05-20 14:58:29.397,1172648853,2165397,2,0.92212,0.02808,0.40674,1.153,2.702,0.534
2026-05-20 14:58:29.597,1172649053,2165597,1,0.94385,-0.10669,0.49219,-1.0,4.244,0.214
2026-05-20 14:58:29.597,1172649053,2165597,2,0.92676,0.02393,0.38867,-3.115,-0.023,0.542
2026-05-20 14:58:30.797,1172650253,2165797,1,0.94971,-0.11182,0.53345,2.023,1.527,1.374
2026-05-20 14:58:30.797,1172650253,2165797,2,0.92456,0.02319,0.39209,-1.42,-0.237,1.206
2026-05-20 14:58:30.997,1172650453,2165997,1,0.95605,-0.11304,0.52344,0.023,1.84,-0.252
2026-05-20 14:58:30.997,1172650453,2165997,2,0.92432,0.0293,0.37891,-0.763,1.542,0.458
2026-05-20 14:58:30.197,1172649653,2166197,1,0.95728,-0.10547,0.52856,-1.206,1.336,-0.817
2026-05-20 14:58:30.197,1172649653,2166197,2,0.92383,0.03052,0.39453,0.58,2.244,0.656
2026-05-20 14:58:30.397,1172649853,2166397,1,0.95313,-0.10645,0.52515,-0.458,1.137,-0.55
2026-05-20 14:58:30.397,1172649853,2166397,2,0.92334,0.03027,0.39917,-1.229,0.802,0.733
2026-05-20 14:58:30.597,1172650053,2166597,1,0.9541,-0.10522,0.52051,-0.092,0.977,-0.13
2026-05-20 14:58:30.597,1172650053,2166597,2,0.91675,0.02661,0.39941,-0.649,0.015,0.405
2026-05-20 14:58:31.905,1172651361,2166905,1,0.94946,-0.1106,0.52905,-0.824,1.328,-0.344
2026-05-20 14:58:31.905,1172651361,2166905,2,0.92139,0.02783,0.39624,-1.412,-0.038,0.481
2026-05-20 14:58:31.105,1172650561,2167105,1,0.95239,-0.11206,0.53784,-0.908,1.237,-0.496
2026-05-20 14:58:31.105,1172650561,2167105,2,0.92212,0.02588,0.39478,-2.336,-0.565,0.198
2026-05-20 14:58:31.305,1172650761,2167305,1,0.95142,-0.11572,0.53027,-2.58,1.366,0.237
2026-05-20 14:58:31.305,1172650761,2167305,2,0.90918,0.02881,0.40918,-1.985,-2.389,-0.855
2026-05-20 14:58:31.505,1172650961,2167505,1,0.93286,-0.13452,0.53442,4.702,6.542,0.855
2026-05-20 14:58:31.505,1172650961,2167505,2,0.89282,0.02222,0.46436,13.031,-11.42,-3.084
2026-05-20 14:58:31.705,1172651161,2167705,1,0.94751,-0.10547,0.58105,-0.939,17.153,8.58
2026-05-20 14:58:31.705,1172651161,2167705,2,1.07837,0.09302,0.43213,-6.924,-66.397,-7.0
2026-05-20 14:58:32.905,1172652361,2167905,1,0.93188,-0.12402,0.57935,-1.466,-0.176,-3.878
2026-05-20 14:58:32.905,1172652361,2167905,2,0.9939,0.03711,0.27148,-1.756,5.153,3.26
2026-05-20 14:58:32.105,1172651561,2168105,1,0.90259,-0.13159,0.60645,-0.069,3.779,0.626
2026-05-20 14:58:32.105,1172651561,2168105,2,0.97144,0.04736,0.28198,-1.847,1.038,-0.107
2026-05-20 14:58:32.475,1172651931,2168475,1,0.90845,-0.13745,0.60181,-0.687,1.542,-0.756
2026-05-20 14:58:32.475,1172651931,2168475,2,0.96313,0.04541,0.28027,-1.145,-0.45,0.672
2026-05-20 14:58:32.675,1172652131,2168675,1,0.91333,-0.12524,0.6167,-0.924,1.885,-0.771
2026-05-20 14:58:32.675,1172652131,2168675,2,0.96533,0.04419,0.2793,-2.489,0.069,0.435
2026-05-20 14:58:33.875,1172653331,2168875,1,0.90771,-0.12744,0.61108,-1.061,1.183,-0.702
2026-05-20 14:58:33.875,1172653331,2168875,2,0.96533,0.0437,0.28003,-0.74,0.55,0.718
2026-05-20 14:58:33.075,1172652531,2169075,1,0.91162,-0.1272,0.61865,-0.298,0.947,-0.496
2026-05-20 14:58:33.075,1172652531,2169075,2,0.96997,0.04199,0.28223,2.015,-0.702,1.588
2026-05-20 14:58:33.275,1172652731,2169275,1,0.90991,-0.13403,0.59912,-0.763,1.191,-0.756
2026-05-20 14:58:33.275,1172652731,2169275,2,0.97363,0.04492,0.28296,-1.351,5.046,-0.031
2026-05-20 14:58:33.475,1172652931,2169475,1,0.91943,-0.13184,0.59961,-0.13,1.176,-0.023
2026-05-20 14:58:33.475,1172652931,2169475,2,0.97168,0.04663,0.27637,-0.519,-0.649,0.725
2026-05-20 14:58:33.675,1172653131,2169675,1,0.90576,-0.13062,0.6189,-2.061,-0.389,-0.351
2026-05-20 14:58:33.675,1172653131,2169675,2,0.96802,0.04639,0.28589,-1.985,0.679,0.527
2026-05-20 14:58:34.891,1172654347,2169890,1,0.91528,-0.13159,0.6001,1.0,1.435,-0.137
2026-05-20 14:58:34.891,1172654347,2169890,2,0.96655,0.04736,0.28369,-3.405,0.344,0.947
2026-05-20 14:58:34.421,1172653877,2170421,1,0.91162,-0.13647,0.59741,0.305,1.763,0.092
2026-05-20 14:58:34.421,1172653877,2170421,2,0.96606,0.05103,0.28564,-2.466,-0.885,1.252
2026-05-20 14:58:34.621,1172654077,2170621,1,0.91187,-0.14282,0.59399,-0.13,1.313,-0.099
2026-05-20 14:58:34.621,1172654077,2170621,2,0.9707,0.03662,0.27881,-1.473,1.008,0.756
2026-05-20 14:58:35.821,1172655277,2170821,1,0.90503,-0.14478,0.60669,-0.214,1.229,-0.198
2026-05-20 14:58:35.821,1172655277,2170821,2,0.96948,0.04248,0.27808,-1.847,0.275,0.565
2026-05-20 14:58:35.021,1172654477,2171021,1,0.91211,-0.13916,0.60278,-0.481,1.527,-0.405
2026-05-20 14:58:35.021,1172654477,2171021,2,0.96973,0.04077,0.28198,-2.412,0.176,0.565
2026-05-20 14:58:35.221,1172654677,2171221,1,0.90869,-0.13525,0.61987,-0.863,1.229,-0.718
2026-05-20 14:58:35.221,1172654677,2171221,2,0.9751,0.03442,0.28101,-1.405,0.939,0.198
2026-05-20 14:58:35.421,1172654877,2171421,1,0.91016,-0.12598,0.60864,-0.748,1.29,-0.779
2026-05-20 14:58:35.421,1172654877,2171421,2,0.96606,0.04199,0.2771,-1.221,0.168,0.397
2026-05-20 14:58:35.621,1172655077,2171621,1,0.92041,-0.13159,0.59497,-0.031,1.42,-0.29
2026-05-20 14:58:35.621,1172655077,2171621,2,0.96899,0.04517,0.28955,-1.45,0.924,0.351
2026-05-20 14:58:36.929,1172656385,2171929,1,0.90552,-0.1333,0.60474,-1.595,0.58,-0.076
2026-05-20 14:58:36.929,1172656385,2171929,2,0.96875,0.04492,0.27148,-0.969,0.916,0.557
2026-05-20 14:58:36.129,1172655585,2172129,1,0.91748,-0.13232,0.59033,-0.305,1.023,-0.382
2026-05-20 14:58:36.129,1172655585,2172129,2,0.97266,0.03784,0.28198,1.42,-0.252,1.435
2026-05-20 14:58:36.329,1172655785,2172329,1,0.91089,-0.13574,0.60156,-0.244,1.328,-0.282
2026-05-20 14:58:36.329,1172655785,2172329,2,0.97192,0.03882,0.28564,-0.298,4.649,0.305
2026-05-20 14:58:36.621,1172656077,2172621,1,0.91943,-0.13965,0.59668,-0.252,1.702,-0.809
2026-05-20 14:58:36.621,1172656077,2172621,2,0.97241,0.04077,0.27271,1.145,-0.359,0.603
2026-05-20 14:58:37.821,1172657277,2172821,1,0.91504,-0.13452,0.61206,-0.405,1.458,-0.504
2026-05-20 14:58:37.821,1172657277,2172821,2,0.96191,0.04321,0.28589,-2.779,4.664,0.481
2026-05-20 14:58:37.021,1172656477,2173021,1,0.90967,-0.14087,0.61011,-0.458,1.366,-0.748
2026-05-20 14:58:37.021,1172656477,2173021,2,0.97021,0.04468,0.29639,-4.366,0.374,-0.244
2026-05-20 14:58:37.221,1172656677,2173221,1,0.91602,-0.13013,0.59595,-1.496,2.221,0.008
2026-05-20 14:58:37.221,1172656677,2173221,2,0.95703,0.03784,0.2959,0.282,-4.092,0.534
2026-05-20 14:58:37.421,1172656877,2173421,1,0.91309,-0.13477,0.59155,-1.573,2.198,-1.176
2026-05-20 14:58:37.421,1172656877,2173421,2,0.97192,0.04517,0.2832,-3.008,0.405,-0.031
2026-05-20 14:58:38.748,1172658204,2173748,1,0.91455,-0.12573,0.60083,-0.374,1.336,-0.344
2026-05-20 14:58:38.748,1172658204,2173748,2,0.9729,0.04517,0.29321,-1.985,0.939,0.359
2026-05-20 14:58:38.948,1172658404,2173948,1,0.90942,-0.13232,0.60059,-0.504,1.275,0.107
2026-05-20 14:58:38.948,1172658404,2173948,2,0.96704,0.04492,0.28027,-1.527,0.641,0.817
2026-05-20 14:58:38.148,1172657604,2174148,1,0.90723,-0.12939,0.60083,-0.519,1.748,-0.504
2026-05-20 14:58:38.148,1172657604,2174148,2,0.92188,0.02881,0.34302,7.939,13.603,-5.244
2026-05-20 14:58:41.134,1172660590,2177134,1,0.89868,-0.07983,0.56982,1.702,-7.71,-3.756
2026-05-20 14:58:41.134,1172660590,2177134,2,0.94604,0.08203,0.36206,-3.641,-2.084,-1.023
2026-05-20 14:58:41.334,1172660790,2177334,1,0.92627,-0.11035,0.56128,-9.45,1.916,-8.763
2026-05-20 14:58:41.334,1172660790,2177334,2,0.94238,0.03662,0.34424,-1.282,0.885,0.252
2026-05-20 14:58:44.156,1172663612,2180156,1,0.91626,-0.1377,0.59082,-0.496,1.351,-0.573
2026-05-20 14:58:44.156,1172663612,2180156,2,0.94263,0.04297,0.35132,-0.916,0.427,0.489
2026-05-20 14:58:44.356,1172663812,2180356,1,0.91821,-0.12915,0.5835,-0.901,1.008,-0.466
2026-05-20 14:58:44.356,1172663812,2180356,2,0.94067,0.04272,0.3584,-1.55,0.634,0.656
2026-05-20 14:58:44.556,1172664012,2180556,1,0.92749,-0.14014,0.58569,-0.298,1.42,-0.427
2026-05-20 14:58:44.556,1172664012,2180556,2,0.94482,0.03638,0.34302,-0.244,-0.038,0.954
2026-05-20 14:58:45.756,1172665212,2180756,1,0.92261,-0.14136,0.59277,0.115,1.832,-0.305
2026-05-20 14:58:45.756,1172665212,2180756,2,0.94702,0.04272,0.34058,0.366,1.29,0.496
2026-05-20 14:58:45.956,1172665412,2180956,1,0.92065,-0.13892,0.58643,-1.069,1.053,-0.26
2026-05-20 14:58:45.956,1172665412,2180956,2,0.93726,0.0376,0.3501,-1.16,0.176,0.527
2026-05-20 14:58:45.156,1172664612,2181156,1,0.92163,-0.13745,0.58276,0.168,1.176,-0.229
2026-05-20 14:58:45.156,1172664612,2181156,2,0.94189,0.04297,0.35498,-0.458,0.58,0.969
2026-05-20 14:58:45.356,1172664812,2181356,1,0.91772,-0.13477,0.59326,0.191,1.336,-0.038
2026-05-20 14:58:45.356,1172664812,2181356,2,0.9436,0.04175,0.3479,-2.107,0.481,0.786
2026-05-20 14:58:45.556,1172665012,2181556,1,0.92285,-0.13794,0.59497,-0.267,1.198,-0.076
2026-05-20 14:58:45.556,1172665012,2181556,2,0.94434,0.04565,0.34277,-2.626,-1.069,0.634
2026-05-20 14:58:46.756,1172666212,2181756,1,0.91333,-0.13599,0.58984,-0.321,1.206,-0.794
2026-05-20 14:58:46.756,1172666212,2181756,2,0.94409,0.03418,0.35425,-3.649,0.71,-0.214
2026-05-20 14:58:46.956,1172666412,2181956,1,0.92749,-0.13037,0.58276,-0.656,1.695,-0.641
2026-05-20 14:58:46.956,1172666412,2181956,2,0.94946,0.04468,0.3457,-1.107,0.26,0.298
2026-05-20 14:58:46.156,1172665612,2182156,1,0.91992,-0.13477,0.58911,-0.427,1.466,-0.496
2026-05-20 14:58:46.156,1172665612,2182156,2,0.94727,0.03809,0.35352,-1.29,0.718,0.237
2026-05-20 14:58:46.356,1172665812,2182356,1,0.92041,-0.13647,0.59009,-0.237,1.183,-0.473
2026-05-20 14:58:46.356,1172665812,2182356,2,0.94556,0.04224,0.3457,-2.756,0.496,0.244
2026-05-20 14:58:46.556,1172666012,2182556,1,0.91602,-0.13574,0.57544,-0.55,1.359,-0.206
2026-05-20 14:58:46.556,1172666012,2182556,2,0.94775,0.04077,0.33643,-2.13,0.145,0.389
2026-05-20 14:58:47.756,1172667212,2182756,1,0.92285,-0.14038,0.58179,-0.191,1.389,-0.305
2026-05-20 14:58:47.756,1172667212,2182756,2,0.94043,0.0354,0.35522,-0.725,0.282,0.405
2026-05-20 14:58:47.956,1172667412,2182956,1,0.92285,-0.13208,0.58936,-0.908,1.473,-0.321
2026-05-20 14:58:47.956,1172667412,2182956,2,0.94189,0.04297,0.3418,-2.069,0.565,0.038
2026-05-20 14:58:47.156,1172666612,2183156,1,0.92358,-0.1355,0.58838,-0.382,1.267,-0.603
2026-05-20 14:58:47.156,1172666612,2183156,2,0.94263,0.04492,0.34204,-1.351,0.321,0.687
2026-05-20 14:58:47.356,1172666812,2183356,1,0.91309,-0.13525,0.5791,-2.069,-0.053,0.16
2026-05-20 14:58:47.356,1172666812,2183356,2,0.94336,0.0376,0.33643,-0.481,-2.573,1.206
2026-05-20 14:58:47.556,1172667012,2183556,1,0.9231,-0.13232,0.57739,-1.183,0.099,0.267
2026-05-20 14:58:47.556,1172667012,2183556,2,0.94238,0.03491,0.33398,0.74,0.389,1.435
2026-05-20 14:58:48.756,1172668212,2183756,1,0.927,-0.14917,0.57983,0.122,1.328,-0.115
2026-05-20 14:58:48.756,1172668212,2183756,2,0.94971,0.0376,0.33569,0.702,0.466,0.71
2026-05-20 14:58:48.956,1172668412,2183956,1,0.92041,-0.14209,0.57861,0.336,1.588,-0.58
2026-05-20 14:58:48.956,1172668412,2183956,2,0.94263,0.03833,0.33423,-0.328,0.992,0.641
2026-05-20 14:58:48.156,1172667612,2184156,1,0.91626,-0.13892,0.58716,-0.099,1.435,-0.198
2026-05-20 14:58:48.156,1172667612,2184156,2,0.94409,0.03442,0.33813,-0.221,1.374,0.634
2026-05-20 14:58:48.356,1172667812,2184356,1,0.91992,-0.14502,0.57178,-0.344,1.397,-1.16
2026-05-20 14:58:48.356,1172667812,2184356,2,0.94604,0.03369,0.34351,-3.351,1.695,-0.916
2026-05-20 14:58:48.556,1172668012,2184556,1,0.91528,-0.1377,0.59009,-1.191,1.344,-0.534
2026-05-20 14:58:48.556,1172668012,2184556,2,0.94312,0.0415,0.33716,-3.473,0.153,0.198
2026-05-20 14:58:49.756,1172669212,2184756,1,0.91968,-0.1377,0.58643,0.443,1.71,-0.489
2026-05-20 14:58:49.756,1172669212,2184756,2,0.94727,0.03931,0.3501,-1.359,0.336,0.725
2026-05-20 14:58:49.956,1172669412,2184956,1,0.91553,-0.13965,0.59692,-0.053,1.427,-0.053
2026-05-20 14:58:49.956,1172669412,2184956,2,0.95044,0.04126,0.34229,-2.015,0.565,0.237
2026-05-20 14:58:49.156,1172668612,2185156,1,0.92603,-0.13354,0.58887,-0.427,1.496,-0.832
2026-05-20 14:58:49.156,1172668612,2185156,2,0.94507,0.03516,0.3335,-2.275,0.618,0.397
2026-05-20 14:58:49.379,1172668835,2185379,1,0.92407,-0.1521,0.58057,-0.229,1.71,-0.382
2026-05-20 14:58:49.379,1172668835,2185379,2,0.93799,0.03809,0.3335,-1.031,0.305,0.397
2026-05-20 14:58:49.579,1172669035,2185579,1,0.91992,-0.13403,0.59155,-0.664,0.954,-0.023
2026-05-20 14:58:49.579,1172669035,2185579,2,0.94556,0.04297,0.34229,-1.939,0.427,0.511
2026-05-20 14:58:50.779,1172670235,2185779,1,0.92285,-0.13403,0.59375,-0.595,1.458,-0.344
2026-05-20 14:58:50.779,1172670235,2185779,2,0.94189,0.04395,0.34424,-1.443,0.412,0.695
2026-05-20 14:58:50.979,1172670435,2185979,1,0.91724,-0.1355,0.59106,-0.366,1.443,-0.382
2026-05-20 14:58:50.979,1172670435,2185979,2,0.95142,0.04028,0.34351,-0.58,1.656,0.832
2026-05-20 14:58:50.179,1172669635,2186179,1,0.92065,-0.14209,0.5813,-0.282,1.489,-0.832
2026-05-20 14:58:50.179,1172669635,2186179,2,0.9458,0.04248,0.3374,0.183,0.489,0.496
2026-05-20 14:58:50.379,1172669835,2186379,1,0.92773,-0.14038,0.58569,0.336,1.282,-0.511
2026-05-20 14:58:50.379,1172669835,2186379,2,0.94434,0.04614,0.33423,1.13,1.359,0.695
2026-05-20 14:58:50.579,1172670035,2186579,1,0.91748,-0.13257,0.58276,0.29,1.427,-0.664
2026-05-20 14:58:50.579,1172670035,2186579,2,0.94141,0.04321,0.34717,-1.26,0.382,0.71
2026-05-20 14:58:51.779,1172671235,2186779,1,0.91406,-0.13037,0.58252,-0.137,1.504,-0.595
2026-05-20 14:58:51.779,1172671235,2186779,2,0.94434,0.04443,0.34668,-3.0,0.427,0.321
2026-05-20 14:58:51.988,1172671444,2186987,1,0.92041,-0.13135,0.58716,-0.42,1.427,-0.313
2026-05-20 14:58:51.988,1172671444,2186987,2,0.94165,0.04102,0.34692,-3.076,0.58,0.359
2026-05-20 14:58:51.187,1172670643,2187187,1,0.92432,-0.12939,0.59399,-0.527,1.55,-0.252
2026-05-20 14:58:51.187,1172670643,2187187,2,0.94531,0.04053,0.34741,-1.809,-2.092,0.336
2026-05-20 14:58:51.387,1172670843,2187387,1,0.91382,-0.12524,0.59399,-1.023,1.145,-0.137
2026-05-20 14:58:51.387,1172670843,2187387,2,0.94043,0.04761,0.354,-2.443,0.687,0.42
2026-05-20 14:58:51.587,1172671043,2187587,1,0.92139,-0.14355,0.59546,-0.382,1.527,-0.45
2026-05-20 14:58:51.587,1172671043,2187587,2,0.93896,0.03687,0.35229,-2.74,-3.542,0.282
2026-05-20 14:58:52.787,1172672243,2187787,1,0.91968,-0.13477,0.58521,-0.397,1.0,-0.145
2026-05-20 14:58:52.787,1172672243,2187787,2,0.95264,0.04175,0.34424,-0.84,0.74,0.595
2026-05-20 14:58:52.987,1172672443,2187987,1,0.91211,-0.13013,0.59204,-0.313,1.221,-0.397
2026-05-20 14:58:52.987,1172672443,2187987,2,0.948,0.03589,0.33423,-0.573,0.015,0.786
2026-05-20 14:58:52.187,1172671643,2188187,1,0.91943,-0.12988,0.57544,-0.191,1.641,-0.267
2026-05-20 14:58:52.187,1172671643,2188187,2,0.93994,0.03882,0.35449,-2.183,0.198,0.519
2026-05-20 14:58:52.387,1172671843,2188387,1,0.91943,-0.13696,0.59839,-0.603,1.16,-0.382
2026-05-20 14:58:52.387,1172671843,2188387,2,0.9436,0.04102,0.3374,-1.382,0.71,0.305
2026-05-20 14:58:52.587,1172672043,2188587,1,0.91089,-0.13965,0.59839,-0.282,1.237,-0.542
2026-05-20 14:58:52.587,1172672043,2188587,2,0.94409,0.0415,0.34448,-0.534,0.13,0.901
2026-05-20 14:58:53.787,1172673243,2188787,1,0.92236,-0.13574,0.58032,-0.618,0.817,-0.519
2026-05-20 14:58:53.787,1172673243,2188787,2,0.95142,0.04028,0.34082,-0.16,1.458,0.763
2026-05-20 14:58:53.987,1172673443,2188987,1,0.91943,-0.1394,0.5835,-0.74,0.901,-0.939
2026-05-20 14:58:53.987,1172673443,2188987,2,0.95557,0.03784,0.3396,0.931,-0.145,0.618
2026-05-20 14:58:53.187,1172672643,2189187,1,0.92017,-0.1311,0.59351,0.351,1.16,-0.191
2026-05-20 14:58:53.187,1172672643,2189187,2,0.94482,0.04248,0.33496,1.458,0.763,1.069
2026-05-20 14:58:53.387,1172672843,2189387,1,0.91699,-0.12817,0.59155,0.573,1.069,0.206
2026-05-20 14:58:53.387,1172672843,2189387,2,0.94214,0.04517,0.34033,1.389,-0.076,0.756
2026-05-20 14:58:53.587,1172673043,2189587,1,0.91724,-0.12695,0.59131,1.038,1.885,-0.405
2026-05-20 14:58:53.587,1172673043,2189587,2,0.9353,0.05103,0.35791,0.282,2.183,0.71
2026-05-20 14:58:54.787,1172674243,2189787,1,0.91724,-0.1311,0.5874,0.237,1.443,-0.107
2026-05-20 14:58:54.787,1172674243,2189787,2,0.94434,0.04688,0.34399,-0.229,-0.412,0.809
2026-05-20 14:58:54.987,1172674443,2189987,1,0.90649,-0.12256,0.57983,0.962,1.748,-0.214
2026-05-20 14:58:54.987,1172674443,2189987,2,0.94336,0.04468,0.3689,-1.893,2.198,0.534
2026-05-20 14:58:54.187,1172673643,2190187,1,0.9209,-0.12964,0.58862,2.916,1.641,-0.115
2026-05-20 14:58:54.187,1172673643,2190187,2,0.94141,0.04834,0.36621,-1.908,2.55,0.58
2026-05-20 14:58:54.387,1172673843,2190387,1,0.91284,-0.12183,0.60205,1.725,2.611,0.733
2026-05-20 14:58:54.387,1172673843,2190387,2,0.92871,0.05029,0.36353,0.87,1.672,1.046
2026-05-20 14:58:54.587,1172674043,2190587,1,0.90796,-0.12476,0.5752,-1.931,0.29,-0.473
2026-05-20 14:58:54.587,1172674043,2190587,2,0.93115,0.05884,0.35327,-11.214,-3.496,-1.053
2026-05-20 14:58:55.787,1172675243,2190787,1,0.92896,-0.11938,0.58838,-3.092,0.542,-0.718
2026-05-20 14:58:55.787,1172675243,2190787,2,0.94189,0.0459,0.3418,-5.023,-4.473,-0.13
2026-05-20 14:58:55.987,1172675443,2190987,1,0.91895,-0.13232,0.60352,-2.641,1.893,-0.26
2026-05-20 14:58:55.987,1172675443,2190987,2,0.94824,0.03809,0.34546,-3.328,0.664,0.115
2026-05-20 14:58:55.187,1172674643,2191187,1,0.91284,-0.11987,0.60449,-2.496,0.107,-0.031
2026-05-20 14:58:55.187,1172674643,2191187,2,0.93384,0.05127,0.34546,-1.863,-0.511,1.176
2026-05-20 14:58:55.387,1172674843,2191387,1,0.92871,-0.13721,0.58472,-0.893,0.786,-1.183
2026-05-20 14:58:55.387,1172674843,2191387,2,0.95435,0.0376,0.33008,-0.878,4.153,0.985
2026-05-20 14:58:58.943,1172678399,2193943,1,0.927,-0.12036,0.57666,-0.122,1.931,-0.282
2026-05-20 14:58:58.943,1172678399,2193943,2,0.95068,0.04468,0.33789,-2.053,-0.305,0.435
2026-05-20 14:58:58.143,1172677599,2194143,1,0.91772,-0.12134,0.60303,-1.817,0.603,-0.237
2026-05-20 14:58:58.143,1172677599,2194143,2,0.94067,0.02979,0.35352,-1.069,0.366,0.855
2026-05-20 14:58:58.343,1172677799,2194343,1,0.92529,-0.12622,0.58276,-0.084,1.351,-0.687
2026-05-20 14:58:58.343,1172677799,2194343,2,0.94604,0.0415,0.34448,0.458,0.366,0.756
2026-05-20 14:58:58.559,1172678015,2194559,1,0.92334,-0.12695,0.59814,0.13,1.435,-0.328
2026-05-20 14:58:58.559,1172678015,2194559,2,0.94458,0.03418,0.35181,0.374,1.817,0.756
2026-05-20 14:58:59.759,1172679215,2194759,1,0.91455,-0.12549,0.58691,0.145,1.29,-0.282
2026-05-20 14:58:59.759,1172679215,2194759,2,0.94238,0.03906,0.3396,-1.206,0.588,0.557
2026-05-20 14:58:59.959,1172679415,2194959,1,0.92432,-0.13232,0.59326,-0.687,1.695,-0.206
2026-05-20 14:58:59.959,1172679415,2194959,2,0.94751,0.04614,0.33984,-1.427,0.588,0.275
2026-05-20 14:58:59.159,1172678615,2195159,1,0.92236,-0.13232,0.5957,-0.405,1.702,-0.557
2026-05-20 14:58:59.159,1172678615,2195159,2,0.93628,0.04272,0.35303,-1.603,0.832,0.336
2026-05-20 14:58:59.359,1172678815,2195359,1,0.92578,-0.125,0.58398,-0.275,1.298,-0.405
2026-05-20 14:58:59.359,1172678815,2195359,2,0.9436,0.04004,0.34961,-2.084,0.115,0.481
2026-05-20 14:58:59.559,1172679015,2195559,1,0.91846,-0.12939,0.59009,-0.55,1.328,-0.382
2026-05-20 14:58:59.559,1172679015,2195559,2,0.94434,0.04492,0.35498,-1.618,0.924,0.412
2026-05-20 14:59:00.759,1172680215,2195759,1,0.92651,-0.12158,0.59497,-0.603,1.183,-0.405
2026-05-20 14:59:00.759,1172680215,2195759,2,0.94995,0.03369,0.33594,-1.489,0.092,0.534
2026-05-20 14:59:00.959,1172680415,2195959,1,0.92163,-0.12598,0.58545,-0.344,1.397,-0.397
2026-05-20 14:59:00.959,1172680415,2195959,2,0.94312,0.04468,0.3396,-0.511,0.198,0.313
2026-05-20 14:59:00.159,1172679615,2196159,1,0.91626,-0.12256,0.58643,-0.618,1.305,-0.221
2026-05-20 14:59:00.159,1172679615,2196159,2,0.94653,0.03906,0.34473,-1.885,0.74,0.374
2026-05-20 14:59:00.359,1172679815,2196359,1,0.91943,-0.12939,0.58521,-0.634,1.366,-0.313
2026-05-20 14:59:00.359,1172679815,2196359,2,0.94531,0.04517,0.34497,-1.374,0.046,0.527
2026-05-20 14:59:00.559,1172680015,2196559,1,0.91968,-0.1272,0.58838,-1.588,1.084,-0.107
2026-05-20 14:59:00.559,1172680015,2196559,2,0.94458,0.03271,0.34814,-1.16,1.405,-0.053
2026-05-20 14:59:01.759,1172681215,2196759,1,0.92041,-0.1189,0.58691,-9.885,2.298,2.206
2026-05-20 14:59:01.759,1172681215,2196759,2,0.9397,0.03906,0.35986,-4.527,-0.947,1.427
2026-05-20 14:59:01.959,1172681415,2196959,1,0.91919,-0.14478,0.59863,3.71,4.053,-0.313
2026-05-20 14:59:01.959,1172681415,2196959,2,0.9436,0.04517,0.33936,1.366,1.672,0.13
2026-05-20 14:59:01.159,1172680615,2197159,1,0.91357,-0.14575,0.59277,-1.573,2.359,-1.069
2026-05-20 14:59:01.159,1172680615,2197159,2,0.94067,0.03638,0.3396,-0.336,0.374,0.817
2026-05-20 14:59:01.359,1172680815,2197359,1,0.91309,-0.13574,0.5896,0.153,1.412,-0.748
2026-05-20 14:59:01.359,1172680815,2197359,2,0.94019,0.04175,0.3335,-0.351,0.046,0.595
2026-05-20 14:59:01.559,1172681015,2197559,1,0.90845,-0.146,0.60156,-0.351,1.435,-0.351
2026-05-20 14:59:01.559,1172681015,2197559,2,0.93994,0.04419,0.34814,-1.42,0.092,0.183
2026-05-20 14:59:02.759,1172682215,2197759,1,0.91333,-0.13892,0.60327,-2.901,1.321,-0.931
2026-05-20 14:59:02.759,1172682215,2197759,2,0.95093,0.04028,0.33984,-1.916,0.237,0.847
2026-05-20 14:59:02.959,1172682415,2197959,1,0.90845,-0.14063,0.60059,-0.389,1.412,0.107
2026-05-20 14:59:02.959,1172682415,2197959,2,0.94531,0.04272,0.33984,-1.13,0.282,0.855
2026-05-20 14:59:02.159,1172681615,2198159,1,0.91089,-0.146,0.58716,-0.504,1.489,-0.244
2026-05-20 14:59:02.159,1172681615,2198159,2,0.9436,0.03906,0.34351,-2.84,0.405,0.237
2026-05-20 14:59:02.359,1172681815,2198359,1,0.90991,-0.13623,0.5918,-0.374,1.496,-0.55
2026-05-20 14:59:02.359,1172681815,2198359,2,0.948,0.03882,0.34399,-1.496,0.466,0.466
2026-05-20 14:59:02.559,1172682015,2198559,1,0.91089,-0.14624,0.60059,-0.527,1.397,-0.557
2026-05-20 14:59:02.559,1172682015,2198559,2,0.94556,0.03638,0.33594,-1.397,0.351,0.611
2026-05-20 14:59:03.759,1172683215,2198759,1,0.91187,-0.14111,0.60596,-0.687,1.55,-0.382
2026-05-20 14:59:03.759,1172683215,2198759,2,0.93677,0.0376,0.34302,-1.298,-0.084,0.504
2026-05-20 14:59:03.959,1172683415,2198959,1,0.91553,-0.13159,0.60278,0.405,1.962,-0.427
2026-05-20 14:59:03.959,1172683415,2198959,2,0.94604,0.04248,0.33032,-2.504,0.649,0.305
2026-05-20 14:59:03.159,1172682615,2199159,1,0.91553,-0.14258,0.60474,0.061,1.786,-0.42
2026-05-20 14:59:03.159,1172682615,2199159,2,0.94604,0.04004,0.34546,-2.008,-0.038,0.412
2026-05-20 14:59:03.359,1172682815,2199359,1,0.91479,-0.13599,0.60352,-0.84,0.832,-0.412
2026-05-20 14:59:03.359,1172682815,2199359,2,0.94458,0.03638,0.33521,-2.359,0.107,0.107
2026-05-20 14:59:03.559,1172683015,2199559,1,0.91089,-0.14209,0.60254,-0.473,1.275,-0.313
2026-05-20 14:59:03.559,1172683015,2199559,2,0.94873,0.04224,0.33423,0.511,0.641,0.725
2026-05-20 14:59:04.018,1172683474,2200018,1,0.9104,-0.14478,0.59546,-0.099,1.435,-0.198
2026-05-20 14:59:04.018,1172683474,2200018,2,0.93359,0.03833,0.33398,-0.649,0.817,0.26
2026-05-20 14:59:04.372,1172683828,2200372,1,0.91675,-0.13696,0.61304,-0.908,1.168,-0.237
2026-05-20 14:59:04.372,1172683828,2200372,2,0.94604,0.04736,0.34058,-2.053,0.061,0.489
2026-05-20 14:59:04.572,1172684028,2200572,1,0.90259,-0.13574,0.61914,2.725,-0.611,-3.328
2026-05-20 14:59:04.572,1172684028,2200572,2,0.96704,0.02222,0.29492,-12.916,0.542,-2.031
2026-05-20 14:59:05.772,1172685228,2200772,1,0.93774,-0.10254,0.5498,11.305,-6.16,-1.092
2026-05-20 14:59:05.772,1172685228,2200772,2,0.96118,0.08252,0.31836,-6.275,4.0,-3.557
2026-05-20 14:59:05.972,1172685428,2200972,1,0.91064,-0.10278,0.58984,-6.198,-0.817,0.282
2026-05-20 14:59:05.972,1172685428,2200972,2,0.90771,0.0271,0.41846,0.863,5.901,3.13
2026-05-20 14:59:05.172,1172684628,2201172,1,0.91187,-0.1228,0.5957,0.389,0.748,2.015
2026-05-20 14:59:05.172,1172684628,2201172,2,0.90747,0.03857,0.40601,2.191,1.504,1.74
2026-05-20 14:59:05.372,1172684828,2201372,1,0.93384,-0.10962,0.58447,0.573,0.237,-0.443
2026-05-20 14:59:05.372,1172684828,2201372,2,0.91479,0.03589,0.39185,-1.855,1.931,-0.015
2026-05-20 14:59:05.572,1172685028,2201572,1,0.92456,-0.11938,0.58008,-2.305,0.252,0.168
2026-05-20 14:59:05.572,1172685028,2201572,2,0.91284,0.03003,0.40454,0.298,1.573,1.443
2026-05-20 14:59:06.772,1172686228,2201772,1,0.92358,-0.1272,0.57056,-1.725,1.466,-0.351
2026-05-20 14:59:06.772,1172686228,2201772,2,0.91187,0.03613,0.40552,-3.0,-0.939,0.718
2026-05-20 14:59:06.972,1172686428,2201972,1,0.92456,-0.1272,0.57788,-0.58,1.237,-0.84
2026-05-20 14:59:06.972,1172686428,2201972,2,0.92236,0.03857,0.40405,-0.87,1.145,0.214
2026-05-20 14:59:06.172,1172685628,2202172,1,0.93188,-0.12305,0.58105,-0.786,1.26,-0.771
2026-05-20 14:59:06.172,1172685628,2202172,2,0.9104,0.03931,0.40186,-1.511,0.634,0.534
2026-05-20 14:59:06.372,1172685828,2202372,1,0.93506,-0.12451,0.57471,-0.191,1.359,-0.443
2026-05-20 14:59:06.372,1172685828,2202372,2,0.9126,0.0415,0.40698,-2.008,0.038,0.504
2026-05-20 14:59:06.572,1172686028,2202572,1,0.92749,-0.12402,0.56958,-0.733,1.74,-1.092
2026-05-20 14:59:06.572,1172686028,2202572,2,0.91724,0.03394,0.40796,-0.198,0.031,0.42
2026-05-20 14:59:07.772,1172687228,2202772,1,0.92529,-0.12891,0.57544,-1.214,1.588,-0.725
2026-05-20 14:59:07.772,1172687228,2202772,2,0.91602,0.04126,0.42212,-1.084,0.137,1.107
2026-05-20 14:59:07.972,1172687428,2202972,1,0.91479,-0.12476,0.57202,-3.496,4.405,0.061
2026-05-20 14:59:07.972,1172687428,2202972,2,0.92285,0.03735,0.39014,-0.305,-0.153,1.664
2026-05-20 14:59:07.172,1172686628,2203172,1,0.92065,-0.12671,0.56616,-0.992,0.16,-0.435
2026-05-20 14:59:07.172,1172686628,2203172,2,0.92627,0.04272,0.38574,-4.565,-2.55,-0.328
2026-05-20 14:59:07.372,1172686828,2203372,1,0.92456,-0.12598,0.56812,-0.29,1.069,-0.611
2026-05-20 14:59:07.372,1172686828,2203372,2,0.9231,0.03003,0.40527,-3.55,-1.061,-0.588
2026-05-20 14:59:07.572,1172687028,2203572,1,0.92236,-0.12451,0.57813,-0.42,1.328,-0.214
2026-05-20 14:59:07.572,1172687028,2203572,2,0.91699,0.03638,0.40332,-2.13,0.992,0.794
2026-05-20 14:59:08.772,1172688228,2203772,1,0.92847,-0.12451,0.57324,-0.473,1.298,-0.107
2026-05-20 14:59:08.772,1172688228,2203772,2,0.91919,0.03027,0.40454,-0.13,0.969,1.16
2026-05-20 14:59:08.972,1172688428,2203972,1,0.92676,-0.12524,0.56934,0.092,1.13,-0.435
2026-05-20 14:59:08.972,1172688428,2203972,2,0.92065,0.02881,0.4104,0.748,1.87,0.901
2026-05-20 14:59:08.172,1172687628,2204172,1,0.92432,-0.11816,0.57056,0.267,1.374,-0.412
2026-05-20 14:59:08.172,1172687628,2204172,2,0.91748,0.04395,0.40747,-2.351,-0.237,0.351
2026-05-20 14:59:08.372,1172687828,2204372,1,0.92529,-0.11548,0.57446,-0.267,1.206,-0.519
2026-05-20 14:59:08.372,1172687828,2204372,2,0.91064,0.03638,0.40918,-2.046,0.069,0.214
2026-05-20 14:59:08.572,1172688028,2204572,1,0.93042,-0.12378,0.57495,-0.008,1.298,-0.473
2026-05-20 14:59:08.572,1172688028,2204572,2,0.93481,0.03931,0.37939,-4.382,0.511,0.176
2026-05-20 14:59:09.772,1172689228,2204772,1,0.92676,-0.12451,0.56055,0.443,0.832,-0.229
2026-05-20 14:59:09.772,1172689228,2204772,2,0.91479,0.03076,0.39941,-4.55,0.985,-0.626
2026-05-20 14:59:09.972,1172689428,2204972,1,0.90454,-0.12109,0.58984,-1.542,2.321,-0.237
2026-05-20 14:59:09.972,1172689428,2204972,2,0.89966,0.03174,0.42188,2.466,,1.771
2026-05-20 14:59:09.172,1172688628,2205172,1,0.95068,-0.11426,0.57422,0.008,0.695,-0.298
2026-05-20 14:59:09.172,1172688628,2205172,2,0.92627,0.03296,0.36987,-3.45,-0.855,0.718
2026-05-20 14:59:09.372,1172688828,2205372,1,0.93628,-0.12427,0.56982,-0.908,1.427,0.008
2026-05-20 14:59:09.372,1172688828,2205372,2,0.91187,0.02661,0.40332,0.771,3.435,1.16
2026-05-20 14:59:09.572,1172689028,2205572,1,0.927,-0.12061,0.57471,0.122,1.71,-0.214
2026-05-20 14:59:09.572,1172689028,2205572,2,0.92065,0.03076,0.3938,-1.71,0.046,0.374
2026-05-20 14:59:10.772,1172690228,2205772,1,0.92627,-0.12646,0.57007,-0.954,1.076,-0.237
2026-05-20 14:59:10.772,1172690228,2205772,2,0.91479,0.02979,0.39331,0.061,2.733,0.962
2026-05-20 14:59:10.972,1172690428,2205972,1,0.93042,-0.12134,0.5708,-2.466,0.198,0.191
2026-05-20 14:59:10.972,1172690428,2205972,2,0.92456,0.02734,0.3999,-2.588,-0.992,0.427
2026-05-20 14:59:10.172,1172689628,2206172,1,0.93213,-0.12134,0.56934,0.351,1.229,0.084
2026-05-20 14:59:10.172,1172689628,2206172,2,0.92017,0.03101,0.39038,-0.489,0.618,0.916
2026-05-20 14:59:10.372,1172689828,2206372,1,0.92773,-0.12207,0.57715,0.122,1.687,-0.511
2026-05-20 14:59:10.372,1172689828,2206372,2,0.9248,0.02588,0.40356,-2.481,-1.237,0.244
2026-05-20 14:59:10.572,1172690028,2206572,1,0.93115,-0.12183,0.56738,-1.557,0.878,0.176
2026-05-20 14:59:10.572,1172690028,2206572,2,0.91943,0.03101,0.39429,-0.412,0.824,0.405
2026-05-20 14:59:11.772,1172691228,2206772,1,0.92749,-0.12915,0.57593,-0.931,1.573,-0.397
2026-05-20 14:59:11.772,1172691228,2206772,2,0.91406,0.02734,0.39966,-2.939,0.588,0.618
2026-05-20 14:59:11.972,1172691428,2206972,1,0.93018,-0.12646,0.57324,0.031,1.282,-0.435
2026-05-20 14:59:11.972,1172691428,2206972,2,0.92261,0.03223,0.39551,-1.176,-0.008,0.298
2026-05-20 14:59:11.172,1172690628,2207172,1,0.93237,-0.11841,0.57349,0.29,0.382,-0.763
2026-05-20 14:59:11.172,1172690628,2207172,2,0.92407,0.02441,0.40161,-0.176,1.748,1.221
2026-05-20 14:59:11.372,1172690828,2207372,1,0.94678,-0.13257,0.55737,-3.473,-5.305,5.756
2026-05-20 14:59:11.372,1172690828,2207372,2,0.90918,0.03345,0.40063,-5.901,-1.237,3.901
2026-05-20 14:59:11.572,1172691028,2207572,1,0.92969,-0.15356,0.54004,1.611,-2.145,2.664
2026-05-20 14:59:11.572,1172691028,2207572,2,0.91284,-0.00269,0.41113,0.015,-2.26,2.664
2026-05-20 14:59:12.772,1172692228,2207772,1,0.94385,-0.15479,0.54395,1.626,1.435,0.695
2026-05-20 14:59:12.772,1172692228,2207772,2,0.92871,-0.00171,0.3855,-3.74,-2.313,-0.13
2026-05-20 14:59:12.992,1172692448,2207992,1,0.94824,-0.14746,0.54102,-2.214,0.389,-0.924
2026-05-20 14:59:12.992,1172692448,2207992,2,0.92798,0.00366,0.39038,-2.618,-0.321,-0.58
2026-05-20 14:59:12.192,1172691648,2208192,1,0.94409,-0.13989,0.53662,0.611,1.664,-0.221
2026-05-20 14:59:12.192,1172691648,2208192,2,0.93262,-0.00122,0.37354,-6.824,-0.748,-0.053
2026-05-20 14:59:12.392,1172691848,2208392,1,0.93042,-0.17676,0.52588,-4.237,0.458,-3.939
2026-05-20 14:59:12.392,1172691848,2208392,2,0.94458,-0.0083,0.36621,1.229,-0.412,-1.176
2026-05-20 14:59:12.592,1172692048,2208592,1,0.9458,-0.15137,0.521,0.573,1.855,0.16
2026-05-20 14:59:12.592,1172692048,2208592,2,0.91943,-0.00562,0.39185,-1.328,-1.069,0.679
2026-05-20 14:59:13.792,1172693248,2208792,1,0.9502,-0.15088,0.53198,0.092,2.076,0.405
2026-05-20 14:59:13.792,1172693248,2208792,2,0.91992,0.00708,0.38965,1.168,0.473,1.679
2026-05-20 14:59:13.992,1172693448,2208992,1,0.94751,-0.15381,0.53149,-3.977,1.115,-0.641
2026-05-20 14:59:13.992,1172693448,2208992,2,0.92456,-0.00708,0.39014,1.153,1.115,1.45
2026-05-20 14:59:13.192,1172692648,2209192,1,0.95898,-0.16113,0.52417,-1.863,-0.282,-0.954
2026-05-20 14:59:13.192,1172692648,2209192,2,0.92212,-0.00195,0.37524,-3.176,1.023,0.16
2026-05-20 14:59:13.392,1172692848,2209392,1,0.94775,-0.15356,0.53125,0.672,0.176,0.099
2026-05-20 14:59:13.392,1172692848,2209392,2,0.92163,0.00781,0.39185,-1.321,0.328,-0.542
2026-05-20 14:59:13.592,1172693048,2209592,1,0.94531,-0.14844,0.52881,1.679,0.824,-0.466
2026-05-20 14:59:13.592,1172693048,2209592,2,0.91162,0.01343,0.41162,-1.336,-0.122,0.244
2026-05-20 14:59:14.792,1172694248,2209792,1,0.95654,-0.16064,0.51367,-0.962,0.893,-0.641
2026-05-20 14:59:14.792,1172694248,2209792,2,0.92505,0.01221,0.40649,0.527,-0.191,0.534
2026-05-20 14:59:14.992,1172694448,2209992,1,0.94946,-0.13989,0.52612,0.145,1.824,0.87
2026-05-20 14:59:14.992,1172694448,2209992,2,0.91382,0.02075,0.40015,2.351,2.053,2.534
2026-05-20 14:59:14.192,1172693648,2210192,1,0.9458,-0.1665,0.53174,0.397,2.053,-0.649
2026-05-20 14:59:14.192,1172693648,2210192,2,0.92456,0.00366,0.40869,-0.786,0.527,1.122
2026-05-20 14:59:14.392,1172693848,2210392,1,0.94873,-0.15381,0.53223,-1.305,1.069,-0.595
2026-05-20 14:59:14.392,1172693848,2210392,2,0.90869,0.01563,0.41943,-2.168,0.412,0.038
2026-05-20 14:59:14.592,1172694048,2210592,1,0.94531,-0.1604,0.52905,0.412,1.061,-0.473
2026-05-20 14:59:14.592,1172694048,2210592,2,0.90845,0.01392,0.42017,-1.969,0.046,0.328
2026-05-20 14:59:15.792,1172695248,2210792,1,0.94922,-0.14844,0.52661,-0.618,0.359,-0.977
2026-05-20 14:59:15.792,1172695248,2210792,2,0.91919,0.01904,0.40796,-1.527,-0.687,0.267
2026-05-20 14:59:15.992,1172695448,2210992,1,0.94019,-0.14746,0.53394,1.29,4.237,-1.344
2026-05-20 14:59:15.992,1172695448,2210992,2,0.91895,0.00952,0.40869,-3.351,-2.084,-0.16
2026-05-20 14:59:15.192,1172694648,2211192,1,0.93677,-0.14111,0.54663,-1.511,5.076,-3.13
2026-05-20 14:59:15.192,1172694648,2211192,2,0.91626,0.00732,0.41382,-6.473,-4.084,-0.382
2026-05-20 14:59:15.392,1172694848,2211392,1,0.94482,-0.13965,0.53052,-0.817,0.145,-0.603
2026-05-20 14:59:15.392,1172694848,2211392,2,0.91821,0.00537,0.39478,-1.313,0.099,-0.198
2026-05-20 14:59:15.592,1172695048,2211592,1,0.94458,-0.13428,0.54565,-0.115,0.282,-0.405
2026-05-20 14:59:15.592,1172695048,2211592,2,0.92334,0.01831,0.39771,-2.031,-0.817,0.511
2026-05-20 14:59:16.792,1172696248,2211792,1,0.9541,-0.14966,0.54004,-0.855,1.947,-0.573
2026-05-20 14:59:16.792,1172696248,2211792,2,0.927,0.0083,0.39111,-1.58,0.878,0.206
2026-05-20 14:59:16.992,1172696448,2211992,1,0.93677,-0.14746,0.55005,1.031,1.534,-0.244
2026-05-20 14:59:16.992,1172696448,2211992,2,0.91772,0.01025,0.4104,-2.053,-1.076,-0.863
2026-05-20 14:59:16.192,1172695648,2212192,1,0.93237,-0.13281,0.53052,-0.084,1.855,-1.122
2026-05-20 14:59:16.192,1172695648,2212192,2,0.91211,0.01465,0.39673,-2.794,0.214,-0.015
2026-05-20 14:59:16.392,1172695848,2212392,1,0.94312,-0.13403,0.54028,-0.504,0.565,0.084
2026-05-20 14:59:16.392,1172695848,2212392,2,0.92163,0.01172,0.39331,-0.794,0.962,1.168
2026-05-20 14:59:16.592,1172696048,2212592,1,0.94873,-0.13892,0.54126,0.115,1.16,-0.305
2026-05-20 14:59:16.592,1172696048,2212592,2,0.91626,0.00732,0.40186,-0.336,1.389,1.229
2026-05-20 14:59:17.792,1172697248,2212792,1,0.948,-0.13208,0.5459,-0.969,0.42,1.687
2026-05-20 14:59:17.792,1172697248,2212792,2,0.91699,0.01782,0.39258,0.718,2.183,2.282
2026-05-20 14:59:17.992,1172697448,2212992,1,0.95361,-0.16138,0.53589,-8.885,-1.588,0.458
2026-05-20 14:59:17.992,1172697448,2212992,2,0.91016,-0.00391,0.39844,-5.092,-0.107,1.115
2026-05-20 14:59:17.192,1172696648,2213192,1,0.9502,-0.15674,0.50781,2.267,-1.023,2.069
2026-05-20 14:59:17.192,1172696648,2213192,2,0.90161,0.01025,0.40332,-3.618,-0.504,-1.435
2026-05-20 14:59:17.392,1172696848,2213392,1,0.94775,-0.14722,0.53174,2.55,3.931,-1.511
2026-05-20 14:59:17.392,1172696848,2213392,2,0.90503,0.0249,0.42163,-1.435,2.595,-1.069
2026-05-20 14:59:20.252,1172699708,2216251,1,0.97534,-0.12915,0.48242,-0.595,0.893,1.45
2026-05-20 14:59:20.252,1172699708,2216251,2,0.9104,0.02856,0.41968,2.901,0.954,0.977
2026-05-20 14:59:20.451,1172699907,2216451,1,0.9834,-0.13257,0.48291,-8.359,2.092,-3.26
2026-05-20 14:59:20.451,1172699907,2216451,2,0.92627,0.01416,0.39771,-6.321,-2.626,1.84
2026-05-20 14:59:20.651,1172700107,2216651,1,0.97412,-0.14331,0.47314,0.992,-1.626,1.809
2026-05-20 14:59:20.651,1172700107,2216651,2,0.91895,0.04077,0.39697,-0.382,0.771,1.626
2026-05-20 14:59:21.851,1172701307,2216851,1,0.97632,-0.15552,0.4729,1.55,3.855,-1.634
2026-05-20 14:59:21.851,1172701307,2216851,2,0.92065,0.02271,0.38867,2.672,1.656,0.168
2026-05-20 14:59:21.051,1172700507,2217051,1,0.97388,-0.13721,0.48364,-2.687,2.763,-1.282
2026-05-20 14:59:21.051,1172700507,2217051,2,0.92847,0.01563,0.40308,-5.511,-3.947,-0.458
2026-05-20 14:59:21.251,1172700707,2217251,1,0.97876,-0.13623,0.46875,1.794,0.702,0.122
2026-05-20 14:59:21.251,1172700707,2217251,2,0.92188,0.03101,0.41504,0.26,2.16,0.183
2026-05-20 14:59:21.483,1172700939,2217483,1,0.97266,-0.1355,0.47998,0.802,1.481,-0.344
2026-05-20 14:59:21.483,1172700939,2217483,2,0.91113,0.02588,0.41211,-3.214,-1.779,-1.076
2026-05-20 14:59:21.683,1172701139,2217683,1,0.97485,-0.13477,0.48706,0.519,1.55,-0.374
2026-05-20 14:59:21.683,1172701139,2217683,2,0.90601,0.02173,0.41577,-1.565,1.786,1.275
2026-05-20 14:59:22.883,1172702339,2217883,1,0.97437,-0.1377,0.48438,-0.405,1.427,-0.191
2026-05-20 14:59:22.883,1172702339,2217883,2,0.9082,0.02075,0.42554,-1.053,0.443,0.527
2026-05-20 14:59:22.083,1172701539,2218083,1,0.96606,-0.12964,0.4751,-0.466,1.473,-0.687
2026-05-20 14:59:22.083,1172701539,2218083,2,0.91333,0.02905,0.41772,-1.779,0.214,0.511
2026-05-20 14:59:22.283,1172701739,2218283,1,0.97485,-0.14038,0.47827,-0.557,1.702,-0.519
2026-05-20 14:59:22.283,1172701739,2218283,2,0.91113,0.02832,0.41333,-1.13,0.275,0.198
2026-05-20 14:59:22.483,1172701939,2218483,1,0.97583,-0.13745,0.47778,-0.435,1.916,-0.473
2026-05-20 14:59:22.483,1172701939,2218483,2,0.9082,0.02954,0.41479,-2.046,0.382,0.115
2026-05-20 14:59:22.683,1172702139,2218683,1,0.97192,-0.13379,0.48071,-0.534,1.412,-0.389
2026-05-20 14:59:22.683,1172702139,2218683,2,0.91309,0.03125,0.4187,-1.252,0.45,0.656
2026-05-20 14:59:23.883,1172703339,2218883,1,0.97363,-0.13892,0.4856,-0.42,1.351,-0.198
2026-05-20 14:59:23.883,1172703339,2218883,2,0.90942,0.02856,0.41724,-1.534,-0.298,0.718
2026-05-20 14:59:23.083,1172702539,2219083,1,0.9729,-0.13794,0.48267,-0.496,1.443,-0.145
2026-05-20 14:59:23.083,1172702539,2219083,2,0.91724,0.02368,0.42114,-1.298,1.183,0.733
2026-05-20 14:59:23.318,1172702774,2219318,1,0.97119,-0.13135,0.47949,-0.954,1.45,-0.282
2026-05-20 14:59:23.318,1172702774,2219318,2,0.91187,0.02783,0.41699,-2.153,-0.641,0.145
2026-05-20 14:59:23.518,1172702974,2219518,1,0.97485,-0.13403,0.48315,-0.183,1.038,-0.382
2026-05-20 14:59:23.518,1172702974,2219518,2,0.91772,0.03613,0.42114,-1.069,1.099,0.45
2026-05-20 14:59:23.718,1172703174,2219718,1,0.97534,-0.13428,0.47534,-0.145,1.588,-0.443
2026-05-20 14:59:23.718,1172703174,2219718,2,0.90894,0.03662,0.41309,-0.328,0.733,0.924
2026-05-20 14:59:24.918,1172704374,2219918,1,0.97607,-0.13062,0.47388,-0.481,1.336,-0.168
2026-05-20 14:59:24.918,1172704374,2219918,2,0.90698,0.02734,0.41724,-1.573,-0.13,0.321
2026-05-20 14:59:24.118,1172703574,2220118,1,0.96924,-0.13501,0.48535,-0.382,1.42,-0.466
2026-05-20 14:59:24.118,1172703574,2220118,2,0.9104,0.03027,0.41821,-2.092,0.817,0.405
2026-05-20 14:59:24.318,1172703774,2220318,1,0.97168,-0.1377,0.48218,-0.618,1.321,-0.344
2026-05-20 14:59:24.318,1172703774,2220318,2,0.91333,0.03125,0.41699,-1.305,0.855,0.702
2026-05-20 14:59:24.518,1172703974,2220518,1,0.96777,-0.13257,0.49048,-0.389,0.87,-0.252
2026-05-20 14:59:24.518,1172703974,2220518,2,0.91162,0.02295,0.41968,-1.641,0.542,0.351
2026-05-20 14:59:24.718,1172704174,2220718,1,0.9729,-0.13843,0.4856,-0.496,1.29,-0.405
2026-05-20 14:59:24.718,1172704174,2220718,2,0.91309,0.02808,0.42285,-1.58,0.023,0.595
2026-05-20 14:59:25.918,1172705374,2220918,1,0.97314,-0.14111,0.49463,-0.618,1.756,-0.359
2026-05-20 14:59:25.918,1172705374,2220918,2,0.91357,0.02319,0.427,-1.267,0.275,0.947
2026-05-20 14:59:25.118,1172704574,2221118,1,0.97339,-0.13037,0.4895,-0.466,1.679,-1.137
2026-05-20 14:59:25.118,1172704574,2221118,2,0.91016,0.02588,0.42456,-1.542,0.16,0.588
2026-05-20 14:59:25.318,1172704774,2221318,1,0.96997,-0.14282,0.48438,-0.237,1.336,-0.351
2026-05-20 14:59:25.318,1172704774,2221318,2,0.90601,0.02905,0.41162,-1.992,-1.0,-0.015
2026-05-20 14:59:25.518,1172704974,2221518,1,0.97363,-0.1377,0.47534,-0.519,1.672,-0.42
2026-05-20 14:59:25.518,1172704974,2221518,2,0.9082,0.02881,0.41528,-1.008,0.74,0.725
2026-05-20 14:59:25.718,1172705174,2221718,1,0.96777,-0.13525,0.48853,-0.282,1.389,-0.26
2026-05-20 14:59:25.718,1172705174,2221718,2,0.91333,0.0271,0.40894,-1.565,-0.206,0.206
2026-05-20 14:59:26.918,1172706374,2221918,1,0.97021,-0.13721,0.47852,-0.679,1.382,-0.397
2026-05-20 14:59:26.918,1172706374,2221918,2,0.9104,0.03076,0.42163,-1.176,0.267,0.55
2026-05-20 14:59:26.118,1172705574,2222118,1,0.97437,-0.13452,0.48145,-0.679,1.344,-0.565
2026-05-20 14:59:26.118,1172705574,2222118,2,0.90894,0.03052,0.42529,-1.122,0.794,0.618
2026-05-20 14:59:26.318,1172705774,2222318,1,0.97461,-0.13306,0.48828,-0.137,1.924,-0.351
2026-05-20 14:59:26.318,1172705774,2222318,2,0.90747,0.02393,0.41113,-1.206,0.687,0.397
2026-05-20 14:59:26.518,1172705974,2222518,1,0.97021,-0.13623,0.48584,-0.458,1.435,-0.504
2026-05-20 14:59:26.518,1172705974,2222518,2,0.91528,0.03174,0.41138,-1.588,0.84,0.489
2026-05-20 14:59:26.718,1172706174,2222718,1,0.97559,-0.13306,0.48071,-0.786,1.053,0.023
2026-05-20 14:59:26.718,1172706174,2222718,2,0.9082,0.02173,0.43066,-3.023,0.221,0.58
2026-05-20 14:59:27.941,1172707397,2222941,1,0.96851,-0.13965,0.47925,-0.336,0.878,0.939
2026-05-20 14:59:27.941,1172707397,2222941,2,0.90747,0.02783,0.40259,-2.252,3.397,0.351
2026-05-20 14:59:27.165,1172706621,2223165,1,0.9751,-0.13428,0.47974,-0.695,0.626,-0.557
2026-05-20 14:59:27.165,1172706621,2223165,2,0.90601,0.02319,0.44092,-1.931,-0.191,1.015
2026-05-20 14:59:27.365,1172706821,2223365,1,0.96729,-0.13794,0.48364,0.092,1.359,-0.58
2026-05-20 14:59:27.365,1172706821,2223365,2,0.91089,0.02124,0.43188,-1.298,1.26,1.038
2026-05-20 14:59:27.565,1172707021,2223565,1,0.96509,-0.14526,0.47852,-1.412,1.176,-0.405
2026-05-20 14:59:27.565,1172707021,2223565,2,0.90771,0.02515,0.42529,-0.137,0.603,-0.962
2026-05-20 14:59:28.765,1172708221,2223765,1,0.97241,-0.13843,0.48145,-0.847,1.962,-1.74
2026-05-20 14:59:28.765,1172708221,2223765,2,0.9082,0.03052,0.41846,-1.55,-1.084,0.695
2026-05-20 14:59:28.965,1172708421,2223965,1,0.9729,-0.13281,0.48218,0.13,1.534,0.13
2026-05-20 14:59:28.965,1172708421,2223965,2,0.91626,0.03345,0.41382,1.244,1.359,0.786
2026-05-20 14:59:28.165,1172707621,2224165,1,0.96729,-0.13965,0.48462,-0.519,2.137,0.031
2026-05-20 14:59:28.165,1172707621,2224165,2,0.89941,0.02832,0.4126,-1.649,0.29,0.809
2026-05-20 14:59:28.365,1172707821,2224365,1,0.97388,-0.13794,0.48877,-0.595,1.733,-0.275
2026-05-20 14:59:28.365,1172707821,2224365,2,0.90991,0.03027,0.41357,-1.389,-0.527,0.405
2026-05-20 14:59:28.565,1172708021,2224565,1,0.96997,-0.13574,0.4834,-0.595,1.595,-0.084
2026-05-20 14:59:28.565,1172708021,2224565,2,0.90845,0.02832,0.41187,-1.794,-0.046,0.153
2026-05-20 14:59:29.765,1172709221,2224765,1,0.97095,-0.13818,0.48389,-0.901,1.29,-0.756
2026-05-20 14:59:29.765,1172709221,2224765,2,0.90747,0.03003,0.40967,-1.641,-0.275,0.389
2026-05-20 14:59:29.985,1172709441,2224985,1,0.96582,-0.1355,0.4873,-0.397,1.305,-0.298
2026-05-20 14:59:29.985,1172709441,2224985,2,0.91357,0.03125,0.4248,-2.282,1.344,0.427
2026-05-20 14:59:29.185,1172708641,2225185,1,0.97192,-0.14014,0.48755,-0.229,1.519,-0.115
2026-05-20 14:59:29.185,1172708641,2225185,2,0.90991,0.02563,0.41992,-0.794,1.603,1.046
2026-05-20 14:59:29.385,1172708841,2225385,1,0.96313,-0.13525,0.48926,0.092,1.534,-0.168
2026-05-20 14:59:29.385,1172708841,2225385,2,0.89746,0.01904,0.42505,-1.122,1.901,1.145
2026-05-20 14:59:29.585,1172709041,2225585,1,0.96655,-0.13647,0.48657,0.015,1.244,-0.061
2026-05-20 14:59:29.585,1172709041,2225585,2,0.90332,0.0332,0.42725,-1.786,0.519,0.313
2026-05-20 14:59:30.785,1172710241,2225785,1,0.97021,-0.13599,0.4812,-0.366,1.168,-0.603
2026-05-20 14:59:30.785,1172710241,2225785,2,0.90283,0.02124,0.42407,-1.931,0.023,0.198
2026-05-20 14:59:30.985,1172710441,2225985,1,0.97754,-0.13403,0.4812,-0.832,1.023,-0.45
2026-05-20 14:59:30.985,1172710441,2225985,2,0.90503,0.02808,0.41089,-1.519,0.595,0.611
2026-05-20 14:59:30.185,1172709641,2226185,1,0.97607,-0.13989,0.48633,-0.786,1.565,-0.557
2026-05-20 14:59:30.185,1172709641,2226185,2,0.90454,0.02881,0.43384,-0.664,0.351,0.748
2026-05-20 14:59:30.385,1172709841,2226385,1,0.96899,-0.13574,0.48242,-0.634,1.466,-0.412
2026-05-20 14:59:30.385,1172709841,2226385,2,0.90601,0.03223,0.41748,-0.885,-0.168,0.366
2026-05-20 14:59:30.585,1172710041,2226585,1,0.96729,-0.14209,0.49072,-0.847,1.664,-0.473
2026-05-20 14:59:30.585,1172710041,2226585,2,0.90991,0.02563,0.43164,-0.725,0.137,0.611
2026-05-20 14:59:31.785,1172711241,2226785,1,0.97266,-0.1355,0.48022,-0.702,1.702,-0.45
2026-05-20 14:59:31.785,1172711241,2226785,2,0.90918,0.02173,0.41797,-0.443,-0.557,0.702
2026-05-20 14:59:31.985,1172711441,2226985,1,0.96777,-0.13965,0.48706,-0.527,1.557,-0.74
2026-05-20 14:59:31.985,1172711441,2226985,2,0.91504,0.02466,0.41333,-0.557,-0.168,0.458
2026-05-20 14:59:31.185,1172710641,2227185,1,0.9624,-0.13794,0.50269,-0.382,1.42,-0.45
2026-05-20 14:59:31.185,1172710641,2227185,2,0.9082,0.02417,0.41992,-1.916,0.359,0.595
2026-05-20 14:59:31.385,1172710841,2227385,1,0.96484,-0.1311,0.49146,-0.389,0.954,-0.237
2026-05-20 14:59:31.385,1172710841,2227385,2,0.91211,0.02588,0.40918,-0.908,0.649,0.863
2026-05-20 14:59:31.585,1172711041,2227585,1,0.97046,-0.13721,0.48462,-0.427,0.702,-0.313
2026-05-20 14:59:31.585,1172711041,2227585,2,0.91138,0.03076,0.41772,-1.725,1.649,0.496
2026-05-20 14:59:32.785,1172712241,2227785,1,0.96899,-0.12866,0.48486,-0.115,1.618,-0.107
2026-05-20 14:59:32.785,1172712241,2227785,2,0.91772,0.02954,0.4165,-1.641,1.496,0.863
2026-05-20 14:59:32.985,1172712441,2227985,1,0.96753,-0.12988,0.50073,0.13,1.099,-0.031
2026-05-20 14:59:32.985,1172712441,2227985,2,0.90381,0.02539,0.41846,-1.351,1.0,0.443
2026-05-20 14:59:32.185,1172711641,2228185,1,0.9707,-0.13062,0.48511,-0.473,0.573,0.71
2026-05-20 14:59:32.185,1172711641,2228185,2,0.90332,0.03247,0.42505,0.191,1.885,1.397
2026-05-20 14:59:32.385,1172711841,2228385,1,0.96899,-0.13403,0.48242,-0.252,1.122,0.015
2026-05-20 14:59:32.385,1172711841,2228385,2,0.90381,0.03271,0.4209,-0.336,0.878,0.733
2026-05-20 14:59:32.585,1172712041,2228585,1,0.96851,-0.1394,0.48804,-0.45,1.718,-0.901
2026-05-20 14:59:32.585,1172712041,2228585,2,0.90356,0.02539,0.42749,0.305,1.046,1.069
2026-05-20 14:59:33.821,1172713277,2228820,1,0.9729,-0.13306,0.4856,-0.237,1.481,-0.13
2026-05-20 14:59:33.821,1172713277,2228820,2,0.90137,0.03247,0.41724,-1.298,0.42,0.687
2026-05-20 14:59:33.020,1172712476,2229020,1,0.96777,-0.13623,0.48828,-0.664,1.191,-0.275
2026-05-20 14:59:33.020,1172712476,2229020,2,0.90674,0.03198,0.41968,-1.267,-0.359,0.313
2026-05-20 14:59:33.220,1172712676,2229220,1,0.96606,-0.1377,0.49854,-0.42,1.359,-0.229
2026-05-20 14:59:33.220,1172712676,2229220,2,0.9104,0.03247,0.41699,-1.412,0.16,0.427
2026-05-20 14:59:33.420,1172712876,2229420,1,0.96704,-0.14185,0.48315,-0.634,1.275,-0.374
2026-05-20 14:59:33.420,1172712876,2229420,2,0.90747,0.03369,0.41016,-0.779,0.336,0.374
2026-05-20 14:59:33.620,1172713076,2229620,1,0.96484,-0.13843,0.49756,-0.153,1.626,-0.71
2026-05-20 14:59:33.620,1172713076,2229620,2,0.90869,0.02979,0.42358,-0.313,1.214,0.511
2026-05-20 14:59:34.820,1172714276,2229820,1,0.96753,-0.13574,0.49609,-0.435,1.252,-0.55
2026-05-20 14:59:34.820,1172714276,2229820,2,0.91113,0.0376,0.42261,-1.115,1.557,1.015
2026-05-20 14:59:34.020,1172713476,2230020,1,0.96997,-0.14307,0.48999,-0.092,1.122,-0.153
2026-05-20 14:59:34.020,1172713476,2230020,2,0.91333,0.03003,0.40845,-1.802,2.664,0.55
2026-05-20 14:59:34.220,1172713676,2230220,1,0.96655,-0.13623,0.49609,-0.267,1.443,0.031
2026-05-20 14:59:34.220,1172713676,2230220,2,0.90503,0.03174,0.42627,-1.443,0.962,0.847
2026-05-20 14:59:34.420,1172713876,2230420,1,0.96802,-0.13916,0.49097,0.084,1.45,-0.565
2026-05-20 14:59:34.420,1172713876,2230420,2,0.91187,0.03052,0.4082,-0.901,0.847,0.565
2026-05-20 14:59:34.620,1172714076,2230620,1,0.97119,-0.13525,0.48242,-0.069,0.794,-0.405
2026-05-20 14:59:34.620,1172714076,2230620,2,0.90576,0.0332,0.42798,-0.519,1.183,0.756
2026-05-20 14:59:35.820,1172715276,2230820,1,0.97192,-0.14185,0.49536,-0.641,1.473,-0.42
2026-05-20 14:59:35.820,1172715276,2230820,2,0.91211,0.02832,0.42725,-1.198,0.374,0.71
2026-05-20 14:59:35.020,1172714476,2231020,1,0.97095,-0.13672,0.49023,-0.168,1.282,-0.26
2026-05-20 14:59:35.020,1172714476,2231020,2,0.90381,0.03027,0.41797,-0.87,-0.71,0.42
2026-05-20 14:59:35.220,1172714676,2231220,1,0.96997,-0.14185,0.49463,-0.42,1.557,-0.328
2026-05-20 14:59:35.220,1172714676,2231220,2,0.90918,0.03223,0.4165,-0.015,0.725,0.603
2026-05-20 14:59:35.420,1172714876,2231420,1,0.96777,-0.1377,0.49438,-0.908,1.321,-0.641
2026-05-20 14:59:35.420,1172714876,2231420,2,0.90845,0.03491,0.41992,-1.16,0.29,0.595
2026-05-20 14:59:35.620,1172715076,2231620,1,0.96216,-0.12891,0.50317,-1.611,0.443,0.053
2026-05-20 14:59:35.620,1172715076,2231620,2,0.90698,0.02637,0.41553,-1.008,-0.374,0.298
2026-05-20 14:59:36.820,1172716276,2231820,1,0.96924,-0.14478,0.50366,-0.115,0.481,-0.305
2026-05-20 14:59:36.820,1172716276,2231820,2,0.90601,0.03003,0.43359,-0.42,1.435,0.763
2026-05-20 14:59:36.020,1172715476,2232020,1,0.9707,-0.13647,0.48804,-0.405,1.466,-0.504
2026-05-20 14:59:36.020,1172715476,2232020,2,0.90039,0.03564,0.40967,-0.366,1.015,1.053
2026-05-20 14:59:36.220,1172715676,2232220,1,0.97021,-0.13965,0.50317,-0.458,1.275,-0.16
2026-05-20 14:59:36.220,1172715676,2232220,2,0.90527,0.03198,0.4231,-0.298,0.557,0.863
2026-05-20 14:59:36.420,1172715876,2232420,1,0.96069,-0.13257,0.48438,-1.115,0.954,-0.252
2026-05-20 14:59:36.420,1172715876,2232420,2,0.90845,0.02515,0.42163,-1.954,0.962,0.351
2026-05-20 14:59:36.646,1172716102,2232646,1,0.97363,-0.13379,0.49365,-0.038,1.435,-0.282
2026-05-20 14:59:36.646,1172716102,2232646,2,0.9043,0.02954,0.42212,-1.702,1.947,1.061
2026-05-20 14:59:37.846,1172717302,2232846,1,0.96216,-0.13721,0.4917,0.221,1.046,-0.145
2026-05-20 14:59:37.846,1172717302,2232846,2,0.90747,0.03491,0.43506,-1.702,0.344,0.725
2026-05-20 14:59:37.046,1172716502,2233046,1,0.95825,-0.13892,0.4917,0.626,0.931,0.076
2026-05-20 14:59:37.046,1172716502,2233046,2,0.90552,0.02637,0.42114,-0.351,1.611,0.656
2026-05-20 14:59:37.246,1172716702,2233246,1,0.96289,-0.13159,0.49219,-1.481,1.099,-0.603
2026-05-20 14:59:37.246,1172716702,2233246,2,0.90601,0.01978,0.42993,-1.481,-0.511,0.321
2026-05-20 14:59:37.446,1172716902,2233446,1,0.96997,-0.13306,0.49365,0.038,1.298,-0.061
2026-05-20 14:59:37.446,1172716902,2233446,2,0.90674,0.03223,0.427,-1.313,0.374,0.901
2026-05-20 14:59:37.646,1172717102,2233646,1,0.97021,-0.13892,0.49585,-1.382,1.221,-0.328
2026-05-20 14:59:37.646,1172717102,2233646,2,0.90601,0.02734,0.42212,-0.443,0.496,0.672
2026-05-20 14:59:38.846,1172718302,2233846,1,0.96558,-0.13037,0.48267,-0.023,2.0,-0.511
2026-05-20 14:59:38.846,1172718302,2233846,2,0.89697,0.03125,0.42285,-2.893,-2.489,0.069
2026-05-20 14:59:38.046,1172717502,2234046,1,0.97363,-0.14185,0.48975,-0.443,1.084,0.389
2026-05-20 14:59:38.046,1172717502,2234046,2,0.90063,0.03198,0.4375,2.511,-2.397,1.275
2026-05-20 14:59:38.246,1172717702,2234246,1,0.97095,-0.15015,0.48999,-1.702,1.344,-1.038
2026-05-20 14:59:38.246,1172717702,2234246,2,0.9126,0.02515,0.42505,-2.42,-2.702,-0.198
2026-05-20 14:59:38.446,1172717902,2234446,1,0.96289,-0.1582,0.52148,-6.313,-1.672,-2.221
2026-05-20 14:59:38.446,1172717902,2234446,2,0.91943,0.02856,0.40234,-4.733,-2.771,-3.618
2026-05-20 14:59:38.646,1172718102,2234646,1,0.9668,-0.16016,0.48511,-1.603,-1.504,-3.557
2026-05-20 14:59:38.646,1172718102,2234646,2,0.91895,0.03906,0.41235,7.863,1.519,-8.695
2026-05-20 14:59:39.846,1172719302,2234846,1,0.96484,-0.13745,0.49146,12.931,-0.153,12.267
2026-05-20 14:59:39.846,1172719302,2234846,2,0.87817,0.15088,0.42554,17.115,6.855,-1.183
2026-05-20 14:59:39.046,1172718502,2235046,1,0.98828,-0.12891,0.46606,-2.802,5.053,-0.634
2026-05-20 14:59:39.046,1172718502,2235046,2,0.92407,0.14111,0.33252,-5.695,-9.061,-3.252
2026-05-20 14:59:39.246,1172718702,2235246,1,1.00537,-0.11768,0.49341,5.527,-0.832,-3.702
2026-05-20 14:59:39.246,1172718702,2235246,2,0.8999,0.13086,0.38916,-5.443,-6.534,1.275
2026-05-20 14:59:39.446,1172718902,2235446,1,0.99927,-0.10645,0.47363,-2.435,-2.122,-7.107
2026-05-20 14:59:39.446,1172718902,2235446,2,0.95288,0.04004,0.39502,-13.733,-13.565,4.053
2026-05-20 14:59:39.646,1172719102,2235646,1,0.98633,-0.13379,0.44385,1.305,0.573,2.321
2026-05-20 14:59:39.646,1172719102,2235646,2,0.94287,0.06567,0.36084,1.397,5.244,0.481
2026-05-20 14:59:40.846,1172720302,2235846,1,0.98145,-0.13696,0.46387,-1.107,0.588,2.534
2026-05-20 14:59:40.846,1172720302,2235846,2,0.92261,0.07764,0.37451,-6.992,4.885,-2.252
2026-05-20 14:59:40.046,1172719502,2236046,1,0.97949,-0.13062,0.44751,-6.328,2.214,-0.244
2026-05-20 14:59:40.046,1172719502,2236046,2,0.9209,0.07251,0.3855,-5.611,0.153,-1.931
2026-05-20 14:59:40.246,1172719702,2236246,1,0.9873,-0.11377,0.45898,1.405,4.313,-0.809
2026-05-20 14:59:40.246,1172719702,2236246,2,0.92554,0.07642,0.38647,-0.458,0.29,0.87
2026-05-20 14:59:43.154,1172722610,2239154,1,0.97632,-0.11841,0.46484,-0.237,1.687,-0.519
2026-05-20 14:59:43.154,1172722610,2239154,2,0.92383,0.07056,0.37891,-1.412,-0.099,0.237
2026-05-20 14:59:43.368,1172722824,2239367,1,0.98389,-0.1228,0.46606,-0.504,1.137,-0.275
2026-05-20 14:59:43.368,1172722824,2239367,2,0.92554,0.07568,0.37598,-1.855,0.168,0.351
2026-05-20 14:59:43.567,1172723023,2239567,1,0.97925,-0.12622,0.45581,-0.397,1.489,-0.489
2026-05-20 14:59:43.567,1172723023,2239567,2,0.92041,0.06519,0.38306,-1.435,1.13,0.618
2026-05-20 14:59:44.767,1172724223,2239767,1,0.98877,-0.11841,0.46118,-0.275,1.71,-0.198
2026-05-20 14:59:44.767,1172724223,2239767,2,0.92725,0.07153,0.38452,-0.786,1.046,0.573
2026-05-20 14:59:44.967,1172724423,2239967,1,0.98511,-0.11719,0.45532,0.122,1.328,-0.473
2026-05-20 14:59:44.967,1172724423,2239967,2,0.92578,0.07031,0.38159,-1.244,0.802,1.466
2026-05-20 14:59:44.187,1172723643,2240187,1,0.98169,-0.12134,0.46729,-0.244,1.076,-0.252
2026-05-20 14:59:44.187,1172723643,2240187,2,0.92456,0.06958,0.38037,-1.656,-0.305,1.069
2026-05-20 14:59:44.387,1172723843,2240387,1,0.97974,-0.11938,0.45801,-0.45,0.939,0.504
2026-05-20 14:59:44.387,1172723843,2240387,2,0.92554,0.06592,0.38989,-1.191,0.443,0.511
2026-05-20 14:59:44.587,1172724043,2240587,1,0.98022,-0.11914,0.45947,-0.527,1.13,-0.412
2026-05-20 14:59:44.587,1172724043,2240587,2,0.92993,0.06885,0.39014,-0.672,0.053,0.634
2026-05-20 14:59:45.787,1172725243,2240787,1,0.98022,-0.11719,0.46729,-0.626,1.092,-0.168
2026-05-20 14:59:45.787,1172725243,2240787,2,0.92065,0.06787,0.39502,-1.023,0.252,0.756
2026-05-20 14:59:45.987,1172725443,2240987,1,0.98584,-0.1167,0.47241,-0.26,1.756,-0.26
2026-05-20 14:59:45.987,1172725443,2240987,2,0.92358,0.0686,0.38135,-0.885,0.824,0.779
2026-05-20 14:59:45.187,1172724643,2241187,1,0.98193,-0.1189,0.47241,-0.496,0.992,-0.359
2026-05-20 14:59:45.187,1172724643,2241187,2,0.92188,0.07031,0.38232,-1.29,0.16,0.389
2026-05-20 14:59:45.387,1172724843,2241387,1,0.97754,-0.12134,0.45972,-0.481,1.626,-0.473
2026-05-20 14:59:45.387,1172724843,2241387,2,0.92749,0.07373,0.37915,-1.603,0.137,0.366
2026-05-20 14:59:45.587,1172725043,2241587,1,0.97656,-0.12085,0.46191,-0.168,1.573,-0.527
2026-05-20 14:59:45.587,1172725043,2241587,2,0.92725,0.07031,0.38354,-0.794,0.832,0.656
2026-05-20 14:59:46.840,1172726296,2241840,1,0.97681,-0.12036,0.46729,-0.298,1.519,-0.267
2026-05-20 14:59:46.840,1172726296,2241840,2,0.92798,0.06738,0.37891,-1.695,0.092,0.557
2026-05-20 14:59:46.513,1172725969,2242513,1,0.9834,-0.12524,0.46802,-0.252,1.573,0.351
2026-05-20 14:59:46.513,1172725969,2242513,2,0.92383,0.06567,0.38843,-1.168,0.176,0.611
2026-05-20 14:59:47.976,1172727432,2242976,1,0.98145,-0.12402,0.46143,-0.901,1.023,-0.214
2026-05-20 14:59:47.976,1172727432,2242976,2,0.92139,0.06885,0.39233,-1.237,-0.397,0.55
2026-05-20 14:59:47.245,1172726701,2243245,1,0.98096,-0.12646,0.46729,-0.374,1.374,-0.58
2026-05-20 14:59:47.245,1172726701,2243245,2,0.91846,0.07104,0.38574,-1.237,-0.076,0.435
2026-05-20 14:59:47.445,1172726901,2243445,1,0.97559,-0.13013,0.46802,-0.542,1.473,-0.122
2026-05-20 14:59:47.445,1172726901,2243445,2,0.92114,0.06812,0.37769,-0.45,0.092,0.504
2026-05-20 14:59:47.645,1172727101,2243645,1,0.9834,-0.12817,0.45898,-0.634,1.122,-0.481
2026-05-20 14:59:47.645,1172727101,2243645,2,0.92383,0.06714,0.39136,0.137,1.145,0.603
2026-05-20 14:59:48.845,1172728301,2243845,1,0.97778,-0.1272,0.46826,1.359,3.489,-0.336
2026-05-20 14:59:48.845,1172728301,2243845,2,0.91211,0.07935,0.38525,-0.756,1.344,0.634
2026-05-20 14:59:48.397,1172727853,2244397,1,0.98022,-0.12085,0.47729,-0.588,0.496,-0.427
2026-05-20 14:59:48.397,1172727853,2244397,2,0.92554,0.07104,0.39233,-2.794,1.359,1.023
2026-05-20 14:59:48.597,1172728053,2244597,1,0.97534,-0.13159,0.47119,-0.969,0.832,0.122
2026-05-20 14:59:48.597,1172728053,2244597,2,0.91577,0.06641,0.37939,-2.16,1.0,1.176
2026-05-20 14:59:49.797,1172729253,2244797,1,0.97754,-0.12524,0.4751,-0.504,1.405,-0.176
2026-05-20 14:59:49.797,1172729253,2244797,2,0.92163,0.07397,0.39502,-4.267,-1.725,0.534
2026-05-20 14:59:49.997,1172729453,2244997,1,0.97412,-0.13062,0.46094,-0.122,0.901,-0.069
2026-05-20 14:59:49.997,1172729453,2244997,2,0.93042,0.05493,0.38452,-0.893,1.046,0.527
2026-05-20 14:59:49.197,1172728653,2245197,1,0.97095,-0.1311,0.46484,0.046,1.397,-0.359
2026-05-20 14:59:49.197,1172728653,2245197,2,0.91309,0.06152,0.39038,-1.214,0.214,
2026-05-20 14:59:49.397,1172728853,2245397,1,0.97241,-0.12891,0.47241,-1.168,2.305,-0.595
2026-05-20 14:59:49.397,1172728853,2245397,2,0.92139,0.06616,0.38599,-2.221,-0.969,-0.214
2026-05-20 14:59:49.597,1172729053,2245597,1,0.97852,-0.12891,0.47461,-0.962,0.252,-0.733
2026-05-20 14:59:49.597,1172729053,2245597,2,0.92822,0.06445,0.38818,-1.794,-0.229,0.092
2026-05-20 14:59:50.797,1172730253,2245797,1,0.9812,-0.12012,0.46802,-0.779,1.763,-0.382
2026-05-20 14:59:50.797,1172730253,2245797,2,0.92041,0.06934,0.38965,-1.099,0.122,0.45
2026-05-20 14:59:50.997,1172730453,2245997,1,0.98047,-0.12476,0.46143,-0.305,2.176,-0.16
2026-05-20 14:59:50.997,1172730453,2245997,2,0.92065,0.07373,0.38647,-1.466,-0.084,0.42
2026-05-20 14:59:50.197,1172729653,2246197,1,0.98413,-0.13208,0.47021,1.183,1.122,0.076
2026-05-20 14:59:50.197,1172729653,2246197,2,0.9209,0.07275,0.37891,0.794,0.931,0.901
2026-05-20 14:59:50.397,1172729853,2246397,1,0.97485,-0.1311,0.47705,-1.122,1.183,
2026-05-20 14:59:50.397,1172729853,2246397,2,0.91797,0.07837,0.39575,-0.244,0.84,-0.221
2026-05-20 14:59:50.597,1172730053,2246597,1,0.98096,-0.11548,0.47241,-2.168,1.679,-1.282
2026-05-20 14:59:50.597,1172730053,2246597,2,0.92163,0.07446,0.38647,-1.71,-2.092,0.16
2026-05-20 14:59:51.797,1172731253,2246797,1,0.98193,-0.1189,0.48071,0.153,0.481,-0.863
2026-05-20 14:59:51.797,1172731253,2246797,2,0.92529,0.07227,0.38623,-0.924,1.939,1.687
2026-05-20 14:59:51.997,1172731453,2246997,1,0.97412,-0.1333,0.46826,1.176,1.802,0.275
2026-05-20 14:59:51.997,1172731453,2246997,2,0.9231,0.06763,0.38696,-0.679,2.076,0.366
2026-05-20 14:59:51.197,1172730653,2247197,1,0.97949,-0.13452,0.46875,-0.779,1.771,-0.198
2026-05-20 14:59:51.197,1172730653,2247197,2,0.91797,0.07056,0.39307,-0.962,0.962,0.588
2026-05-20 14:59:51.397,1172730853,2247397,1,0.98145,-0.12793,0.46948,-0.817,1.267,-0.16
2026-05-20 14:59:51.397,1172730853,2247397,2,0.91943,0.06445,0.38403,-1.977,0.885,0.58
2026-05-20 14:59:51.597,1172731053,2247597,1,0.97656,-0.13379,0.46484,0.443,1.519,-0.084
2026-05-20 14:59:51.597,1172731053,2247597,2,0.92017,0.07178,0.3877,-0.817,0.588,0.641
2026-05-20 14:59:54.406,1172733862,2250406,1,0.97998,-0.12622,0.46729,-0.603,1.733,-0.511
2026-05-20 14:59:54.406,1172733862,2250406,2,0.92212,0.06055,0.39355,-1.137,0.641,0.504
2026-05-20 14:59:54.606,1172734062,2250606,1,0.98242,-0.13452,0.47461,-0.55,1.168,-0.588
2026-05-20 14:59:54.606,1172734062,2250606,2,0.92358,0.06641,0.38867,-1.046,-0.092,0.313
2026-05-20 14:59:55.806,1172735262,2250806,1,0.97827,-0.12988,0.46509,-0.359,1.786,-0.695
2026-05-20 14:59:55.806,1172735262,2250806,2,0.91406,0.06763,0.39014,-0.267,-0.305,0.26
2026-05-20 14:59:55.006,1172734462,2251006,1,0.97607,-0.12646,0.48096,-0.611,1.115,-0.664
2026-05-20 14:59:55.006,1172734462,2251006,2,0.91968,0.07129,0.40332,-0.939,0.351,0.458
2026-05-20 14:59:55.206,1172734662,2251206,1,0.98242,-0.11914,0.4729,-0.405,1.557,-0.237
2026-05-20 14:59:55.206,1172734662,2251206,2,0.92139,0.0686,0.39282,-1.206,0.435,0.695
2026-05-20 14:59:55.406,1172734862,2251406,1,0.96948,-0.12866,0.46753,-0.634,1.588,-0.634
2026-05-20 14:59:55.406,1172734862,2251406,2,0.91968,0.073,0.3894,-1.672,0.229,0.748
2026-05-20 14:59:58.470,1172737926,2254470,1,0.9668,-0.12305,0.47632,-0.115,0.534,-0.084
2026-05-20 14:59:58.470,1172737926,2254470,2,0.91748,0.06519,0.40015,-2.489,0.427,0.664
2026-05-20 14:59:58.670,1172738126,2254670,1,0.97705,-0.13354,0.48511,-0.168,1.466,-0.023
2026-05-20 14:59:58.670,1172738126,2254670,2,0.91504,0.07324,0.39185,0.053,1.45,1.023
2026-05-20 14:59:59.870,1172739326,2254870,1,0.97754,-0.13232,0.47314,-0.58,0.893,-0.374
2026-05-20 14:59:59.870,1172739326,2254870,2,0.92432,0.06689,0.3916,-1.328,1.397,0.664
2026-05-20 14:59:59.070,1172738526,2255070,1,0.9751,-0.125,0.48047,-0.466,1.496,-0.435
2026-05-20 14:59:59.070,1172738526,2255070,2,0.91846,0.06494,0.39063,-1.267,0.695,0.656
2026-05-20 14:59:59.270,1172738726,2255270,1,0.97827,-0.12378,0.47852,-0.397,0.992,-0.084
2026-05-20 14:59:59.270,1172738726,2255270,2,0.91455,0.06323,0.39478,-0.87,0.198,0.634
2026-05-20 14:59:59.470,1172738926,2255470,1,0.97852,-0.13208,0.47485,-0.405,1.023,-0.076
2026-05-20 14:59:59.470,1172738926,2255470,2,0.91895,0.06543,0.3894,-1.122,0.412,0.481
2026-05-20 14:59:59.670,1172739126,2255670,1,0.97729,-0.12598,0.47119,-0.901,1.382,-0.374
2026-05-20 14:59:59.670,1172739126,2255670,2,0.92139,0.0625,0.39331,-1.359,0.374,0.412
2026-05-20 15:00:00.870,1172740326,2255870,1,0.97754,-0.12427,0.46362,-0.603,1.397,-0.336
2026-05-20 15:00:00.870,1172740326,2255870,2,0.92065,0.07715,0.39746,-0.977,-0.084,0.618
2026-05-20 15:00:00.070,1172739526,2256070,1,0.97729,-0.12646,0.47021,-0.802,0.702,-0.328
2026-05-20 15:00:00.070,1172739526,2256070,2,0.92725,0.06348,0.39746,-0.985,0.511,0.153
2026-05-20 15:00:00.270,1172739726,2256270,1,0.97876,-0.12207,0.47363,-1.038,1.817,-1.122
2026-05-20 15:00:00.270,1172739726,2256270,2,0.92383,0.06958,0.39722,-1.137,0.435,0.069
2026-05-20 15:00:00.470,1172739926,2256470,1,0.97632,-0.12183,0.47949,0.328,1.626,-0.198
2026-05-20 15:00:00.470,1172739926,2256470,2,0.92334,0.07568,0.3894,-0.763,0.954,0.885
2026-05-20 15:00:00.670,1172740126,2256670,1,0.97119,-0.12598,0.47607,-0.176,1.221,-0.008
2026-05-20 15:00:00.670,1172740126,2256670,2,0.91846,0.0647,0.39893,-2.137,-0.542,0.687
2026-05-20 15:00:01.870,1172741326,2256870,1,0.96875,-0.12891,0.47681,-0.069,1.031,-0.176
2026-05-20 15:00:01.870,1172741326,2256870,2,0.9231,0.06714,0.40869,-0.611,0.115,0.855
2026-05-20 15:00:01.070,1172740526,2257070,1,0.96167,-0.10571,0.4812,-11.435,-2.672,-2.237
2026-05-20 15:00:01.070,1172740526,2257070,2,0.91577,0.0603,0.37476,-17.45,-5.427,-2.336
2026-05-20 15:00:04.083,1172743539,2260082,1,0.9895,-0.12891,0.44141,-0.084,2.229,-0.244
2026-05-20 15:00:04.083,1172743539,2260082,2,0.91382,0.05518,0.40405,-1.45,0.397,0.916
2026-05-20 15:00:04.282,1172743738,2260282,1,0.99097,-0.12256,0.43896,0.618,1.13,-0.649
2026-05-20 15:00:04.282,1172743738,2260282,2,0.91333,0.04663,0.40234,-1.527,1.0,0.031
2026-05-20 15:00:04.482,1172743938,2260482,1,0.99487,-0.1189,0.44434,-1.351,2.023,-0.099
2026-05-20 15:00:04.482,1172743938,2260482,2,0.91626,0.05615,0.40576,-1.618,-0.099,0.725
2026-05-20 15:00:04.682,1172744138,2260682,1,0.98975,-0.1167,0.43799,-0.733,0.71,-0.084
2026-05-20 15:00:04.682,1172744138,2260682,2,0.91772,0.05078,0.39624,-1.023,-0.237,0.641
2026-05-20 15:00:05.882,1172745338,2260882,1,0.98389,-0.12915,0.45166,0.115,1.725,0.046
2026-05-20 15:00:05.882,1172745338,2260882,2,0.91846,0.05005,0.39893,-0.908,0.267,0.458
2026-05-20 15:00:05.082,1172744538,2261082,1,0.98022,-0.11743,0.4502,-0.618,1.702,-0.191
2026-05-20 15:00:05.082,1172744538,2261082,2,0.91113,0.05176,0.40015,-0.863,0.237,0.634
2026-05-20 15:00:05.282,1172744738,2261282,1,0.97925,-0.12622,0.45044,-0.42,1.099,-0.321
2026-05-20 15:00:05.282,1172744738,2261282,2,0.9187,0.05249,0.39746,-1.511,0.115,0.382
2026-05-20 15:00:05.482,1172744938,2261482,1,0.97534,-0.13013,0.45508,-1.481,-0.405,-0.206
2026-05-20 15:00:05.482,1172744938,2261482,2,0.91211,0.04517,0.43628,1.656,-1.183,2.733
2026-05-20 15:00:05.682,1172745138,2261682,1,0.9646,-0.13428,0.44312,1.595,-1.115,1.74
2026-05-20 15:00:05.682,1172745138,2261682,2,0.91797,0.05493,0.36694,-2.87,-7.786,-2.542
2026-05-20 15:00:06.882,1172746338,2261882,1,0.99951,-0.12231,0.43262,-1.351,1.145,-0.504
2026-05-20 15:00:06.882,1172746338,2261882,2,0.90649,0.05273,0.39038,-0.802,1.802,0.061
2026-05-20 15:00:06.082,1172745538,2262082,1,1.00146,-0.12573,0.45093,-5.389,4.802,-1.809
2026-05-20 15:00:06.082,1172745538,2262082,2,0.91797,0.05542,0.40625,0.076,1.634,1.382
2026-05-20 15:00:06.282,1172745738,2262282,1,0.99097,-0.12451,0.448,0.389,0.916,0.397
2026-05-20 15:00:06.282,1172745738,2262282,2,0.9126,0.06079,0.39697,-3.427,2.221,-0.756
2026-05-20 15:00:06.482,1172745938,2262482,1,0.98193,-0.12744,0.43408,1.305,0.809,0.733
2026-05-20 15:00:06.482,1172745938,2262482,2,0.91138,0.05493,0.3999,-1.603,0.389,0.466
2026-05-20 15:00:06.682,1172746138,2262682,1,0.99292,-0.12695,0.44067,-1.214,2.244,-0.55
2026-05-20 15:00:06.682,1172746138,2262682,2,0.91309,0.05518,0.40869,-1.458,-1.649,0.382
2026-05-20 15:00:07.882,1172747338,2262882,1,1.00952,-0.12183,0.43384,-0.855,1.435,-0.626
2026-05-20 15:00:07.882,1172747338,2262882,2,0.90723,0.05762,0.41357,-2.947,-4.656,1.45
2026-05-20 15:00:07.082,1172746538,2263082,1,0.9917,-0.14014,0.43433,-2.122,4.198,-2.687
2026-05-20 15:00:07.082,1172746538,2263082,2,0.91504,0.04907,0.38892,1.015,-1.779,-0.504
2026-05-20 15:00:07.282,1172746738,2263282,1,0.99219,-0.12012,0.44019,-0.809,1.267,-1.092
2026-05-20 15:00:07.282,1172746738,2263282,2,0.9209,0.05762,0.39673,-2.099,1.962,0.298
2026-05-20 15:00:07.482,1172746938,2263482,1,0.98828,-0.12158,0.44629,-0.802,2.221,-0.664
2026-05-20 15:00:07.482,1172746938,2263482,2,0.91699,0.05981,0.38867,-1.321,-0.107,-0.267
2026-05-20 15:00:07.682,1172747138,2263682,1,0.9873,-0.11157,0.44507,0.832,1.412,-0.374
2026-05-20 15:00:07.682,1172747138,2263682,2,0.92773,0.05444,0.37939,-5.221,1.763,-0.855
2026-05-20 15:00:08.882,1172748338,2263882,1,0.98096,-0.12549,0.44604,-0.221,1.344,-0.168
2026-05-20 15:00:08.882,1172748338,2263882,2,0.91187,0.05981,0.39429,-1.672,-0.008,0.29
2026-05-20 15:00:08.082,1172747538,2264082,1,0.99097,-0.12085,0.43457,-0.267,1.427,-0.374
2026-05-20 15:00:08.082,1172747538,2264082,2,0.91333,0.05298,0.40259,0.389,0.626,1.069
2026-05-20 15:00:08.282,1172747738,2264282,1,0.98975,-0.12842,0.45557,-0.626,2.405,-0.244
2026-05-20 15:00:08.282,1172747738,2264282,2,0.92139,0.06079,0.40942,-1.305,0.206,0.802
2026-05-20 15:00:08.482,1172747938,2264482,1,0.98389,-0.12207,0.45239,-0.634,1.069,-0.168
2026-05-20 15:00:08.482,1172747938,2264482,2,0.91992,0.05054,0.41626,-1.344,0.313,0.74
2026-05-20 15:00:08.682,1172748138,2264682,1,0.98877,-0.11475,0.45142,-0.26,1.298,-0.42
2026-05-20 15:00:08.682,1172748138,2264682,2,0.91968,0.05615,0.40234,-1.664,0.145,0.458
2026-05-20 15:00:12.856,1172752312,2267856,1,0.96387,-0.15405,0.60449,-9.0,17.466,-0.916
2026-05-20 15:00:12.856,1172752312,2267856,2,1.21948,0.09399,0.34619,-12.351,18.748,-21.458
2026-05-20 15:00:12.056,1172751512,2268056,1,0.97046,-0.14746,0.56689,1.985,0.046,-3.664
2026-05-20 15:00:12.056,1172751512,2268056,2,1.0166,0.03857,0.1543,0.702,-12.198,-0.321
2026-05-20 15:00:12.256,1172751712,2268256,1,0.91479,-0.14502,0.57544,-3.71,-0.71,1.145
2026-05-20 15:00:12.256,1172751712,2268256,2,0.96973,0.04224,0.2522,2.351,4.588,0.809
2026-05-20 15:00:12.456,1172751912,2268456,1,0.91333,-0.12915,0.59619,0.779,3.214,0.145
2026-05-20 15:00:12.456,1172751912,2268456,2,0.97925,0.05566,0.23804,1.031,0.779,0.359
2026-05-20 15:00:15.405,1172754861,2271405,1,0.91162,-0.14087,0.59277,-0.053,1.351,-0.275
2026-05-20 15:00:15.405,1172754861,2271405,2,0.97852,0.03931,0.24829,1.412,0.069,0.863
2026-05-20 15:00:15.695,1172755151,2271695,1,0.91479,-0.14746,0.59473,-0.328,1.198,-0.305
2026-05-20 15:00:15.695,1172755151,2271695,2,0.97559,0.05127,0.24463,-2.13,-0.244,0.542
2026-05-20 15:00:16.895,1172756351,2271895,1,0.91748,-0.14282,0.59302,-0.626,1.511,-0.573
2026-05-20 15:00:16.895,1172756351,2271895,2,0.98145,0.04663,0.24585,-2.359,0.771,-0.031
2026-05-20 15:00:16.095,1172755551,2272095,1,0.91846,-0.14331,0.59375,-0.649,1.389,-0.618
2026-05-20 15:00:16.095,1172755551,2272095,2,0.97485,0.04126,0.2478,-1.832,0.603,0.29
2026-05-20 15:00:16.295,1172755751,2272295,1,0.92261,-0.14185,0.59424,-0.427,1.771,-0.611
2026-05-20 15:00:16.295,1172755751,2272295,2,0.979,0.04395,0.24536,-2.053,0.511,0.405
2026-05-20 15:00:16.514,1172755970,2272514,1,0.91675,-0.13892,0.59595,-0.382,1.351,-0.573
2026-05-20 15:00:16.514,1172755970,2272514,2,0.98193,0.03833,0.25293,-1.786,0.595,0.473
2026-05-20 15:00:16.714,1172756170,2272714,1,0.91724,-0.13745,0.58716,-0.634,1.214,-0.443
2026-05-20 15:00:16.714,1172756170,2272714,2,0.98071,0.04395,0.25024,-1.45,0.267,0.565
2026-05-20 15:00:17.914,1172757370,2272914,1,0.92114,-0.14307,0.59595,-0.641,1.382,-0.389
2026-05-20 15:00:17.914,1172757370,2272914,2,0.97803,0.04468,0.25952,-2.405,0.206,0.198
2026-05-20 15:00:17.114,1172756570,2273114,1,0.91211,-0.14038,0.59839,-0.389,1.351,-0.382
2026-05-20 15:00:17.114,1172756570,2273114,2,0.98828,0.04297,0.25659,-1.435,0.901,0.305
2026-05-20 15:00:17.314,1172756770,2273314,1,0.91846,-0.14233,0.58569,-0.374,1.107,-0.359
2026-05-20 15:00:17.314,1172756770,2273314,2,0.97339,0.04175,0.24634,-1.656,0.076,0.771
2026-05-20 15:00:17.514,1172756970,2273514,1,0.91382,-0.14355,0.59082,-0.718,0.702,-0.786
2026-05-20 15:00:17.514,1172756970,2273514,2,0.97852,0.04297,0.2522,-1.679,0.427,1.084
2026-05-20 15:00:17.714,1172757170,2273714,1,0.91382,-0.13818,0.59619,-0.42,1.008,-0.565
2026-05-20 15:00:17.714,1172757170,2273714,2,0.97583,0.0376,0.24023,-1.656,0.527,0.366
2026-05-20 15:00:18.914,1172758370,2273914,1,0.92188,-0.14038,0.58545,-0.305,1.443,-0.458
2026-05-20 15:00:18.914,1172758370,2273914,2,0.97729,0.04175,0.25,-0.275,0.038,0.626
2026-05-20 15:00:18.114,1172757570,2274114,1,0.91162,-0.13306,0.60059,-0.374,1.275,-0.191
2026-05-20 15:00:18.114,1172757570,2274114,2,0.98364,0.03931,0.23804,0.473,-0.229,1.038
2026-05-20 15:00:18.314,1172757770,2274314,1,0.91113,-0.13501,0.59351,-0.588,1.702,-0.359
2026-05-20 15:00:18.314,1172757770,2274314,2,0.98413,0.04419,0.25024,-0.198,-0.145,0.603
2026-05-20 15:00:18.514,1172757970,2274514,1,0.92065,-0.13892,0.59668,-0.42,1.336,-0.275
2026-05-20 15:00:18.514,1172757970,2274514,2,0.97925,0.03564,0.25781,-1.55,0.305,0.58
2026-05-20 15:00:18.714,1172758170,2274714,1,0.91699,-0.13818,0.5918,-0.947,1.275,-0.389
2026-05-20 15:00:18.714,1172758170,2274714,2,0.9812,0.03589,0.25195,-2.344,0.756,0.412
2026-05-20 15:00:19.914,1172759370,2274914,1,0.91992,-0.13647,0.59985,-0.221,1.504,-0.573
2026-05-20 15:00:19.914,1172759370,2274914,2,0.98169,0.04517,0.25879,-2.405,0.74,0.252
2026-05-20 15:00:19.114,1172758570,2275114,1,0.91162,-0.13989,0.60034,-0.015,1.298,-0.282
2026-05-20 15:00:19.114,1172758570,2275114,2,0.97803,0.03687,0.25415,-2.16,0.405,0.366
2026-05-20 15:00:19.314,1172758770,2275314,1,0.91943,-0.14307,0.59497,-0.649,1.542,-0.115
2026-05-20 15:00:19.314,1172758770,2275314,2,0.97583,0.04077,0.25659,-1.382,0.321,0.252
2026-05-20 15:00:19.514,1172758970,2275514,1,0.91162,-0.14478,0.59253,-0.473,1.397,-0.496
2026-05-20 15:00:19.514,1172758970,2275514,2,0.98438,0.03979,0.24854,-1.344,0.924,0.305
2026-05-20 15:00:19.714,1172759170,2275714,1,0.91455,-0.13989,0.58887,-0.351,1.206,-0.611
2026-05-20 15:00:19.714,1172759170,2275714,2,0.98462,0.03882,0.26074,-1.046,-0.099,0.771
2026-05-20 15:00:20.914,1172760370,2275914,1,0.95215,-0.1394,0.62207,3.099,-5.389,-0.527
2026-05-20 15:00:20.914,1172760370,2275914,2,1.03467,0.02759,0.27832,6.489,19.275,5.695
2026-05-20 15:00:20.114,1172759570,2276114,1,0.93579,-0.13477,0.55493,1.679,-12.061,-2.023
2026-05-20 15:00:20.114,1172759570,2276114,2,0.93188,0.06665,0.34131,-3.336,25.13,-5.42
2026-05-20 15:00:20.341,1172759797,2276341,1,0.96069,-0.11523,0.48706,-1.855,-19.656,-1.611
2026-05-20 15:00:20.341,1172759797,2276341,2,0.9021,0.01733,0.53613,-2.015,4.931,-6.198
2026-05-20 15:00:20.541,1172759997,2276541,1,0.9707,-0.12378,0.49438,1.191,-0.466,-0.206
2026-05-20 15:00:20.541,1172759997,2276541,2,0.88403,0.03613,0.46362,1.214,-4.382,-0.656
2026-05-20 15:00:21.741,1172761197,2276741,1,0.98267,-0.11963,0.47168,-1.855,0.87,-1.107
2026-05-20 15:00:21.741,1172761197,2276741,2,0.91016,0.05737,0.42017,-0.351,0.595,1.176
2026-05-20 15:00:21.941,1172761397,2276941,1,0.98438,-0.12671,0.46802,0.076,1.053,-0.481
2026-05-20 15:00:21.941,1172761397,2276941,2,0.91382,0.05615,0.40942,-0.84,-0.817,0.359
2026-05-20 15:00:21.141,1172760597,2277141,1,0.98096,-0.11938,0.47217,0.573,2.435,-0.198
2026-05-20 15:00:21.141,1172760597,2277141,2,0.91113,0.05884,0.40918,-0.656,0.122,1.0
2026-05-20 15:00:21.341,1172760797,2277341,1,0.97827,-0.12451,0.46899,-0.74,1.374,-0.244
2026-05-20 15:00:21.341,1172760797,2277341,2,0.91138,0.05176,0.40723,-0.863,-0.099,0.527
2026-05-20 15:00:21.541,1172760997,2277541,1,0.98145,-0.11353,0.46167,-0.481,1.061,-0.374
2026-05-20 15:00:21.541,1172760997,2277541,2,0.91333,0.05225,0.41455,-0.031,0.305,0.969
2026-05-20 15:00:22.741,1172762197,2277741,1,0.98535,-0.12061,0.47241,-0.076,1.832,-0.725
2026-05-20 15:00:22.741,1172762197,2277741,2,0.91089,0.05835,0.41504,-0.153,0.214,0.534
2026-05-20 15:00:22.941,1172762397,2277941,1,0.97388,-0.12842,0.45898,-0.282,1.687,-0.313
2026-05-20 15:00:22.941,1172762397,2277941,2,0.91187,0.05664,0.40308,-0.023,-0.328,0.802
2026-05-20 15:00:22.150,1172761606,2278150,1,0.96802,-0.12622,0.45996,-0.542,0.847,-0.344
2026-05-20 15:00:22.150,1172761606,2278150,2,0.91357,0.05933,0.40454,-1.489,0.817,0.382
2026-05-20 15:00:22.350,1172761806,2278350,1,0.98462,-0.11426,0.46509,-0.55,1.328,-0.145
2026-05-20 15:00:22.350,1172761806,2278350,2,0.91895,0.05371,0.41211,-1.053,-0.168,0.802
2026-05-20 15:00:22.550,1172762006,2278550,1,0.97754,-0.1189,0.47534,-0.939,1.313,
2026-05-20 15:00:22.550,1172762006,2278550,2,0.90747,0.05347,0.40894,-1.511,0.29,0.557
2026-05-20 15:00:23.750,1172763206,2278750,1,0.98389,-0.12061,0.47095,-0.656,0.908,-0.412
2026-05-20 15:00:23.750,1172763206,2278750,2,0.91089,0.05078,0.40894,-2.725,0.878,0.145
2026-05-20 15:00:23.950,1172763406,2278950,1,0.97485,-0.11987,0.47852,-0.275,1.214,-0.229
2026-05-20 15:00:23.950,1172763406,2278950,2,0.91187,0.05566,0.41113,-1.679,0.771,0.275
2026-05-20 15:00:23.150,1172762606,2279150,1,0.97729,-0.11865,0.46167,-0.435,1.122,-0.45
2026-05-20 15:00:23.150,1172762606,2279150,2,0.9165,0.05273,0.41235,-1.565,0.389,0.389
2026-05-20 15:00:23.350,1172762806,2279350,1,0.97485,-0.12549,0.46289,-0.618,1.221,-0.328
2026-05-20 15:00:23.350,1172762806,2279350,2,0.90869,0.052,0.41162,-1.672,0.878,0.634
2026-05-20 15:00:23.581,1172763037,2279581,1,0.97339,-0.12769,0.4668,-0.427,1.435,-0.092
2026-05-20 15:00:23.581,1172763037,2279581,2,0.90845,0.04932,0.40552,-1.427,0.725,0.489
2026-05-20 15:00:24.781,1172764237,2279781,1,0.9729,-0.12109,0.46851,-0.405,1.542,-0.481
2026-05-20 15:00:24.781,1172764237,2279781,2,0.90698,0.05542,0.40845,-1.275,0.321,0.504
2026-05-20 15:00:24.981,1172764437,2279981,1,0.97485,-0.11719,0.4729,-0.45,1.359,-0.374
2026-05-20 15:00:24.981,1172764437,2279981,2,0.91406,0.05176,0.41748,-1.26,0.817,0.779
2026-05-20 15:00:24.181,1172763637,2280181,1,0.97485,-0.12476,0.4646,-0.458,1.45,-0.382
2026-05-20 15:00:24.181,1172763637,2280181,2,0.90674,0.05371,0.41162,-0.656,0.916,0.748
2026-05-20 15:00:24.381,1172763837,2280381,1,0.98022,-0.12183,0.46606,-0.969,1.802,-0.565
2026-05-20 15:00:24.381,1172763837,2280381,2,0.90454,0.0625,0.40845,-1.221,-1.405,0.389
2026-05-20 15:00:24.581,1172764037,2280581,1,0.97485,-0.12183,0.47998,-0.069,1.557,-0.496
2026-05-20 15:00:24.581,1172764037,2280581,2,0.91797,0.05615,0.40918,0.069,0.588,0.496
2026-05-20 15:00:25.781,1172765237,2280781,1,0.97046,-0.1145,0.4812,0.962,1.42,-0.435
2026-05-20 15:00:25.781,1172765237,2280781,2,0.91528,0.05786,0.41528,-2.718,0.863,0.328
2026-05-20 15:00:25.981,1172765437,2280981,1,0.97363,-0.11841,0.48169,-1.031,1.405,0.244
2026-05-20 15:00:25.981,1172765437,2280981,2,0.90991,0.05371,0.42773,-0.794,1.145,1.16
2026-05-20 15:00:25.181,1172764637,2281181,1,0.97803,-0.12036,0.479,-0.412,0.527,-0.351
2026-05-20 15:00:25.181,1172764637,2281181,2,0.90698,0.04761,0.41626,-2.137,0.397,0.489
2026-05-20 15:00:25.381,1172764837,2281381,1,0.98047,-0.11328,0.46655,0.069,0.84,0.038
2026-05-20 15:00:25.381,1172764837,2281381,2,0.90723,0.052,0.41382,-1.282,1.076,0.679
2026-05-20 15:00:25.581,1172765037,2281581,1,0.97583,-0.11694,0.47168,-0.397,1.557,-0.183
2026-05-20 15:00:25.581,1172765037,2281581,2,0.90259,0.05518,0.40894,-0.908,1.168,0.542
2026-05-20 15:00:26.781,1172766237,2281781,1,0.97046,-0.12524,0.479,-0.855,1.359,-0.832
2026-05-20 15:00:26.781,1172766237,2281781,2,0.91089,0.05688,0.41211,-1.191,-0.023,0.328
2026-05-20 15:00:28.324,1172767780,2284324,1,0.97559,-0.12769,0.46875,0.13,1.603,-0.275
2026-05-20 15:00:28.324,1172767780,2284324,2,0.91187,0.05347,0.41772,-0.924,-0.229,0.42
2026-05-20 15:00:28.524,1172767980,2284524,1,0.97632,-0.11743,0.47363,-1.573,1.702,-0.305
2026-05-20 15:00:28.524,1172767980,2284524,2,0.91357,0.05029,0.41699,-1.16,0.115,0.603
2026-05-20 15:00:28.724,1172768180,2284724,1,0.97876,-0.12231,0.47363,-1.053,1.466,-1.053
2026-05-20 15:00:28.724,1172768180,2284724,2,0.90723,0.04932,0.41675,-0.046,-0.427,0.58
2026-05-20 15:00:29.924,1172769380,2284924,1,0.97729,-0.1228,0.47852,-0.16,0.87,-0.511
2026-05-20 15:00:29.924,1172769380,2284924,2,0.90942,0.06372,0.41357,-0.534,0.618,0.786
2026-05-20 15:00:29.124,1172768580,2285124,1,0.97729,-0.11914,0.47534,-0.595,1.191,-0.351
2026-05-20 15:00:29.124,1172768580,2285124,2,0.90845,0.05566,0.41528,-0.763,0.832,0.893
2026-05-20 15:00:29.324,1172768780,2285324,1,0.97974,-0.11792,0.47314,0.359,1.496,-0.046
2026-05-20 15:00:29.324,1172768780,2285324,2,0.90942,0.05737,0.41675,-0.832,1.168,0.855
2026-05-20 15:00:29.524,1172768980,2285524,1,0.97949,-0.12109,0.48071,-0.603,0.817,0.336
2026-05-20 15:00:29.524,1172768980,2285524,2,0.91309,0.05542,0.41699,-2.061,0.626,0.87
2026-05-20 15:00:30.824,1172770280,2285824,1,0.97778,-0.125,0.46362,,0.794,-0.107
2026-05-20 15:00:30.824,1172770280,2285824,2,0.90771,0.06006,0.42773,-0.107,0.527,0.58
2026-05-20 15:00:30.079,1172769535,2286079,1,0.99756,-0.12061,0.48462,3.221,14.153,2.374
2026-05-20 15:00:30.079,1172769535,2286079,2,0.84546,0.01294,0.58008,16.565,-21.275,8.015
2026-05-20 15:00:30.279,1172769735,2286279,1,0.92847,-0.14063,0.5686,-18.069,9.885,-0.565
2026-05-20 15:00:30.279,1172769735,2286279,2,0.98901,0.04565,0.31543,-9.145,-14.366,-1.573
2026-05-20 15:00:30.479,1172769935,2286479,1,0.9502,-0.15112,0.54126,4.13,2.321,0.252
2026-05-20 15:00:30.479,1172769935,2286479,2,1.00293,0.04834,0.20776,-3.023,-5.679,-4.412
2026-05-20 15:00:30.679,1172770135,2286679,1,0.91553,-0.14795,0.57617,-0.496,2.458,0.969
2026-05-20 15:00:30.679,1172770135,2286679,2,0.96729,0.04858,0.29224,1.053,2.695,-1.046
2026-05-20 15:00:31.879,1172771335,2286879,1,0.91943,-0.13843,0.58008,0.58,4.74,0.13
2026-05-20 15:00:31.879,1172771335,2286879,2,0.95947,0.05981,0.27783,-0.863,1.344,-0.603
2026-05-20 15:00:31.150,1172770606,2287150,1,0.91333,-0.15015,0.59619,0.305,1.573,0.817
2026-05-20 15:00:31.150,1172770606,2287150,2,0.95874,0.0542,0.28955,-1.595,-0.061,0.466
2026-05-20 15:00:31.368,1172770824,2287368,1,0.91406,-0.13379,0.58838,-0.496,1.679,-0.519
2026-05-20 15:00:31.368,1172770824,2287368,2,0.97485,0.05249,0.2793,-1.603,0.779,0.305
2026-05-20 15:00:31.568,1172771024,2287568,1,0.9126,-0.1377,0.59033,-0.473,1.206,-0.519
2026-05-20 15:00:31.568,1172771024,2287568,2,0.97266,0.05957,0.28174,-0.13,0.221,0.779
2026-05-20 15:00:32.768,1172772224,2287768,1,0.9187,-0.13843,0.59619,-0.305,1.366,0.031
2026-05-20 15:00:32.768,1172772224,2287768,2,0.96948,0.05786,0.27344,0.389,-0.092,1.046
2026-05-20 15:00:32.968,1172772424,2287968,1,0.92529,-0.13403,0.5896,-1.55,1.725,1.603
2026-05-20 15:00:32.968,1172772424,2287968,2,0.97192,0.0542,0.28125,-0.237,-0.74,1.908
2026-05-20 15:00:32.168,1172771624,2288168,1,0.9209,-0.14624,0.58472,-1.298,1.458,-0.74
2026-05-20 15:00:32.168,1172771624,2288168,2,0.97119,0.05322,0.27515,-0.252,0.733,-0.115
2026-05-20 15:00:32.397,1172771853,2288397,1,0.91089,-0.14648,0.604,-0.511,1.473,-0.046
2026-05-20 15:00:32.397,1172771853,2288397,2,0.9646,0.05493,0.27661,-3.015,1.015,-0.046
2026-05-20 15:00:32.600,1172772056,2288599,1,0.91187,-0.1499,0.59033,-0.763,1.695,-0.565
2026-05-20 15:00:32.600,1172772056,2288599,2,0.97241,0.06055,0.26367,-3.305,1.305,-0.229
2026-05-20 15:00:33.799,1172773255,2288799,1,0.90967,-0.14893,0.60034,-0.74,1.069,-0.099
2026-05-20 15:00:33.799,1172773255,2288799,2,0.96826,0.06055,0.28564,-0.947,0.977,0.397
2026-05-20 15:00:33.999,1172773455,2288999,1,0.91553,-0.14673,0.60767,-0.573,1.473,-0.389
2026-05-20 15:00:33.999,1172773455,2288999,2,0.96533,0.05688,0.2771,-1.985,1.252,0.595
2026-05-20 15:00:33.199,1172772655,2289199,1,0.90796,-0.15527,0.59814,-0.145,1.13,-0.107
2026-05-20 15:00:33.199,1172772655,2289199,2,0.97046,0.06128,0.2666,-1.557,0.328,0.198
2026-05-20 15:00:33.399,1172772855,2289399,1,0.90771,-0.15894,0.60303,-0.511,1.366,-0.282
2026-05-20 15:00:33.399,1172772855,2289399,2,0.96851,0.04297,0.29517,1.107,-5.153,1.412
2026-05-20 15:00:33.676,1172773132,2289675,1,0.9165,-0.15259,0.60449,-0.534,1.519,-0.458
2026-05-20 15:00:33.676,1172773132,2289675,2,0.97119,0.05664,0.26929,-1.145,0.779,0.29
2026-05-20 15:00:34.875,1172774331,2289875,1,0.90894,-0.146,0.60645,-0.71,1.351,-0.389
2026-05-20 15:00:34.875,1172774331,2289875,2,0.9729,0.0564,0.2749,-0.893,0.58,0.382
2026-05-20 15:00:34.075,1172773531,2290075,1,0.91089,-0.15161,0.59863,-0.374,1.55,-0.443
2026-05-20 15:00:34.075,1172773531,2290075,2,0.9751,0.05249,0.26074,-1.939,0.359,0.634
2026-05-20 15:00:34.275,1172773731,2290275,1,0.91162,-0.15674,0.60571,-0.511,1.183,-0.527
2026-05-20 15:00:34.275,1172773731,2290275,2,0.9729,0.05688,0.2749,-0.618,0.588,0.611
2026-05-20 15:00:34.475,1172773931,2290475,1,0.90625,-0.15405,0.59351,-1.748,1.145,-0.458
2026-05-20 15:00:34.475,1172773931,2290475,2,0.96875,0.05591,0.28418,0.878,-0.931,1.527
2026-05-20 15:00:34.675,1172774131,2290675,1,0.90186,-0.1521,0.60718,-0.702,1.672,-0.29
2026-05-20 15:00:34.675,1172774131,2290675,2,0.97241,0.05737,0.28101,-0.962,-0.443,1.053
2026-05-20 15:00:35.875,1172775331,2290875,1,0.9126,-0.16113,0.60205,0.015,1.58,-0.275
2026-05-20 15:00:35.875,1172775331,2290875,2,0.9729,0.0542,0.26758,-0.366,0.664,0.786
2026-05-20 15:00:35.075,1172774531,2291075,1,0.91162,-0.15161,0.59619,-0.244,1.153,-0.618
2026-05-20 15:00:35.075,1172774531,2291075,2,0.97192,0.05835,0.27148,-1.153,0.397,0.496
2026-05-20 15:00:35.275,1172774731,2291275,1,0.90796,-0.15088,0.60547,-0.466,1.427,-0.382
2026-05-20 15:00:35.275,1172774731,2291275,2,0.97119,0.05322,0.27539,-2.13,1.206,-0.115
2026-05-20 15:00:35.480,1172774936,2291479,1,0.90894,-0.15161,0.59448,-0.351,1.336,-0.511
2026-05-20 15:00:35.480,1172774936,2291479,2,0.97217,0.05615,0.2749,-2.489,0.954,-0.191
2026-05-20 15:00:35.679,1172775135,2291679,1,0.90479,-0.15332,0.59424,-0.794,1.504,-0.45
2026-05-20 15:00:35.679,1172775135,2291679,2,0.96802,0.05835,0.27124,-2.298,0.817,0.275
2026-05-20 15:00:36.879,1172776335,2291879,1,0.91992,-0.14868,0.60693,-0.45,1.489,-0.374
2026-05-20 15:00:36.879,1172776335,2291879,2,0.96362,0.06006,0.2666,-1.679,1.038,0.176
2026-05-20 15:00:36.079,1172775535,2292079,1,0.91211,-0.15674,0.60425,-0.374,1.611,-0.458
2026-05-20 15:00:36.079,1172775535,2292079,2,0.97095,0.05347,0.27979,-1.962,0.267,0.504
2026-05-20 15:00:36.279,1172775735,2292279,1,0.90747,-0.15283,0.59912,-0.649,1.481,-0.26
2026-05-20 15:00:36.279,1172775735,2292279,2,0.96851,0.06128,0.27295,-1.496,0.786,0.344
2026-05-20 15:00:36.479,1172775935,2292479,1,0.90894,-0.1543,0.59619,-0.42,1.443,-0.55
2026-05-20 15:00:36.479,1172775935,2292479,2,0.9707,0.05298,0.27246,-1.252,0.26,0.588
2026-05-20 15:00:36.679,1172776135,2292679,1,0.90625,-0.15479,0.60425,-0.756,0.679,-0.435
2026-05-20 15:00:36.679,1172776135,2292679,2,0.96948,0.06323,0.271,-1.359,0.611,0.847
2026-05-20 15:00:37.879,1172777335,2292879,1,0.90991,-0.15381,0.60303,-0.29,1.092,-0.427
2026-05-20 15:00:37.879,1172777335,2292879,2,0.96899,0.05664,0.28833,-0.771,0.702,0.626
2026-05-20 15:00:37.079,1172776535,2293079,1,0.91431,-0.14771,0.59326,-0.374,1.015,-0.557
2026-05-20 15:00:37.079,1172776535,2293079,2,0.9751,0.05396,0.27759,0.008,-0.214,0.962
2026-05-20 15:00:37.279,1172776735,2293279,1,0.90796,-0.15137,0.60132,-0.336,1.229,-0.344
2026-05-20 15:00:37.279,1172776735,2293279,2,0.97778,0.05249,0.27637,0.115,-0.053,0.725
2026-05-20 15:00:37.479,1172776935,2293479,1,0.90601,-0.16016,0.59717,-0.107,1.061,-0.321
2026-05-20 15:00:37.479,1172776935,2293479,2,0.97363,0.05615,0.28101,-0.351,0.389,0.893
2026-05-20 15:00:37.679,1172777135,2293679,1,0.90454,-0.1521,0.60034,-0.542,1.427,-0.389
2026-05-20 15:00:37.679,1172777135,2293679,2,0.97754,0.05664,0.26929,-2.351,1.206,0.084
2026-05-20 15:00:38.879,1172778335,2293879,1,0.91187,-0.14966,0.6084,-0.511,1.473,-0.603
2026-05-20 15:00:38.879,1172778335,2293879,2,0.96582,0.0625,0.26978,-1.672,0.328,0.313
2026-05-20 15:00:38.079,1172777535,2294079,1,0.90308,-0.14502,0.60303,0.16,0.802,-0.71
2026-05-20 15:00:38.079,1172777535,2294079,2,0.97925,0.04907,0.27173,-3.87,0.985,0.702
2026-05-20 15:00:38.279,1172777735,2294279,1,0.89502,-0.14331,0.61597,-1.443,1.084,-0.931
2026-05-20 15:00:38.279,1172777735,2294279,2,0.96558,0.05615,0.27808,-3.74,3.26,-0.282
2026-05-20 15:00:38.479,1172777935,2294479,1,0.91431,-0.15332,0.59399,-1.122,1.511,-0.855
2026-05-20 15:00:38.479,1172777935,2294479,2,0.97437,0.05664,0.27417,-2.55,0.71,-0.359
2026-05-20 15:00:38.679,1172778135,2294679,1,0.91113,-0.14502,0.60132,-0.664,1.313,-0.45
2026-05-20 15:00:38.679,1172778135,2294679,2,0.96899,0.05273,0.27271,-1.29,-0.504,0.855
2026-05-20 15:00:39.879,1172779335,2294879,1,0.9104,-0.15552,0.59961,-0.008,1.565,-0.389
2026-05-20 15:00:39.879,1172779335,2294879,2,0.96924,0.05591,0.27783,-1.275,1.542,0.069
2026-05-20 15:00:39.079,1172778535,2295079,1,0.91235,-0.15479,0.59985,-0.885,1.351,-0.13
2026-05-20 15:00:39.079,1172778535,2295079,2,0.98022,0.05786,0.28076,-1.55,-0.58,0.328
2026-05-20 15:00:39.279,1172778735,2295279,1,0.90991,-0.15649,0.604,-0.435,1.382,-0.305
2026-05-20 15:00:39.279,1172778735,2295279,2,0.96704,0.04248,0.28882,1.496,-4.679,1.305
2026-05-20 15:00:39.479,1172778935,2295479,1,0.90967,-0.15894,0.60132,-0.344,1.458,-0.351
2026-05-20 15:00:39.479,1172778935,2295479,2,0.97461,0.05957,0.28052,-1.511,0.168,0.74
2026-05-20 15:00:39.679,1172779135,2295679,1,0.91138,-0.15259,0.60425,-0.588,1.183,-0.366
2026-05-20 15:00:39.679,1172779135,2295679,2,0.96899,0.05151,0.26611,-0.534,0.786,0.58
2026-05-20 15:00:40.879,1172780335,2295879,1,0.91309,-0.15039,0.59033,-0.359,1.061,-0.687
2026-05-20 15:00:40.879,1172780335,2295879,2,0.96753,0.05688,0.2793,0.282,-0.031,1.076
2026-05-20 15:00:40.079,1172779535,2296079,1,0.91504,-0.15186,0.6106,-0.183,0.977,-0.557
2026-05-20 15:00:40.079,1172779535,2296079,2,0.96875,0.06128,0.2771,0.031,0.359,0.71
2026-05-20 15:00:40.279,1172779735,2296279,1,0.90503,-0.14673,0.60767,-0.496,1.328,-0.412
2026-05-20 15:00:40.279,1172779735,2296279,2,0.97095,0.05469,0.27588,-0.427,0.321,1.115
2026-05-20 15:00:40.479,1172779935,2296479,1,0.90894,-0.14893,0.60181,-0.176,1.183,-0.305
2026-05-20 15:00:40.479,1172779935,2296479,2,0.96436,0.0564,0.27222,-1.107,0.511,0.771
2026-05-20 15:00:40.679,1172780135,2296679,1,0.90698,-0.15405,0.604,-0.473,1.336,-0.405
2026-05-20 15:00:40.679,1172780135,2296679,2,0.97607,0.06226,0.27271,-1.695,0.374,0.443
2026-05-20 15:00:41.879,1172781335,2296879,1,0.91357,-0.14795,0.59863,-0.45,1.076,-0.687
2026-05-20 15:00:41.879,1172781335,2296879,2,0.97266,0.05933,0.2627,-3.611,1.695,0.282
2026-05-20 15:00:41.079,1172780535,2297079,1,0.97217,-0.15454,0.58325,3.534,-10.282,-1.855
2026-05-20 15:00:41.079,1172780535,2297079,2,0.96826,0.05127,0.22437,-19.634,0.885,-7.405
2026-05-20 15:00:41.279,1172780735,2297279,1,0.91895,-0.12427,0.53418,-4.58,-21.863,-2.969
2026-05-20 15:00:41.279,1172780735,2297279,2,0.89673,0.04272,0.34204,-20.42,38.069,-10.718
2026-05-20 15:00:41.479,1172780935,2297479,1,0.97583,-0.14868,0.46167,-1.076,-13.099,0.473
2026-05-20 15:00:41.479,1172780935,2297479,2,0.82666,0.03418,0.48413,2.885,19.878,4.794
2026-05-20 15:00:41.679,1172781135,2297679,1,0.98608,-0.12842,0.47534,-1.824,2.443,-2.412
2026-05-20 15:00:41.679,1172781135,2297679,2,0.90161,0.04004,0.45239,-1.534,-4.351,-0.908
2026-05-20 15:00:42.879,1172782335,2297879,1,0.98901,-0.12646,0.43848,0.74,0.443,-0.069
2026-05-20 15:00:42.879,1172782335,2297879,2,0.90649,0.05737,0.43018,-0.435,0.244,-0.298
2026-05-20 15:00:42.079,1172781535,2298079,1,0.9856,-0.12354,0.44482,-0.534,1.588,-1.313
2026-05-20 15:00:42.079,1172781535,2298079,2,0.8938,0.06177,0.44043,-0.427,0.809,-0.015
2026-05-20 15:00:42.279,1172781735,2298279,1,0.98657,-0.12134,0.45093,-0.611,1.435,0.687
2026-05-20 15:00:42.279,1172781735,2298279,2,0.90039,0.05518,0.42603,-1.901,0.137,1.382
2026-05-20 15:00:42.479,1172781935,2298479,1,0.99121,-0.13208,0.44019,-0.221,1.641,-0.313
2026-05-20 15:00:42.479,1172781935,2298479,2,0.90576,0.05298,0.43066,-1.26,0.069,0.672
2026-05-20 15:00:42.679,1172782135,2298679,1,0.98389,-0.12842,0.4519,-0.481,1.366,-0.069
2026-05-20 15:00:42.679,1172782135,2298679,2,0.90527,0.05396,0.42407,-1.191,-0.992,0.046
2026-05-20 15:00:43.879,1172783335,2298879,1,0.98926,-0.125,0.44531,-0.71,1.634,-0.824
2026-05-20 15:00:43.879,1172783335,2298879,2,0.9043,0.05713,0.42163,-1.069,-0.069,0.542
2026-05-20 15:00:46.023,1172785479,2302023,1,0.9834,-0.13403,0.44995,-0.29,1.214,-0.351
2026-05-20 15:00:46.023,1172785479,2302023,2,0.9043,0.06006,0.42627,-1.832,0.519,0.725
2026-05-20 15:00:46.274,1172785730,2302274,1,0.98218,-0.13574,0.46216,-0.588,1.282,-0.374
2026-05-20 15:00:46.274,1172785730,2302274,2,0.90088,0.0564,0.42554,-1.084,1.237,0.718
2026-05-20 15:00:46.525,1172785981,2302524,1,0.97729,-0.13721,0.45239,-0.344,1.328,-0.305
2026-05-20 15:00:46.525,1172785981,2302524,2,0.90088,0.05859,0.42651,-1.046,0.664,0.656
2026-05-20 15:00:47.928,1172787384,2302928,1,0.98633,-0.13745,0.45386,-0.847,1.641,-0.351
2026-05-20 15:00:47.928,1172787384,2302928,2,0.90112,0.05786,0.42212,-1.359,0.305,0.382
2026-05-20 15:00:47.128,1172786584,2303128,1,0.99121,-0.13428,0.4646,-0.458,1.511,-0.351
2026-05-20 15:00:47.128,1172786584,2303128,2,0.90649,0.06445,0.42432,-1.58,0.214,0.573
2026-05-20 15:00:47.328,1172786784,2303328,1,0.98462,-0.13721,0.45386,-0.794,1.344,-0.275
2026-05-20 15:00:47.328,1172786784,2303328,2,0.90967,0.05713,0.42188,-1.084,,0.58
2026-05-20 15:00:47.528,1172786984,2303528,1,0.9751,-0.13428,0.44971,-0.863,1.573,-0.275
2026-05-20 15:00:47.528,1172786984,2303528,2,0.90649,0.05786,0.42554,-1.374,0.244,0.557
2026-05-20 15:00:47.728,1172787184,2303728,1,0.9873,-0.13306,0.45239,-0.115,1.565,-0.351
2026-05-20 15:00:47.728,1172787184,2303728,2,0.90552,0.05518,0.42578,-1.145,0.298,0.763
2026-05-20 15:00:48.928,1172788384,2303928,1,0.97803,-0.13525,0.45605,-0.626,1.244,-0.191
2026-05-20 15:00:48.928,1172788384,2303928,2,0.91138,0.05908,0.42236,-0.733,0.229,0.687
2026-05-20 15:00:48.128,1172787584,2304128,1,0.98047,-0.13696,0.46338,-0.618,1.359,-0.595
2026-05-20 15:00:48.128,1172787584,2304128,2,0.91089,0.05151,0.41333,-1.023,0.298,0.511
2026-05-20 15:00:48.328,1172787784,2304328,1,0.98169,-0.13208,0.45898,-0.511,1.145,-0.366
2026-05-20 15:00:48.328,1172787784,2304328,2,0.90234,0.05835,0.40845,-1.366,0.435,0.664
2026-05-20 15:00:48.528,1172787984,2304528,1,0.98071,-0.13452,0.46216,-0.443,0.855,-0.344
2026-05-20 15:00:48.528,1172787984,2304528,2,0.90332,0.05762,0.42627,-1.634,0.84,0.527
2026-05-20 15:00:48.728,1172788184,2304728,1,0.98145,-0.13403,0.45288,-0.427,1.122,-0.504
2026-05-20 15:00:48.728,1172788184,2304728,2,0.90576,0.05884,0.42725,-1.153,0.985,0.527
2026-05-20 15:00:49.928,1172789384,2304928,1,0.98364,-0.13208,0.45947,-0.221,1.298,-0.183
2026-05-20 15:00:49.928,1172789384,2304928,2,0.90112,0.06274,0.42505,-1.603,0.969,0.282
2026-05-20 15:00:49.128,1172788584,2305128,1,0.98071,-0.13232,0.45313,-0.252,1.099,-0.29
2026-05-20 15:00:49.128,1172788584,2305128,2,0.90259,0.06201,0.42139,-1.336,0.656,0.687
2026-05-20 15:00:49.328,1172788784,2305328,1,0.97583,-0.13135,0.46362,-0.733,1.489,-0.473
2026-05-20 15:00:49.328,1172788784,2305328,2,0.90039,0.05786,0.43579,-1.641,0.198,0.473
2026-05-20 15:00:49.528,1172788984,2305528,1,0.98535,-0.1355,0.45508,-0.481,1.412,-0.282
2026-05-20 15:00:49.528,1172788984,2305528,2,0.90356,0.05835,0.42407,-1.321,0.588,0.176
2026-05-20 15:00:49.728,1172789184,2305728,1,0.9856,-0.13647,0.46143,-0.328,1.435,-0.344
2026-05-20 15:00:49.728,1172789184,2305728,2,0.90869,0.05884,0.43237,-1.267,0.313,0.359
2026-05-20 15:00:50.928,1172790384,2305928,1,0.97827,-0.12915,0.46216,-0.55,1.405,-0.336
2026-05-20 15:00:50.928,1172790384,2305928,2,0.90088,0.06128,0.41333,-1.26,0.015,0.55
2026-05-20 15:00:50.128,1172789584,2306128,1,0.98315,-0.13672,0.45386,-0.42,1.237,-0.374
2026-05-20 15:00:50.128,1172789584,2306128,2,0.9043,0.05859,0.42236,-1.168,0.618,0.534
2026-05-20 15:00:50.328,1172789784,2306328,1,0.97754,-0.13672,0.46167,-0.198,1.832,-0.412
2026-05-20 15:00:50.328,1172789784,2306328,2,0.90845,0.05298,0.42725,-0.588,-0.786,0.687
2026-05-20 15:00:50.528,1172789984,2306528,1,1.00171,-0.13013,0.45435,-1.794,14.351,1.305
2026-05-20 15:00:50.528,1172789984,2306528,2,0.65381,-0.01245,-0.04956,-29.336,-46.847,-11.069
2026-05-20 15:00:51.898,1172791354,2306898,1,0.94141,-0.14063,0.56812,3.771,9.107,-2.519
2026-05-20 15:00:51.898,1172791354,2306898,2,1.09277,0.08545,0.23779,-6.924,5.634,-6.275
2026-05-20 15:00:51.127,1172790583,2307127,1,0.92383,-0.1189,0.58154,2.519,-1.267,0.664
2026-05-20 15:00:51.127,1172790583,2307127,2,0.94507,0.04492,0.34717,5.015,10.481,1.733
2026-05-20 15:00:51.327,1172790783,2307327,1,0.91382,-0.13452,0.59399,-4.748,3.176,-0.718
2026-05-20 15:00:51.327,1172790783,2307327,2,0.95557,0.07227,0.2854,-1.252,-0.779,-1.153
2026-05-20 15:00:51.527,1172790983,2307527,1,0.92065,-0.13306,0.58789,0.099,1.489,-0.313
2026-05-20 15:00:51.527,1172790983,2307527,2,0.96655,0.05249,0.28247,-3.336,-0.092,1.496
2026-05-20 15:00:51.727,1172791183,2307727,1,0.92847,-0.14014,0.57593,-2.282,1.511,1.359
2026-05-20 15:00:51.727,1172791183,2307727,2,0.97241,0.06641,0.29785,-2.107,0.015,-0.16
2026-05-20 15:00:52.927,1172792383,2307927,1,0.90771,-0.14355,0.59155,-1.656,1.878,-1.321
2026-05-20 15:00:52.927,1172792383,2307927,2,0.96191,0.06177,0.27246,-2.473,-0.924,0.298
2026-05-20 15:00:52.127,1172791583,2308127,1,0.92017,-0.1377,0.59839,-0.504,1.74,-0.687
2026-05-20 15:00:52.127,1172791583,2308127,2,0.96704,0.06177,0.27661,-2.29,2.351,-1.496
2026-05-20 15:00:52.327,1172791783,2308327,1,0.92261,-0.13599,0.59888,-0.618,1.191,-0.076
2026-05-20 15:00:52.327,1172791783,2308327,2,0.96533,0.06616,0.28101,-1.55,-0.267,1.183
2026-05-20 15:00:52.527,1172791983,2308527,1,0.91748,-0.15137,0.58813,-0.969,1.366,-0.26
