datetime,epoch_ms,ts_millis,mpu_id,ax,ay,az,gx,gy,gz
2026-05-23T12:36:49.603653,,,,,,,,,
2026-05-23T12:39:16.798904,,,,,,,,,
2026-05-23T12:44:44.222913,,,,,,,,,
2026-05-23 12:44:43.449,1423822905,5449,1,0.0647,0.6001,-0.95215,-2.053,0.328,-0.122
2026-05-23 12:44:43.449,1423822905,5449,2,0.33105,0.74463,1.01367,-1.458,1.389,1.427
2026-05-23 12:44:43.649,1423823105,5649,1,0.06494,0.6062,-0.94019,-1.519,0.282,-0.069
2026-05-23 12:44:43.649,1423823105,5649,2,0.32764,0.73975,1.00562,-1.771,1.115,1.473
2026-05-23 12:44:43.851,1423823307,5851,1,0.0686,0.60547,-0.96021,-1.649,0.252,0.023
2026-05-23 12:44:43.851,1423823307,5851,2,0.32959,0.74414,1.01807,-0.916,1.153,1.16
2026-05-23 12:44:44.051,1423823507,6051,1,0.06494,0.60352,-0.95435,-1.954,0.221,0.092
2026-05-23 12:44:44.051,1423823507,6051,2,0.32935,0.74097,1.01343,-0.779,0.817,1.328
2026-05-23 12:44:44.251,1423823707,6251,1,0.06152,0.60474,-0.95313,-1.817,0.206,-0.015
2026-05-23 12:44:44.251,1423823707,6251,2,0.33984,0.74316,1.00708,-0.916,1.0,1.389
2026-05-23 12:44:44.451,1423823907,6451,1,0.06836,0.60547,-0.95605,-1.794,0.221,-0.206
2026-05-23 12:44:44.451,1423823907,6451,2,0.33374,0.73877,1.00684,-1.221,1.069,1.45
2026-05-23 12:44:44.651,1423824107,6651,1,0.06152,0.60254,-0.95386,-1.786,0.374,-0.038
2026-05-23 12:44:44.651,1423824107,6651,2,0.33521,0.74512,1.01099,-0.992,1.237,1.366
2026-05-23 12:44:44.851,1423824307,6851,1,0.06372,0.60547,-0.95361,-1.725,0.344,0.084
2026-05-23 12:44:44.851,1423824307,6851,2,0.33032,0.74023,1.01636,-1.145,1.351,1.206
2026-05-23 12:44:45.051,1423824507,7051,1,0.06445,0.60156,-0.94946,-1.809,0.313,0.015
2026-05-23 12:44:45.051,1423824507,7051,2,0.33691,0.73853,1.00879,-1.031,1.076,1.466
2026-05-23 12:44:45.251,1423824707,7251,1,0.06128,0.60718,-0.94629,-1.916,0.229,0.092
2026-05-23 12:44:45.251,1423824707,7251,2,0.33228,0.7417,1.01123,-1.351,1.252,1.107
2026-05-23 12:44:45.451,1423824907,7451,1,0.05884,0.60864,-0.95557,-1.885,0.496,-0.076
2026-05-23 12:44:45.451,1423824907,7451,2,0.33057,0.74072,1.00757,-0.916,0.954,1.443
2026-05-23 12:44:45.704,1423825160,7704,1,0.06494,0.60718,-0.95068,-1.695,0.344,0.038
2026-05-23 12:44:45.704,1423825160,7704,2,0.33081,0.74634,1.01465,-1.191,1.053,1.237
2026-05-23 12:44:45.904,1423825360,7904,1,0.0686,0.60498,-0.95605,-1.618,0.351,0.275
2026-05-23 12:44:45.904,1423825360,7904,2,0.3335,0.74536,1.01099,-1.206,1.267,1.374
2026-05-23 12:44:46.104,1423825560,8104,1,0.06299,0.60571,-0.9502,-1.557,0.252,0.107
2026-05-23 12:44:46.104,1423825560,8104,2,0.3335,0.74146,1.00903,-1.374,1.053,1.168
2026-05-23 12:44:46.304,1423825760,8304,1,0.06445,0.60303,-0.95703,-1.931,0.191,0.069
2026-05-23 12:44:46.304,1423825760,8304,2,0.33301,0.73755,1.0144,-1.321,1.198,1.252
2026-05-23 12:44:46.504,1423825960,8504,1,0.06274,0.60327,-0.96387,-1.817,0.336,-0.13
2026-05-23 12:44:46.504,1423825960,8504,2,0.33228,0.74146,1.01367,-1.58,1.145,1.427
2026-05-23 12:44:46.715,1423826171,8715,1,0.06396,0.6123,-0.96436,-1.672,0.336,0.038
2026-05-23 12:44:46.715,1423826171,8715,2,0.32642,0.73828,1.01099,-1.412,1.382,1.282
2026-05-23 12:44:46.915,1423826371,8915,1,0.06616,0.59766,-0.95337,-1.756,0.336,0.061
2026-05-23 12:44:46.915,1423826371,8915,2,0.33374,0.73804,1.01636,-1.298,1.099,1.214
2026-05-23 12:44:47.115,1423826571,9115,1,0.06055,0.60864,-0.95093,-1.695,0.336,-0.168
2026-05-23 12:44:47.115,1423826571,9115,2,0.33105,0.73755,1.01318,-0.885,1.176,1.305
2026-05-23 12:44:47.315,1423826771,9315,1,0.06982,0.60376,-0.95752,-1.924,0.328,
2026-05-23 12:44:47.315,1423826771,9315,2,0.32764,0.74194,1.00952,-1.214,1.267,1.328
2026-05-23 12:44:47.515,1423826971,9515,1,0.06689,0.60645,-0.94507,-1.718,0.221,0.015
2026-05-23 12:44:47.515,1423826971,9515,2,0.32715,0.7395,1.01514,-1.031,1.084,1.252
2026-05-23 12:44:50.451,1423829907,12451,1,0.06494,0.60889,-0.95874,-1.702,0.557,-0.046
2026-05-23 12:44:50.451,1423829907,12451,2,0.33252,0.74463,1.01855,-0.641,0.969,0.893
2026-05-23 12:44:50.651,1423830107,12651,1,0.06543,0.59912,-0.95435,-1.802,0.336,-0.084
2026-05-23 12:44:50.651,1423830107,12651,2,0.32959,0.73291,1.01733,-1.244,1.137,1.473
2026-05-23 12:44:50.851,1423830307,12851,1,0.05957,0.59497,-0.95215,-1.863,0.191,-0.069
2026-05-23 12:44:50.851,1423830307,12851,2,0.33228,0.73901,1.00928,-1.183,1.298,1.313
2026-05-23 12:44:51.051,1423830507,13051,1,0.07007,0.60425,-0.95337,-1.756,0.29,0.023
2026-05-23 12:44:51.051,1423830507,13051,2,0.33496,0.74219,1.01367,-1.244,1.298,1.771
2026-05-23 12:44:51.251,1423830707,13251,1,0.06689,0.60938,-0.95752,-1.84,0.168,-0.046
2026-05-23 12:44:51.251,1423830707,13251,2,0.33472,0.73853,1.00757,-1.214,1.092,1.359
2026-05-23 12:44:51.453,1423830909,13453,1,0.06299,0.60229,-0.95532,-1.901,0.282,-0.13
2026-05-23 12:44:51.453,1423830909,13453,2,0.33154,0.7373,1.01367,-0.916,1.237,1.252
2026-05-23 12:44:51.653,1423831109,13653,1,0.06079,0.60547,-0.94653,-1.534,0.282,-0.069
2026-05-23 12:44:51.653,1423831109,13653,2,0.32422,0.7312,1.01758,-1.573,1.031,1.267
2026-05-23 12:44:51.853,1423831309,13853,1,0.06665,0.60571,-0.9519,-1.679,0.412,0.107
2026-05-23 12:44:51.853,1423831309,13853,2,0.32983,0.73779,1.01172,-1.153,1.122,1.389
2026-05-23 12:44:52.053,1423831509,14053,1,0.05884,0.60596,-0.95728,-1.931,0.298,-0.122
2026-05-23 12:44:52.053,1423831509,14053,2,0.33203,0.7395,1.01636,-1.656,1.26,1.145
2026-05-23 12:44:52.253,1423831709,14253,1,0.0625,0.60425,-0.95679,-1.779,0.244,-0.069
2026-05-23 12:44:52.253,1423831709,14253,2,0.33545,0.73657,1.01318,-1.076,1.092,1.321
2026-05-23 12:44:54.934,1423834390,16934,1,0.06421,0.60425,-0.95898,-1.626,0.336,0.061
2026-05-23 12:44:54.934,1423834390,16934,2,0.33594,0.73877,1.02295,-1.13,1.084,1.244
2026-05-23 12:44:55.134,1423834590,17134,1,0.06934,0.60815,-0.95703,-1.992,0.336,0.031
2026-05-23 12:44:55.134,1423834590,17134,2,0.34058,0.73682,1.01099,-1.221,1.115,1.443
2026-05-23 12:44:55.334,1423834790,17334,1,0.06152,0.60449,-0.95239,-1.901,0.206,-0.076
2026-05-23 12:44:55.334,1423834790,17334,2,0.33496,0.73486,1.01807,-1.45,1.092,1.282
2026-05-23 12:44:55.534,1423834990,17534,1,0.07129,0.60449,-0.9563,-1.832,0.313,0.008
2026-05-23 12:44:55.534,1423834990,17534,2,0.33569,0.73535,1.01807,-1.29,1.031,1.321
2026-05-23 12:44:55.734,1423835190,17734,1,0.06396,0.60498,-0.95557,-1.786,0.305,-0.038
2026-05-23 12:44:55.734,1423835190,17734,2,0.33423,0.73779,1.02124,-1.038,1.069,1.221
2026-05-23 12:44:55.934,1423835390,17934,1,0.06543,0.60938,-0.94653,-1.832,0.229,0.031
2026-05-23 12:44:55.934,1423835390,17934,2,0.33691,0.7356,1.01172,-1.176,0.908,1.397
2026-05-23 12:44:56.152,1423835608,18152,1,0.06494,0.60449,-0.96777,-1.969,0.443,
2026-05-23 12:44:56.152,1423835608,18152,2,0.34131,0.73877,1.02441,-1.328,1.221,1.237
2026-05-23 12:44:56.352,1423835808,18352,1,0.06201,0.60693,-0.95801,-1.901,0.328,0.038
2026-05-23 12:44:56.352,1423835808,18352,2,0.33594,0.73706,1.01904,-1.076,1.244,1.466
2026-05-23 12:44:56.552,1423836008,18552,1,0.06616,0.60156,-0.95239,-1.87,0.366,-0.061
2026-05-23 12:44:56.552,1423836008,18552,2,0.33618,0.73877,1.00903,-1.0,1.046,1.107
2026-05-23 12:44:56.752,1423836208,18752,1,0.0625,0.59912,-0.96606,-1.779,0.588,-0.023
2026-05-23 12:44:56.752,1423836208,18752,2,0.33716,0.73682,1.01978,-1.099,1.13,1.298
2026-05-23 12:44:56.952,1423836408,18952,1,0.06763,0.6123,-0.95239,-1.748,0.458,0.069
2026-05-23 12:44:56.952,1423836408,18952,2,0.33057,0.73975,1.00781,-1.183,1.183,1.466
2026-05-23 12:44:57.152,1423836608,19152,1,0.06689,0.59766,-0.9646,-2.0,0.458,0.053
2026-05-23 12:44:57.152,1423836608,19152,2,0.33398,0.73608,1.01636,-1.305,1.092,1.405
2026-05-23 12:44:57.352,1423836808,19352,1,0.06299,0.60229,-0.94336,-1.756,0.122,0.092
2026-05-23 12:44:57.352,1423836808,19352,2,0.33813,0.73657,1.01294,-1.237,1.084,1.313
2026-05-23 12:44:57.552,1423837008,19552,1,0.06592,0.60425,-0.95776,-2.031,0.359,0.023
2026-05-23 12:44:57.552,1423837008,19552,2,0.33667,0.73438,1.01514,-1.427,1.214,1.389
2026-05-23 12:44:57.752,1423837208,19752,1,0.06616,0.6084,-0.9563,-1.74,0.321,0.122
2026-05-23 12:44:57.752,1423837208,19752,2,0.33179,0.73511,1.0127,-1.267,1.061,1.206
2026-05-23 12:44:57.952,1423837408,19952,1,0.0603,0.60254,-0.95703,-1.687,0.489,-0.092
2026-05-23 12:44:57.952,1423837408,19952,2,0.32739,0.73779,1.01831,-2.015,1.412,1.542
2026-05-23 12:44:58.152,1423837608,20152,1,0.05859,0.60303,-0.95215,-2.0,0.359,-0.031
2026-05-23 12:44:58.152,1423837608,20152,2,0.33325,0.73438,1.02246,-1.679,1.313,1.55
2026-05-23 12:44:58.352,1423837808,20352,1,0.06689,0.60474,-0.95361,-1.802,0.206,-0.137
2026-05-23 12:44:58.352,1423837808,20352,2,0.3313,0.73096,1.02661,-1.084,1.214,1.267
2026-05-23 12:44:58.552,1423838008,20552,1,0.06738,0.60425,-0.95679,-1.748,0.427,-0.092
2026-05-23 12:44:58.552,1423838008,20552,2,0.33423,0.73413,1.01733,-0.771,0.916,1.328
2026-05-23 12:44:58.752,1423838208,20752,1,0.06519,0.60327,-0.96289,-1.924,0.313,-0.008
2026-05-23 12:44:58.752,1423838208,20752,2,0.32861,0.72876,1.02441,-1.137,1.267,1.344
2026-05-23 12:44:58.952,1423838408,20952,1,0.06665,0.60571,-0.94995,-1.725,0.397,-0.023
2026-05-23 12:44:58.952,1423838408,20952,2,0.33911,0.7373,1.02124,-1.191,1.069,1.321
2026-05-23 12:44:59.152,1423838608,21152,1,0.06836,0.60059,-0.95825,-1.687,0.336,-0.092
2026-05-23 12:44:59.152,1423838608,21152,2,0.33423,0.73267,1.01318,-1.336,1.076,1.374
2026-05-23 12:44:59.352,1423838808,21352,1,0.06299,0.60474,-0.95923,-1.924,0.29,0.031
2026-05-23 12:44:59.352,1423838808,21352,2,0.32983,0.73804,1.01392,-0.718,1.13,1.198
2026-05-23 12:44:59.552,1423839008,21552,1,0.05664,0.6084,-0.9502,-1.725,0.305,-0.015
2026-05-23 12:44:59.552,1423839008,21552,2,0.32715,0.72803,1.02417,-0.84,1.115,1.137
2026-05-23 12:44:59.752,1423839208,21752,1,0.05908,0.60645,-0.96387,-1.817,0.336,-0.099
2026-05-23 12:44:59.752,1423839208,21752,2,0.32104,0.73706,1.02197,-1.511,1.069,1.298
2026-05-23 12:45:00.977,1423840433,21977,1,0.06177,0.60547,-0.9563,-1.725,0.275,-0.046
2026-05-23 12:45:00.977,1423840433,21977,2,0.32983,0.73779,1.01929,-0.855,1.038,1.183
2026-05-23 12:45:00.177,1423839633,22177,1,0.06738,0.60278,-0.95435,-1.832,0.397,-0.069
2026-05-23 12:45:00.177,1423839633,22177,2,0.33008,0.73413,1.01782,-1.008,1.16,1.244
2026-05-23 12:45:00.377,1423839833,22377,1,0.07153,0.60059,-0.95361,-1.756,0.252,-0.053
2026-05-23 12:45:00.377,1423839833,22377,2,0.33472,0.73193,1.0188,-1.229,1.198,1.458
2026-05-23 12:45:00.577,1423840033,22577,1,0.06079,0.60645,-0.94849,-1.901,0.397,-0.092
2026-05-23 12:45:00.577,1423840033,22577,2,0.33691,0.73633,1.01904,-1.74,1.374,1.389
2026-05-23 12:45:00.777,1423840233,22777,1,0.06519,0.60376,-0.95239,-1.924,0.244,0.107
2026-05-23 12:45:00.777,1423840233,22777,2,0.33594,0.73926,1.01953,-1.061,1.214,1.481
2026-05-23 12:45:01.987,1423841443,22987,1,0.06421,0.60669,-0.95264,-1.725,0.344,0.023
2026-05-23 12:45:01.987,1423841443,22987,2,0.34058,0.73706,1.01636,-1.046,1.344,1.328
2026-05-23 12:45:01.187,1423840643,23187,1,0.0647,0.60254,-0.95557,-1.58,0.328,0.053
2026-05-23 12:45:01.187,1423840643,23187,2,0.33765,0.73657,1.01831,-1.168,1.137,1.26
2026-05-23 12:45:01.387,1423840843,23387,1,0.06323,0.60522,-0.95044,-1.794,0.42,-0.122
2026-05-23 12:45:01.387,1423840843,23387,2,0.33252,0.7334,1.02002,-1.313,1.183,1.321
2026-05-23 12:45:01.587,1423841043,23587,1,0.06348,0.61035,-0.95264,-1.824,0.321,-0.145
2026-05-23 12:45:01.587,1423841043,23587,2,0.33521,0.73071,1.02246,-1.221,1.168,1.244
2026-05-23 12:45:01.787,1423841243,23787,1,0.06348,0.60791,-0.95776,-1.847,0.214,0.16
2026-05-23 12:45:01.787,1423841243,23787,2,0.33374,0.73804,1.01831,-1.183,1.145,1.389
2026-05-23 12:45:02.987,1423842443,23987,1,0.06494,0.60205,-0.95825,-1.71,0.359,-0.176
2026-05-23 12:45:02.987,1423842443,23987,2,0.33276,0.73071,1.01318,-1.176,1.061,1.29
2026-05-23 12:45:02.187,1423841643,24187,1,0.06543,0.60718,-0.9563,-1.832,0.511,0.038
2026-05-23 12:45:02.187,1423841643,24187,2,0.33423,0.73779,1.02075,-1.305,0.992,1.244
2026-05-23 12:45:02.387,1423841843,24387,1,0.0647,0.60205,-0.9541,-1.794,0.282,-0.061
2026-05-23 12:45:02.387,1423841843,24387,2,0.33691,0.73853,1.0144,-1.351,1.084,1.412
2026-05-23 12:45:02.587,1423842043,24587,1,0.05908,0.60498,-0.94995,-1.924,0.107,-0.099
2026-05-23 12:45:02.587,1423842043,24587,2,0.33496,0.73218,1.01611,-1.038,1.13,1.29
2026-05-23 12:45:02.802,1423842258,24802,1,0.06738,0.60425,-0.95532,-1.687,0.26,-0.153
2026-05-23 12:45:02.802,1423842258,24802,2,0.33398,0.73267,1.01953,-1.374,1.145,1.229
2026-05-23 12:45:03.002,1423842458,25002,1,0.06323,0.60205,-0.95239,-1.954,0.115,-0.061
2026-05-23 12:45:03.002,1423842458,25002,2,0.33594,0.73438,1.01318,-1.023,1.145,1.366
2026-05-23 12:45:03.202,1423842658,25202,1,0.06714,0.60327,-0.95898,-1.702,0.183,0.084
2026-05-23 12:45:03.202,1423842658,25202,2,0.33472,0.73438,1.02905,-0.802,1.076,1.229
2026-05-23 12:45:03.402,1423842858,25402,1,0.05737,0.60547,-0.95386,-1.901,0.321,0.16
2026-05-23 12:45:03.402,1423842858,25402,2,0.33765,0.73096,1.02075,-1.229,1.168,1.351
2026-05-23 12:45:03.602,1423843058,25602,1,0.06641,0.60059,-0.95752,-1.763,0.153,0.031
2026-05-23 12:45:03.602,1423843058,25602,2,0.34106,0.73438,1.01709,-1.16,1.229,1.359
2026-05-23 12:45:03.864,1423843320,25864,1,0.06226,0.60938,-0.95117,-1.763,0.305,-0.13
2026-05-23 12:45:03.864,1423843320,25864,2,0.33252,0.73608,1.01929,-1.328,1.244,1.634
2026-05-23 12:45:04.064,1423843520,26064,1,0.06494,0.60034,-0.95825,-1.824,0.321,-0.023
2026-05-23 12:45:04.064,1423843520,26064,2,0.33398,0.72925,1.01489,-1.122,1.107,1.351
2026-05-23 12:45:04.264,1423843720,26264,1,0.06616,0.60449,-0.95972,-1.756,0.252,
2026-05-23 12:45:04.264,1423843720,26264,2,0.31689,0.75293,1.03564,-6.649,0.885,1.481
2026-05-23 12:45:04.464,1423843920,26464,1,0.06689,0.60449,-0.95264,-1.595,0.275,-0.153
2026-05-23 12:45:04.464,1423843920,26464,2,0.34668,0.74072,1.01636,-0.603,1.344,1.42
2026-05-23 12:45:04.664,1423844120,26664,1,0.06396,0.6084,-0.95825,-1.55,0.336,-0.122
2026-05-23 12:45:04.664,1423844120,26664,2,0.33228,0.73926,1.01782,-1.328,1.221,1.168
2026-05-23 12:45:04.864,1423844320,26864,1,0.06396,0.59888,-0.96094,-2.71,0.076,0.267
2026-05-23 12:45:04.864,1423844320,26864,2,0.33423,0.73218,1.01709,-1.099,1.42,1.489
2026-05-23 12:45:05.064,1423844520,27064,1,0.0686,0.60352,-0.95459,-2.099,0.344,
2026-05-23 12:45:05.064,1423844520,27064,2,0.33618,0.73657,1.02368,-1.176,1.466,1.55
2026-05-23 12:45:05.264,1423844720,27264,1,0.06738,0.6123,-0.95532,-1.985,0.168,0.099
2026-05-23 12:45:05.264,1423844720,27264,2,0.33301,0.73486,1.01416,-1.16,1.305,1.473
2026-05-23 12:45:05.464,1423844920,27464,1,0.06372,0.60547,-0.9585,-1.863,0.191,-0.046
2026-05-23 12:45:05.464,1423844920,27464,2,0.33594,0.73828,1.01074,-1.26,1.084,1.489
2026-05-23 12:45:05.744,1423845200,27744,1,0.0708,0.60278,-0.95605,-1.74,0.504,-0.015
2026-05-23 12:45:05.744,1423845200,27744,2,0.33789,0.72998,1.01489,-0.756,0.916,1.458
2026-05-23 12:45:05.944,1423845400,27944,1,0.06641,0.59985,-0.95605,-1.656,0.214,0.084
2026-05-23 12:45:05.944,1423845400,27944,2,0.33301,0.73291,1.02026,-1.565,1.305,1.366
2026-05-23 12:45:06.144,1423845600,28144,1,0.05664,0.60132,-0.9563,-1.763,0.191,0.023
2026-05-23 12:45:06.144,1423845600,28144,2,0.33667,0.73364,1.01587,-1.58,1.168,1.313
2026-05-23 12:45:06.344,1423845800,28344,1,0.06274,0.60645,-0.95239,-1.794,0.397,-0.053
2026-05-23 12:45:06.344,1423845800,28344,2,0.3335,0.72607,1.01294,-1.214,1.191,1.321
2026-05-23 12:45:06.544,1423846000,28544,1,0.06226,0.60669,-0.95483,-1.832,0.229,-0.176
2026-05-23 12:45:06.544,1423846000,28544,2,0.33521,0.72803,1.00854,-1.344,1.13,1.374
2026-05-23 12:45:06.744,1423846200,28744,1,0.06787,0.60449,-0.9563,-1.702,0.061,-0.061
2026-05-23 12:45:06.744,1423846200,28744,2,0.33301,0.73145,1.01709,-1.153,1.244,1.275
2026-05-23 12:45:06.944,1423846400,28944,1,0.06201,0.60278,-0.9563,-1.588,0.206,-0.122
2026-05-23 12:45:06.944,1423846400,28944,2,0.33887,0.74146,1.01709,-1.13,1.191,1.42
2026-05-23 12:45:07.144,1423846600,29144,1,0.06543,0.60327,-0.9519,-1.756,0.435,-0.023
2026-05-23 12:45:07.144,1423846600,29144,2,0.32886,0.73657,1.00928,-1.099,1.031,1.221
2026-05-23 12:45:07.344,1423846800,29344,1,0.05713,0.60352,-0.95435,-1.74,0.198,-0.176
2026-05-23 12:45:07.344,1423846800,29344,2,0.33545,0.73193,1.01953,-0.908,1.076,1.267
2026-05-23 12:45:07.544,1423847000,29544,1,0.06152,0.60156,-0.9519,-2.053,0.229,-0.015
2026-05-23 12:45:07.544,1423847000,29544,2,0.33569,0.73169,1.01611,-0.893,1.053,1.099
2026-05-23 12:45:07.744,1423847200,29744,1,0.06494,0.60938,-0.95801,-1.893,0.214,-0.031
2026-05-23 12:45:07.744,1423847200,29744,2,0.3374,0.73755,1.01758,-1.221,1.092,1.511
2026-05-23 12:45:07.944,1423847400,29944,1,0.0686,0.60669,-0.95532,-1.595,0.275,0.092
2026-05-23 12:45:07.944,1423847400,29944,2,0.32935,0.73242,1.02759,-1.511,1.267,1.55
2026-05-23 12:45:08.144,1423847600,30144,1,0.05835,0.604,-0.95972,-1.756,0.206,-0.137
2026-05-23 12:45:08.144,1423847600,30144,2,0.34082,0.73682,1.01904,-1.275,1.29,1.267
2026-05-23 12:45:08.344,1423847800,30344,1,0.0603,0.60742,-0.96045,-1.74,0.221,-0.015
2026-05-23 12:45:08.344,1423847800,30344,2,0.33569,0.72925,1.01465,-1.137,0.977,1.145
2026-05-23T12:52:40.991528,,,,,,,,,
2026-05-23T12:53:03.317658,,,,,,,,,
2026-05-23T12:54:59.726892,,,,,,,,,
2026-05-23T12:55:36.498506,,,,,,,,,
2026-05-23T12:55:47.357539,,,,,,,,,
2026-05-23 12:55:46.589,1424486045,5589,1,0.06714,0.61182,-0.95093,-1.802,0.374,-0.023
2026-05-23 12:55:46.589,1424486045,5589,2,0.41748,0.6687,1.04297,-1.176,1.298,1.275
2026-05-23 12:55:46.789,1424486245,5789,1,0.06226,0.61035,-0.95776,-1.87,0.183,-0.122
2026-05-23 12:55:46.789,1424486245,5789,2,0.41382,0.66528,1.03906,-1.198,1.244,1.191
2026-05-23 12:55:51.889,1424491345,10889,1,0.06128,0.60156,-0.95337,-1.893,0.405,0.015
2026-05-23 12:55:51.889,1424491345,10889,2,0.41113,0.67139,1.0481,-1.305,1.153,1.344
2026-05-23 12:55:52.089,1424491545,11089,1,0.06836,0.60889,-0.95044,-1.809,0.13,-0.13
2026-05-23 12:55:52.089,1424491545,11089,2,0.41577,0.67285,1.04468,-1.061,1.214,1.229
2026-05-23 12:55:52.289,1424491745,11289,1,0.06323,0.61548,-0.9563,-1.802,0.496,-0.092
2026-05-23 12:55:52.289,1424491745,11289,2,0.4209,0.67188,1.03931,-1.221,1.298,1.366
2026-05-23 12:55:52.489,1424491945,11489,1,0.06543,0.60815,-0.94995,-1.779,0.13,-0.221
2026-05-23 12:55:52.489,1424491945,11489,2,0.41943,0.67188,1.04785,-1.13,1.305,1.198
2026-05-23 12:55:57.601,1424497057,16601,1,0.06299,0.60669,-0.94775,-1.908,0.473,0.015
2026-05-23 12:55:57.601,1424497057,16601,2,0.41162,0.67139,1.03882,-0.786,0.992,1.084
2026-05-23 12:55:57.801,1424497257,16801,1,0.06592,0.60718,-0.94702,-1.954,0.168,0.038
2026-05-23 12:55:57.801,1424497257,16801,2,0.41309,0.66577,1.05029,-0.718,1.023,1.214
2026-05-23 12:55:58.001,1424497457,17001,1,0.06323,0.61304,-0.94727,-1.763,0.458,0.008
2026-05-23 12:55:58.001,1424497457,17001,2,0.40771,0.66846,1.04541,-1.817,1.244,1.412
2026-05-23 12:55:58.201,1424497657,17201,1,0.06616,0.60815,-0.96094,-1.947,0.282,-0.115
2026-05-23 12:55:58.201,1424497657,17201,2,0.41431,0.66431,1.03955,-1.244,1.092,1.282
2026-05-23 12:55:58.401,1424497857,17401,1,0.073,0.60913,-0.94995,-1.695,0.282,-0.153
2026-05-23 12:55:58.401,1424497857,17401,2,0.41333,0.66797,1.04053,-0.809,1.076,1.145
2026-05-23 12:55:58.601,1424498057,17601,1,0.06958,0.60571,-0.95313,-1.847,0.282,-0.115
2026-05-23 12:55:58.601,1424498057,17601,2,0.41162,0.66992,1.04932,-0.931,1.26,1.29
2026-05-23 12:55:58.801,1424498257,17801,1,0.06958,0.61157,-0.94751,-1.779,0.252,0.023
2026-05-23 12:55:58.801,1424498257,17801,2,0.41089,0.67065,1.04468,-0.931,1.038,1.366
2026-05-23 12:55:59.001,1424498457,18001,1,0.06787,0.61133,-0.93726,-1.58,0.321,-0.282
2026-05-23 12:55:59.001,1424498457,18001,2,0.41943,0.66357,1.04565,-0.924,0.962,1.244
2026-05-23 12:55:59.201,1424498657,18201,1,0.06787,0.61304,-0.94287,-1.656,0.427,-0.13
2026-05-23 12:55:59.201,1424498657,18201,2,0.41455,0.66602,1.03638,-1.244,1.244,1.183
2026-05-23 12:56:02.062,1424501518,21062,1,0.0686,0.61621,-0.94727,-1.878,0.351,-0.031
2026-05-23 12:56:02.062,1424501518,21062,2,0.41309,0.66626,1.04907,-1.267,1.145,1.145
2026-05-23 12:56:02.262,1424501718,21262,1,0.07031,0.60669,-0.94897,-1.878,0.214,
2026-05-23 12:56:02.262,1424501718,21262,2,0.41479,0.6665,1.04028,-1.153,1.115,1.153
2026-05-23 12:56:02.462,1424501918,21462,1,0.06372,0.60767,-0.95239,-1.756,0.267,-0.229
2026-05-23 12:56:02.462,1424501918,21462,2,0.41504,0.66431,1.0354,-1.015,1.282,1.229
2026-05-23 12:56:02.662,1424502118,21662,1,0.06812,0.60742,-0.95508,-1.748,0.16,-0.221
2026-05-23 12:56:02.662,1424502118,21662,2,0.41431,0.67505,1.03564,-1.26,1.13,1.397
2026-05-23 12:56:02.862,1424502318,21862,1,0.07227,0.6084,-0.95142,-1.756,0.069,-0.069
2026-05-23 12:56:02.862,1424502318,21862,2,0.41382,0.66895,1.0459,-1.198,0.87,1.26
2026-05-23 12:56:03.062,1424502518,22062,1,0.06714,0.60864,-0.94751,-1.916,0.542,0.023
2026-05-23 12:56:03.062,1424502518,22062,2,0.41553,0.66846,1.03857,-0.901,1.397,1.168
2026-05-23 12:56:03.262,1424502718,22262,1,0.07031,0.61035,-0.95508,-1.748,0.496,-0.153
2026-05-23 12:56:03.262,1424502718,22262,2,0.4165,0.66577,1.0437,-1.16,1.168,1.153
2026-05-23 12:56:03.462,1424502918,22462,1,0.06641,0.61182,-0.95386,-1.55,0.092,0.031
2026-05-23 12:56:03.462,1424502918,22462,2,0.42065,0.66357,1.0437,-1.595,1.282,1.313
2026-05-23 12:56:03.662,1424503118,22662,1,0.06982,0.61108,-0.9502,-1.809,0.328,-0.107
2026-05-23 12:56:03.662,1424503118,22662,2,0.41089,0.66992,1.03979,-1.084,1.153,1.389
2026-05-23 12:56:03.862,1424503318,22862,1,0.06763,0.60938,-0.95142,-1.71,0.221,-0.115
2026-05-23 12:56:03.862,1424503318,22862,2,0.41187,0.6626,1.04492,-1.244,1.321,1.405
2026-05-23 12:56:04.062,1424503518,23062,1,0.07275,0.60693,-0.94775,-1.71,0.45,-0.107
2026-05-23 12:56:04.062,1424503518,23062,2,0.41602,0.6687,1.04321,-1.053,1.183,1.206
2026-05-23 12:56:04.262,1424503718,23262,1,0.07251,0.61011,-0.95654,-1.725,0.397,-0.153
2026-05-23 12:56:04.262,1424503718,23262,2,0.40869,0.6731,1.04175,-1.237,1.176,1.336
2026-05-23 12:56:04.462,1424503918,23462,1,0.06714,0.61499,-0.95337,-1.817,0.191,0.015
2026-05-23 12:56:04.462,1424503918,23462,2,0.41553,0.67041,1.05078,-1.038,1.244,1.374
2026-05-23 12:56:04.662,1424504118,23662,1,0.06909,0.60693,-0.95752,-1.885,0.359,0.13
2026-05-23 12:56:04.662,1424504118,23662,2,0.4165,0.67236,1.04248,-1.267,1.252,1.221
2026-05-23 12:56:04.862,1424504318,23862,1,0.06885,0.61304,-0.96655,-1.626,0.344,-0.16
2026-05-23 12:56:04.862,1424504318,23862,2,0.41333,0.67822,1.04785,-1.313,1.237,1.351
2026-05-23 12:56:05.062,1424504518,24062,1,0.07324,0.61182,-0.95605,-1.817,0.405,-0.038
2026-05-23 12:56:05.062,1424504518,24062,2,0.41846,0.6709,1.04321,-1.145,1.076,1.366
2026-05-23 12:56:05.262,1424504718,24262,1,0.07007,0.60889,-0.94897,-1.878,0.511,-0.122
2026-05-23 12:56:05.262,1424504718,24262,2,0.41577,0.66309,1.04004,-1.321,1.092,1.183
2026-05-23 12:56:05.462,1424504918,24462,1,0.06445,0.6062,-0.94629,-1.779,0.061,
2026-05-23 12:56:05.462,1424504918,24462,2,0.4126,0.66626,1.0415,-0.969,1.214,1.275
2026-05-23 12:56:05.662,1424505118,24662,1,0.06494,0.6123,-0.94849,-1.985,0.366,-0.122
2026-05-23 12:56:05.662,1424505118,24662,2,0.41309,0.66382,1.04834,-1.718,1.328,1.466
2026-05-23 12:56:05.862,1424505318,24862,1,0.06787,0.61011,-0.95313,-1.802,0.298,0.015
2026-05-23 12:56:05.862,1424505318,24862,2,0.41602,0.6731,1.03882,-1.771,1.588,1.443
2026-05-23 12:56:06.062,1424505518,25062,1,0.06592,0.60669,-0.95142,-1.786,0.069,-0.183
2026-05-23 12:56:06.062,1424505518,25062,2,0.41113,0.66113,1.0459,-1.023,1.16,1.076
2026-05-23 12:56:06.262,1424505718,25262,1,0.06958,0.60449,-0.9502,-1.779,0.336,-0.046
2026-05-23 12:56:06.262,1424505718,25262,2,0.41333,0.66187,1.04395,-1.397,1.282,1.229
2026-05-23 12:56:06.462,1424505918,25462,1,0.07129,0.6123,-0.94458,-1.679,0.275,-0.137
2026-05-23 12:56:06.462,1424505918,25462,2,0.41772,0.66528,1.03882,-0.969,1.069,1.267
2026-05-23 12:56:06.662,1424506118,25662,1,0.06592,0.6084,-0.95068,-1.679,0.58,-0.145
2026-05-23 12:56:06.662,1424506118,25662,2,0.41602,0.66846,1.03613,-1.137,1.321,1.374
2026-05-23 12:56:06.862,1424506318,25862,1,0.07617,0.61108,-0.9541,-1.748,0.351,0.015
2026-05-23 12:56:06.862,1424506318,25862,2,0.41138,0.66724,1.04932,-0.817,1.229,1.176
2026-05-23 12:56:07.062,1424506518,26062,1,0.06787,0.6084,-0.95557,-1.641,0.496,-0.176
2026-05-23 12:56:07.062,1424506518,26062,2,0.41431,0.67114,1.04565,-1.412,1.176,1.229
2026-05-23 12:56:07.262,1424506718,26262,1,0.06299,0.60938,-0.94922,-1.664,0.29,-0.015
2026-05-23 12:56:07.262,1424506718,26262,2,0.41992,0.66577,1.04883,-0.924,1.153,1.191
2026-05-23 12:56:07.462,1424506918,26462,1,0.06201,0.60864,-0.9436,-2.015,0.351,-0.206
2026-05-23 12:56:07.462,1424506918,26462,2,0.41162,0.67261,1.05103,-1.115,1.397,1.489
2026-05-23 12:56:07.662,1424507118,26662,1,0.07642,0.60962,-0.95337,-1.855,0.344,-0.092
2026-05-23 12:56:07.662,1424507118,26662,2,0.4209,0.66528,1.04834,-0.687,1.137,0.962
2026-05-23 12:56:07.862,1424507318,26862,1,0.06934,0.60938,-0.9519,-1.947,0.153,-0.115
2026-05-23 12:56:07.862,1424507318,26862,2,0.42139,0.66919,1.04248,-1.344,1.122,1.244
2026-05-23 12:56:08.062,1424507518,27062,1,0.06909,0.6084,-0.95142,-1.748,0.374,-0.198
2026-05-23 12:56:08.062,1424507518,27062,2,0.4165,0.67139,1.04639,-1.191,1.122,1.389
2026-05-23 12:56:08.262,1424507718,27262,1,0.06665,0.60815,-0.95044,-1.779,0.366,0.046
2026-05-23 12:56:08.262,1424507718,27262,2,0.41724,0.6626,1.04712,-1.267,1.099,1.145
2026-05-23 12:56:08.462,1424507918,27462,1,0.06519,0.61255,-0.95508,-1.863,0.489,0.023
2026-05-23 12:56:08.462,1424507918,27462,2,0.41919,0.66748,1.03931,-1.176,1.084,1.252
2026-05-23 12:56:08.662,1424508118,27662,1,0.06738,0.60889,-0.948,-1.71,0.321,-0.13
2026-05-23 12:56:08.662,1424508118,27662,2,0.42065,0.67773,1.03345,-1.023,1.206,1.412
2026-05-23 12:56:08.862,1424508318,27862,1,0.06885,0.60864,-0.94482,-1.832,0.267,-0.038
2026-05-23 12:56:08.862,1424508318,27862,2,0.41357,0.66211,1.04028,-1.176,1.328,1.305
2026-05-23 12:56:09.062,1424508518,28062,1,0.07373,0.60571,-0.95386,-2.389,0.237,-0.191
2026-05-23 12:56:09.062,1424508518,28062,2,0.40942,0.6626,1.0459,-1.328,1.153,1.198
2026-05-23 12:56:09.262,1424508718,28262,1,0.05103,0.625,-0.96875,-4.611,0.603,0.511
2026-05-23 12:56:09.262,1424508718,28262,2,0.41772,0.67261,1.04004,-0.374,2.275,2.191
2026-05-23 12:56:09.462,1424508918,28462,1,0.06909,0.60815,-0.95068,-1.305,0.435,0.031
2026-05-23 12:56:09.462,1424508918,28462,2,0.41968,0.67651,1.03809,-0.71,1.046,0.954
2026-05-23 12:56:09.662,1424509118,28662,1,0.06567,0.6106,-0.95459,-2.092,0.382,-0.115
2026-05-23 12:56:09.662,1424509118,28662,2,0.41504,0.66382,1.0376,-0.855,1.176,1.107
2026-05-23 12:56:09.862,1424509318,28862,1,0.06616,0.60498,-0.9563,-1.771,0.458,-0.061
2026-05-23 12:56:09.862,1424509318,28862,2,0.41431,0.66333,1.04785,-1.664,1.038,1.328
2026-05-23 12:56:10.062,1424509518,29062,1,0.06909,0.61792,-0.96045,-1.84,0.252,-0.168
2026-05-23 12:56:10.062,1424509518,29062,2,0.41479,0.66797,1.03809,-2.702,1.321,2.176
2026-05-23 12:56:10.262,1424509718,29262,1,0.07471,0.60962,-0.9436,-1.847,0.237,-0.038
2026-05-23 12:56:10.262,1424509718,29262,2,0.41577,0.66992,1.04468,-0.374,1.115,0.802
2026-05-23 12:56:10.462,1424509918,29462,1,0.06763,0.61011,-0.94873,-2.038,0.427,-0.221
2026-05-23 12:56:10.462,1424509918,29462,2,0.4231,0.6687,1.04614,-1.344,1.229,1.031
2026-05-23 12:56:10.662,1424510118,29662,1,0.06592,0.61499,-0.95947,-1.954,0.198,-0.015
2026-05-23 12:56:10.662,1424510118,29662,2,0.41064,0.6626,1.04907,-1.275,1.137,1.16
2026-05-23 12:56:10.862,1424510318,29862,1,0.07007,0.60742,-0.94507,-1.809,0.107,-0.176
2026-05-23 12:56:10.862,1424510318,29862,2,0.41113,0.67236,1.03857,-1.053,1.198,1.366
2026-05-23 12:56:11.062,1424510518,30062,1,0.07373,0.59521,-0.95386,-2.458,0.382,-0.038
2026-05-23 12:56:11.062,1424510518,30062,2,0.42358,0.67065,1.04321,-0.824,1.565,2.145
2026-05-23 12:56:11.262,1424510718,30262,1,0.0686,0.61206,-0.94312,-1.74,0.412,-0.053
2026-05-23 12:56:11.262,1424510718,30262,2,0.4165,0.66406,1.04614,-1.252,1.427,1.45
2026-05-23 12:56:11.462,1424510918,30462,1,0.06616,0.61328,-0.95044,-1.679,0.328,-0.13
2026-05-23 12:56:11.462,1424510918,30462,2,0.42188,0.6687,1.0498,-1.053,1.359,1.191
2026-05-23 12:56:11.662,1424511118,30662,1,0.07275,0.61035,-0.95166,-1.42,0.198,-0.168
2026-05-23 12:56:11.662,1424511118,30662,2,0.41162,0.67383,1.04517,-0.489,0.931,0.931
2026-05-23 12:56:11.862,1424511318,30862,1,0.06689,0.60303,-0.95386,-1.924,0.267,
2026-05-23 12:56:11.862,1424511318,30862,2,0.41431,0.66821,1.04321,-0.55,1.015,0.893
2026-05-23 12:56:12.062,1424511518,31062,1,0.06372,0.61719,-0.94897,-1.824,0.26,-0.092
2026-05-23 12:56:12.062,1424511518,31062,2,0.41284,0.6687,1.03662,-0.924,0.969,1.359
2026-05-23 12:56:12.262,1424511718,31262,1,0.06445,0.60889,-0.95166,-1.588,0.443,-0.069
2026-05-23 12:56:12.262,1424511718,31262,2,0.41968,0.67114,1.0415,-1.527,1.092,1.176
2026-05-23 12:56:12.462,1424511918,31462,1,0.06641,0.60645,-0.94653,-1.779,0.42,-0.084
2026-05-23 12:56:12.462,1424511918,31462,2,0.41821,0.66626,1.04785,-1.115,1.237,1.557
2026-05-23 12:56:12.662,1424512118,31662,1,0.06885,0.60425,-0.96338,-1.718,0.511,-0.176
2026-05-23 12:56:12.662,1424512118,31662,2,0.41602,0.66797,1.03687,-1.008,1.13,1.298
2026-05-23 12:56:12.862,1424512318,31862,1,0.07007,0.60352,-0.94922,-2.107,0.252,-0.061
2026-05-23 12:56:12.862,1424512318,31862,2,0.40796,0.66309,1.04199,-1.221,1.221,1.298
2026-05-23 12:56:13.062,1424512518,32062,1,0.06714,0.61084,-0.95361,-1.947,0.42,-0.084
2026-05-23 12:56:13.062,1424512518,32062,2,0.40942,0.66724,1.04126,-1.351,1.244,1.366
2026-05-23 12:56:13.262,1424512718,32262,1,0.06543,0.60376,-0.94897,-1.931,0.29,-0.282
2026-05-23 12:56:13.262,1424512718,32262,2,0.41626,0.67017,1.03809,-0.534,1.168,1.115
2026-05-23 12:56:13.462,1424512918,32462,1,0.0647,0.61011,-0.95435,-2.282,0.282,0.031
2026-05-23 12:56:13.462,1424512918,32462,2,0.41675,0.66943,1.04541,-1.802,1.412,1.534
2026-05-23 12:56:13.662,1424513118,32662,1,0.06201,0.60986,-0.95166,-1.702,0.359,-0.061
2026-05-23 12:56:13.662,1424513118,32662,2,0.41821,0.66479,1.03662,-0.962,1.176,1.214
2026-05-23 12:56:13.862,1424513318,32862,1,0.06934,0.60645,-0.95703,-2.145,0.466,0.008
2026-05-23 12:56:13.862,1424513318,32862,2,0.40918,0.67188,1.04028,-2.29,0.885,1.496
2026-05-23 12:56:14.062,1424513518,33062,1,0.07886,0.60522,-0.94507,-1.603,0.427,-0.206
2026-05-23 12:56:14.062,1424513518,33062,2,0.42578,0.67285,1.04541,-0.969,1.061,0.832
2026-05-23 12:56:14.262,1424513718,33262,1,0.06958,0.60742,-0.948,-1.748,0.176,-0.282
2026-05-23 12:56:14.262,1424513718,33262,2,0.41162,0.66553,1.04321,-1.397,1.221,1.366
2026-05-23 12:56:14.462,1424513918,33462,1,0.07178,0.60889,-0.95752,-1.924,0.359,-0.191
2026-05-23 12:56:14.462,1424513918,33462,2,0.4126,0.66187,1.04468,-0.855,1.168,1.313
2026-05-23 12:56:14.662,1424514118,33662,1,0.0625,0.61328,-0.96021,-1.802,0.527,-0.031
2026-05-23 12:56:14.662,1424514118,33662,2,0.41992,0.66626,1.0376,-0.771,1.015,1.153
2026-05-23 12:56:14.862,1424514318,33862,1,0.0647,0.6123,-0.94702,-1.947,0.282,-0.16
2026-05-23 12:56:14.862,1424514318,33862,2,0.41724,0.66919,1.04639,-0.893,1.122,1.336
2026-05-23 12:56:15.062,1424514518,34062,1,0.06348,0.60986,-0.95679,-1.802,0.252,-0.198
2026-05-23 12:56:15.062,1424514518,34062,2,0.41772,0.66577,1.04346,-1.061,1.198,1.214
2026-05-23 12:56:15.262,1424514718,34262,1,0.0708,0.61157,-0.95703,-1.786,0.221,0.008
2026-05-23 12:56:15.262,1424514718,34262,2,0.41602,0.66406,1.04443,-1.061,1.076,1.26
2026-05-23 12:56:15.462,1424514918,34462,1,0.06616,0.61157,-0.96021,-1.771,0.176,-0.122
2026-05-23 12:56:15.462,1424514918,34462,2,0.4165,0.66992,1.04688,-1.16,1.397,1.115
2026-05-23 12:56:15.662,1424515118,34662,1,0.06982,0.61035,-0.95044,-1.885,0.275,-0.076
2026-05-23 12:56:15.662,1424515118,34662,2,0.41284,0.66772,1.04639,-1.099,1.176,1.45
2026-05-23 12:56:15.862,1424515318,34862,1,0.06885,0.60083,-0.95142,-1.779,0.351,0.092
2026-05-23 12:56:15.862,1424515318,34862,2,0.41309,0.67017,1.03931,-0.832,1.214,1.221
2026-05-23 12:56:16.062,1424515518,35062,1,0.06982,0.61011,-0.9502,-1.985,0.244,0.076
2026-05-23 12:56:16.062,1424515518,35062,2,0.4187,0.66504,1.03955,-0.947,1.374,1.282
2026-05-23 12:56:16.262,1424515718,35262,1,0.0625,0.61304,-0.94873,-1.847,0.321,0.176
2026-05-23 12:56:16.262,1424515718,35262,2,0.41162,0.66919,1.04395,-1.42,1.198,1.244
2026-05-23 12:56:16.462,1424515918,35462,1,0.06616,0.6123,-0.94629,-1.779,0.366,-0.168
2026-05-23 12:56:16.462,1424515918,35462,2,0.41602,0.67041,1.04175,-1.115,1.252,1.397
2026-05-23 12:56:16.662,1424516118,35662,1,0.06494,0.60571,-0.95386,-1.802,0.366,0.099
2026-05-23 12:56:16.662,1424516118,35662,2,0.41602,0.67114,1.04517,-1.046,1.29,1.214
2026-05-23 12:56:16.885,1424516341,35884,1,0.06714,0.60938,-0.95166,-1.832,0.26,-0.13
2026-05-23 12:56:16.885,1424516341,35884,2,0.41528,0.66943,1.03345,-1.26,1.015,1.237
2026-05-23 12:56:17.084,1424516540,36084,1,0.06763,0.60815,-0.95972,-1.74,0.168,-0.031
2026-05-23 12:56:17.084,1424516540,36084,2,0.41309,0.66797,1.03809,-1.153,1.176,1.351
2026-05-23 12:56:17.284,1424516740,36284,1,0.06372,0.61108,-0.9563,-1.809,0.382,-0.046
2026-05-23 12:56:17.284,1424516740,36284,2,0.41064,0.66797,1.04712,-1.221,1.122,1.427
2026-05-23 12:56:17.484,1424516940,36484,1,0.06836,0.60669,-0.95557,-1.695,0.305,-0.092
2026-05-23 12:56:17.484,1424516940,36484,2,0.41479,0.66968,1.04688,-1.206,1.115,1.221
2026-05-23 12:56:17.684,1424517140,36684,1,0.07202,0.6084,-0.95093,-1.832,0.229,-0.214
2026-05-23 12:56:17.684,1424517140,36684,2,0.41309,0.66992,1.03882,-1.183,1.298,1.275
2026-05-23 12:56:17.884,1424517340,36884,1,0.07007,0.60767,-0.95044,-1.718,0.313,0.115
2026-05-23 12:56:17.884,1424517340,36884,2,0.41113,0.66455,1.04614,-1.191,1.267,1.328
2026-05-23 12:56:18.084,1424517540,37084,1,0.06689,0.61133,-0.94775,-1.763,0.115,-0.237
2026-05-23 12:56:18.084,1424517540,37084,2,0.41455,0.66846,1.04126,-1.29,1.16,1.298
2026-05-23 12:56:18.284,1424517740,37284,1,0.07227,0.6106,-0.94336,-1.771,0.191,-0.046
2026-05-23 12:56:18.284,1424517740,37284,2,0.40845,0.66943,1.052,-0.87,1.137,1.191
2026-05-23 12:56:18.484,1424517940,37484,1,0.07104,0.6062,-0.95264,-1.702,0.137,-0.076
2026-05-23 12:56:18.484,1424517940,37484,2,0.41699,0.66968,1.03687,-1.344,1.26,1.397
2026-05-23 12:56:18.684,1424518140,37684,1,0.07324,0.6062,-0.95044,-1.794,0.275,-0.122
2026-05-23 12:56:18.684,1424518140,37684,2,0.4165,0.67041,1.04102,-1.008,1.069,1.16
2026-05-23 12:56:18.884,1424518340,37884,1,0.07349,0.6106,-0.95239,-1.55,0.191,-0.198
2026-05-23 12:56:18.884,1424518340,37884,2,0.41382,0.66724,1.04565,-1.237,1.282,1.336
2026-05-23 12:56:19.084,1424518540,38084,1,0.0686,0.60718,-0.94775,-1.969,0.275,-0.214
2026-05-23 12:56:19.084,1424518540,38084,2,0.42041,0.6709,1.04492,-1.206,1.168,1.427
2026-05-23 12:56:19.284,1424518740,38284,1,0.07178,0.61084,-0.94995,-1.931,0.42,0.015
2026-05-23 12:56:19.284,1424518740,38284,2,0.40942,0.66846,1.03931,-1.214,1.221,1.389
2026-05-23 12:56:19.484,1424518940,38484,1,0.06396,0.60547,-0.95483,-1.824,0.252,-0.198
2026-05-23 12:56:19.484,1424518940,38484,2,0.41333,0.67065,1.04639,-1.305,1.305,1.221
2026-05-23 12:56:19.684,1424519140,38684,1,0.06763,0.60498,-0.95386,-1.809,0.405,-0.198
2026-05-23 12:56:19.684,1424519140,38684,2,0.41748,0.66968,1.03369,-1.023,1.115,1.389
2026-05-23 12:56:19.884,1424519340,38884,1,0.06616,0.61035,-0.94751,-1.969,0.336,-0.237
2026-05-23 12:56:19.884,1424519340,38884,2,0.41724,0.67529,1.0376,-1.145,1.046,1.145
2026-05-23 12:56:20.084,1424519540,39084,1,0.06836,0.60645,-0.95532,-1.87,0.336,-0.145
2026-05-23 12:56:20.084,1424519540,39084,2,0.41821,0.66675,1.03833,-1.321,1.229,1.282
2026-05-23 12:56:20.284,1424519740,39284,1,0.06445,0.60645,-0.95557,-1.779,0.092,-0.176
2026-05-23 12:56:20.284,1424519740,39284,2,0.41821,0.66455,1.04224,-1.382,1.405,1.496
2026-05-23 12:56:20.484,1424519940,39484,1,0.07642,0.60742,-0.94824,-1.84,0.107,-0.168
2026-05-23 12:56:20.484,1424519940,39484,2,0.41113,0.6665,1.04199,-0.992,1.267,1.366
2026-05-23 12:56:20.684,1424520140,39684,1,0.07349,0.61182,-0.95483,-1.71,0.458,-0.191
2026-05-23 12:56:20.684,1424520140,39684,2,0.41528,0.66821,1.04834,-0.542,1.046,1.115
2026-05-23 12:56:20.884,1424520340,39884,1,0.0686,0.6106,-0.94629,-1.74,0.344,-0.221
2026-05-23 12:56:20.884,1424520340,39884,2,0.41382,0.66699,1.04346,-1.031,1.176,1.267
2026-05-23 12:56:21.084,1424520540,40084,1,0.06763,0.60889,-0.93896,-1.748,0.42,-0.008
2026-05-23 12:56:21.084,1424520540,40084,2,0.4187,0.66406,1.05127,-1.13,1.359,1.374
2026-05-23 12:56:21.284,1424520740,40284,1,0.0686,0.61108,-0.94995,-1.679,0.221,-0.046
2026-05-23 12:56:21.284,1424520740,40284,2,0.41553,0.66577,1.04517,-1.084,1.168,1.351
2026-05-23 12:56:21.484,1424520940,40484,1,0.06812,0.6084,-0.94946,-1.908,0.29,-0.092
2026-05-23 12:56:21.484,1424520940,40484,2,0.41284,0.66724,1.0376,-1.305,1.305,1.29
2026-05-23 12:56:21.684,1424521140,40684,1,0.07056,0.60327,-0.94629,-1.588,0.282,-0.031
2026-05-23 12:56:21.684,1424521140,40684,2,0.41162,0.66919,1.04126,-1.069,1.137,1.359
2026-05-23 12:56:21.884,1424521340,40884,1,0.06714,0.60962,-0.94507,-1.985,0.115,0.076
2026-05-23 12:56:21.884,1424521340,40884,2,0.41943,0.66089,1.04395,-1.221,1.183,1.107
2026-05-23 12:56:27.974,1424527430,45973,1,0.0647,0.60693,-0.95093,-2.374,0.366,0.038
2026-05-23 12:56:27.974,1424527430,45973,2,0.41333,0.66602,1.03784,-1.794,1.305,1.779
2026-05-23 12:56:27.173,1424526629,46173,1,0.06445,0.6123,-0.94067,-1.809,0.275,-0.015
2026-05-23 12:56:27.173,1424526629,46173,2,0.40894,0.66943,1.04443,-1.153,1.221,1.252
2026-05-23 12:56:27.373,1424526829,46373,1,0.06323,0.61035,-0.95239,-1.947,0.221,-0.229
2026-05-23 12:56:27.373,1424526829,46373,2,0.41699,0.6665,1.03809,-0.954,1.252,1.122
2026-05-23 12:56:27.573,1424527029,46573,1,0.07153,0.6062,-0.95532,-1.534,0.305,-0.13
2026-05-23 12:56:27.573,1424527029,46573,2,0.41553,0.66797,1.04053,-1.16,1.092,1.458
2026-05-23 12:56:27.773,1424527229,46773,1,0.0625,0.60938,-0.95435,-1.74,0.412,-0.16
2026-05-23 12:56:27.773,1424527229,46773,2,0.4187,0.66406,1.03271,-0.916,1.298,1.198
2026-05-23 12:56:28.973,1424528429,46973,1,0.06738,0.60864,-0.95093,-1.824,0.229,-0.061
2026-05-23 12:56:28.973,1424528429,46973,2,0.41748,0.66602,1.04688,-1.145,1.153,1.336
2026-05-23 12:56:28.173,1424527629,47173,1,0.06616,0.61304,-0.94897,-1.573,0.397,0.023
2026-05-23 12:56:28.173,1424527629,47173,2,0.40869,0.66797,1.0459,-0.939,1.168,1.237
2026-05-23 12:56:28.373,1424527829,47373,1,0.07153,0.60791,-0.94751,-1.847,0.527,-0.092
2026-05-23 12:56:28.373,1424527829,47373,2,0.41577,0.66943,1.03833,-1.084,0.985,1.237
2026-05-23 12:56:28.573,1424528029,47573,1,0.06372,0.6123,-0.95679,-1.802,0.168,-0.031
2026-05-23 12:56:28.573,1424528029,47573,2,0.41113,0.66333,1.03418,-1.214,1.176,1.252
2026-05-23 12:56:28.773,1424528229,47773,1,0.0625,0.60547,-0.95801,-1.649,0.519,-0.137
2026-05-23 12:56:28.773,1424528229,47773,2,0.41602,0.66553,1.04126,-1.023,1.267,1.145
2026-05-23 12:56:29.973,1424529429,47973,1,0.06494,0.604,-0.95117,-1.802,0.206,-0.069
2026-05-23 12:56:29.973,1424529429,47973,2,0.42212,0.67041,1.04565,-1.008,1.237,1.42
2026-05-23 12:56:29.173,1424528629,48173,1,0.06641,0.60742,-0.95581,-2.069,0.389,-0.084
2026-05-23 12:56:29.173,1424528629,48173,2,0.41333,0.66748,1.04712,-1.153,1.237,1.405
2026-05-23 12:56:29.373,1424528829,48373,1,0.07104,0.60864,-0.95142,-1.84,0.176,-0.145
2026-05-23 12:56:29.373,1424528829,48373,2,0.41089,0.66382,1.04199,-1.275,1.252,1.237
2026-05-23 12:56:29.573,1424529029,48573,1,0.06787,0.60547,-0.94727,-1.695,0.244,0.145
2026-05-23 12:56:29.573,1424529029,48573,2,0.41333,0.66797,1.0354,-0.893,1.122,1.244
2026-05-23 12:56:29.773,1424529229,48773,1,0.06787,0.60767,-0.95117,-1.802,0.443,-0.13
2026-05-23 12:56:29.773,1424529229,48773,2,0.41138,0.66406,1.04272,-0.992,1.099,1.244
2026-05-23 12:56:30.973,1424530429,48973,1,0.06226,0.60962,-0.94702,-1.687,0.221,-0.16
2026-05-23 12:56:30.973,1424530429,48973,2,0.40796,0.66846,1.03613,-1.092,0.74,1.092
2026-05-23 12:56:30.173,1424529629,49173,1,0.06519,0.60718,-0.95581,-1.763,0.26,-0.023
2026-05-23 12:56:30.173,1424529629,49173,2,0.41113,0.65991,1.05127,-1.336,1.55,1.687
2026-05-23 12:56:30.373,1424529829,49373,1,0.06616,0.61084,-0.95239,-1.786,0.115,-0.321
2026-05-23 12:56:30.373,1424529829,49373,2,0.41162,0.6665,1.04248,-1.16,0.908,1.046
2026-05-23 12:56:30.573,1424530029,49573,1,0.06763,0.60327,-0.94751,-1.656,0.427,0.13
2026-05-23 12:56:30.573,1424530029,49573,2,0.41821,0.67188,1.04126,-1.023,0.954,1.13
2026-05-23 12:56:30.773,1424530229,49773,1,0.06787,0.61304,-0.94458,-4.168,0.412,0.183
2026-05-23 12:56:30.773,1424530229,49773,2,0.41504,0.67407,1.04272,0.496,1.634,1.947
2026-05-23 12:56:31.973,1424531429,49973,1,0.06421,0.60693,-0.96021,-2.0,0.26,0.038
2026-05-23 12:56:31.973,1424531429,49973,2,0.41333,0.66992,1.03979,-0.733,1.435,1.336
2026-05-23 12:56:31.173,1424530629,50173,1,0.07178,0.61011,-0.94507,-1.618,0.336,-0.13
2026-05-23 12:56:31.173,1424530629,50173,2,0.41675,0.66602,1.03662,-1.183,1.443,1.115
2026-05-23 12:56:31.373,1424530829,50373,1,0.07129,0.60669,-0.95483,-1.679,0.397,
2026-05-23 12:56:31.373,1424530829,50373,2,0.41064,0.67114,1.04053,-1.489,1.206,1.366
2026-05-23 12:56:31.573,1424531029,50573,1,0.06396,0.60376,-0.94727,-1.916,0.092,-0.015
2026-05-23 12:56:31.573,1424531029,50573,2,0.41089,0.66699,1.03662,-0.527,1.282,1.084
2026-05-23 12:56:31.773,1424531229,50773,1,0.0686,0.6123,-0.9436,-1.733,0.122,-0.046
2026-05-23 12:56:31.773,1424531229,50773,2,0.41504,0.66528,1.0415,-1.053,1.191,1.275
2026-05-23 12:56:32.973,1424532429,50973,1,0.06982,0.60938,-0.94531,-1.611,0.191,-0.183
2026-05-23 12:56:32.973,1424532429,50973,2,0.4104,0.66016,1.04419,-1.344,0.969,1.145
2026-05-23 12:56:32.173,1424531629,51173,1,0.07251,0.61035,-0.94702,-1.626,0.29,-0.038
2026-05-23 12:56:32.173,1424531629,51173,2,0.41211,0.66626,1.03857,-1.206,1.115,1.176
2026-05-23 12:56:32.373,1424531829,51373,1,0.0647,0.60596,-0.95264,-1.878,0.282,0.099
2026-05-23 12:56:32.373,1424531829,51373,2,0.41406,0.66699,1.05444,-1.328,1.153,1.557
2026-05-23 12:56:32.573,1424532029,51573,1,0.06836,0.61084,-0.95239,-1.58,0.42,-0.145
2026-05-23 12:56:32.573,1424532029,51573,2,0.4104,0.66748,1.04126,-1.008,1.191,1.221
2026-05-23 12:56:32.773,1424532229,51773,1,0.06738,0.60645,-0.95264,-1.733,0.26,-0.237
2026-05-23 12:56:32.773,1424532229,51773,2,0.4165,0.66333,1.04614,-0.954,1.244,1.321
2026-05-23 12:56:37.854,1424537310,56854,1,0.06519,0.60376,-0.95068,-1.855,0.336,-0.221
2026-05-23 12:56:37.854,1424537310,56854,2,0.4209,0.6665,1.03784,-1.076,1.214,1.397
2026-05-23 12:56:38.054,1424537510,57054,1,0.06445,0.60742,-0.95386,-1.779,0.221,0.031
2026-05-23 12:56:38.054,1424537510,57054,2,0.41992,0.66602,1.04053,-1.229,1.069,1.244
2026-05-23 12:56:38.254,1424537710,57254,1,0.0625,0.61279,-0.948,-1.763,0.496,0.031
2026-05-23 12:56:38.254,1424537710,57254,2,0.4187,0.66675,1.04224,-0.992,1.214,1.191
2026-05-23 12:56:38.454,1424537910,57454,1,0.06665,0.61011,-0.95117,-2.42,0.595,-0.069
2026-05-23 12:56:38.454,1424537910,57454,2,0.41553,0.67188,1.0481,-1.336,1.298,1.496
2026-05-23 12:56:38.654,1424538110,57654,1,0.06421,0.61621,-0.95166,-1.702,0.389,-0.198
2026-05-23 12:56:38.654,1424538110,57654,2,0.4165,0.66675,1.04004,-1.16,1.183,1.122
2026-05-23 12:56:38.854,1424538310,57854,1,0.06592,0.60669,-0.95142,-1.916,0.481,-0.031
2026-05-23 12:56:38.854,1424538310,57854,2,0.41211,0.66748,1.04492,-1.031,1.344,1.344
2026-05-23 12:56:39.054,1424538510,58054,1,0.06787,0.60669,-0.94922,-1.786,0.237,-0.122
2026-05-23 12:56:39.054,1424538510,58054,2,0.4209,0.66577,1.0459,-1.275,1.321,1.176
2026-05-23 12:56:39.254,1424538710,58254,1,0.06543,0.61304,-0.94897,-1.588,0.405,0.038
2026-05-23 12:56:39.254,1424538710,58254,2,0.41724,0.66528,1.04688,-1.008,1.137,1.092
2026-05-23 12:56:39.454,1424538910,58454,1,0.0647,0.60815,-0.95044,-1.855,0.328,-0.122
2026-05-23 12:56:39.454,1424538910,58454,2,0.41602,0.66772,1.03564,-1.053,1.26,1.45
2026-05-23 12:56:39.654,1424539110,58654,1,0.06738,0.60986,-0.95459,-1.733,0.115,-0.214
2026-05-23 12:56:39.654,1424539110,58654,2,0.41504,0.66455,1.04272,-1.13,1.397,1.191
2026-05-23 12:56:39.854,1424539310,58854,1,0.07007,0.60376,-0.95142,-1.855,0.313,-0.145
2026-05-23 12:56:39.854,1424539310,58854,2,0.41211,0.66431,1.04346,-1.473,1.168,1.443
2026-05-23 12:56:40.054,1424539510,59054,1,0.06323,0.6123,-0.95337,-1.611,0.298,-0.115
2026-05-23 12:56:40.054,1424539510,59054,2,0.41162,0.6626,1.0376,-0.962,0.977,1.29
2026-05-23 12:56:40.254,1424539710,59254,1,0.06689,0.60547,-0.94165,-2.038,0.351,0.046
2026-05-23 12:56:40.254,1424539710,59254,2,0.41235,0.65503,1.04858,-1.992,1.214,1.618
2026-05-23 12:56:40.454,1424539910,59454,1,0.06641,0.60962,-0.95044,-1.443,0.405,-0.16
2026-05-23 12:56:40.454,1424539910,59454,2,0.41748,0.65991,1.03589,-1.603,1.16,1.565
2026-05-23 12:56:40.654,1424540110,59654,1,0.06689,0.60742,-0.95386,-1.893,0.221,-0.168
2026-05-23 12:56:40.654,1424540110,59654,2,0.4126,0.66528,1.04395,-0.802,1.122,0.947
2026-05-23 12:56:40.854,1424540310,59854,1,0.06738,0.60669,-0.95459,-1.931,0.252,-0.16
2026-05-23 12:56:40.854,1424540310,59854,2,0.41089,0.6604,1.04443,-1.115,0.664,1.267
2026-05-23 12:56:41.054,1424540510,60054,1,0.06885,0.61157,-0.95752,-1.878,0.336,0.031
2026-05-23 12:56:41.054,1424540510,60054,2,0.41846,0.66528,1.04883,-0.847,0.779,0.962
2026-05-23 12:56:41.254,1424540710,60254,1,0.07422,0.61035,-0.94629,-1.84,0.214,-0.13
2026-05-23 12:56:41.254,1424540710,60254,2,0.41724,0.66455,1.0437,-1.305,1.366,1.55
2026-05-23 12:56:41.454,1424540910,60454,1,0.06836,0.60767,-0.95459,-1.84,0.153,-0.084
2026-05-23 12:56:41.454,1424540910,60454,2,0.41284,0.66333,1.05396,-1.168,1.206,1.336
2026-05-23 12:56:41.654,1424541110,60654,1,0.06885,0.60547,-0.95215,-2.107,0.481,-0.214
2026-05-23 12:56:41.654,1424541110,60654,2,0.42334,0.66943,1.04395,-0.534,1.137,1.153
2026-05-23 12:56:41.854,1424541310,60854,1,0.06567,0.60596,-0.94604,-2.137,0.458,-0.092
2026-05-23 12:56:41.854,1424541310,60854,2,0.41211,0.66504,1.03955,-1.313,1.229,1.084
2026-05-23 12:56:42.054,1424541510,61054,1,0.06787,0.61426,-0.96045,-1.802,0.328,-0.16
2026-05-23 12:56:42.054,1424541510,61054,2,0.41528,0.66626,1.04517,-1.344,1.282,1.313
2026-05-23 12:56:42.254,1424541710,61254,1,0.06665,0.60864,-0.94873,-1.58,0.183,-0.038
2026-05-23 12:56:42.254,1424541710,61254,2,0.42432,0.66992,1.05396,-1.237,0.924,1.427
2026-05-23 12:56:42.454,1424541910,61454,1,0.06836,0.61011,-0.96143,-1.947,0.359,-0.015
2026-05-23 12:56:42.454,1424541910,61454,2,0.41333,0.66431,1.04541,-1.031,1.198,1.168
2026-05-23 12:56:42.654,1424542110,61654,1,0.06226,0.6001,-0.94824,-1.71,0.244,-0.076
2026-05-23 12:56:42.654,1424542110,61654,2,0.4126,0.66577,1.04712,-1.351,1.206,1.389
2026-05-23 12:56:42.854,1424542310,61854,1,0.06567,0.60889,-0.94824,-2.695,0.344,0.191
2026-05-23 12:56:42.854,1424542310,61854,2,0.40771,0.66528,1.04395,-2.008,1.397,1.771
2026-05-23 12:56:43.054,1424542510,62054,1,0.06494,0.60938,-0.95996,-1.763,0.389,-0.16
2026-05-23 12:56:43.054,1424542510,62054,2,0.41162,0.66187,1.04053,-1.336,1.168,1.458
2026-05-23 12:56:43.254,1424542710,62254,1,0.06885,0.6106,-0.9563,-1.802,0.275,-0.076
2026-05-23 12:56:43.254,1424542710,62254,2,0.41138,0.65991,1.0437,-0.855,1.145,1.214
2026-05-23 12:56:43.454,1424542910,62454,1,0.07031,0.60718,-0.95825,-2.824,0.496,-0.061
2026-05-23 12:56:43.454,1424542910,62454,2,0.41504,0.65942,1.03564,-0.031,1.695,1.389
2026-05-23 12:56:43.654,1424543110,62654,1,0.0647,0.61401,-0.96045,-1.817,0.344,0.015
2026-05-23 12:56:43.654,1424543110,62654,2,0.41699,0.66675,1.04346,-1.229,0.985,1.206
2026-05-23 12:56:43.854,1424543310,62854,1,0.06494,0.61182,-0.95557,-1.229,0.183,-0.046
2026-05-23 12:56:43.854,1424543310,62854,2,0.41455,0.66748,1.04736,-1.412,1.046,1.336
2026-05-23 12:56:44.054,1424543510,63054,1,0.06787,0.60669,-0.94604,-2.191,0.267,-0.168
2026-05-23 12:56:44.054,1424543510,63054,2,0.41113,0.6687,1.04395,-0.908,0.977,0.924
2026-05-23 12:56:44.254,1424543710,63254,1,0.07129,0.60962,-0.95093,-1.824,0.405,-0.107
2026-05-23 12:56:44.254,1424543710,63254,2,0.41626,0.67529,1.04663,-1.061,1.229,1.145
2026-05-23 12:56:44.454,1424543910,63454,1,0.07031,0.61035,-0.94702,-1.847,0.321,-0.015
2026-05-23 12:56:44.454,1424543910,63454,2,0.41113,0.66821,1.05225,-0.611,1.191,1.191
2026-05-23 12:56:44.654,1424544110,63654,1,0.06763,0.60889,-0.95044,-2.16,0.26,0.107
2026-05-23 12:56:44.654,1424544110,63654,2,0.41528,0.67065,1.04346,-1.176,1.237,1.382
2026-05-23 12:56:44.854,1424544310,63854,1,0.06665,0.61279,-0.9563,-2.573,0.328,-0.076
2026-05-23 12:56:44.854,1424544310,63854,2,0.4165,0.67749,1.04272,-2.542,1.099,2.092
2026-05-23 12:56:45.054,1424544510,64054,1,0.06494,0.60498,-0.95117,-1.489,0.275,0.084
2026-05-23 12:56:45.054,1424544510,64054,2,0.41846,0.66675,1.03809,-0.947,1.168,1.153
2026-05-23 12:56:45.254,1424544710,64254,1,0.06592,0.61133,-0.95752,-1.656,0.328,-0.023
2026-05-23 12:56:45.254,1424544710,64254,2,0.41479,0.65771,1.04053,-1.359,1.137,1.458
2026-05-23 12:56:45.454,1424544910,64454,1,0.06641,0.6123,-0.95215,-1.771,0.405,-0.092
2026-05-23 12:56:45.454,1424544910,64454,2,0.41748,0.66699,1.04297,-0.779,1.26,1.092
2026-05-23 12:56:45.654,1424545110,64654,1,0.06323,0.60864,-0.948,-2.771,0.405,0.053
2026-05-23 12:56:45.654,1424545110,64654,2,0.41333,0.66968,1.04736,-1.573,1.0,1.099
2026-05-23 12:56:45.854,1424545310,64854,1,0.06934,0.61475,-0.95532,-2.015,0.351,-0.145
2026-05-23 12:56:45.854,1424545310,64854,2,0.41406,0.65796,1.04175,-1.183,1.038,1.649
2026-05-23 12:56:46.054,1424545510,65054,1,0.07178,0.60596,-0.95581,-2.015,0.244,-0.153
2026-05-23 12:56:46.054,1424545510,65054,2,0.40894,0.66309,1.03418,-1.046,1.206,1.168
2026-05-23 12:56:46.254,1424545710,65254,1,0.073,0.60986,-0.95801,-2.0,0.244,-0.099
2026-05-23 12:56:46.254,1424545710,65254,2,0.41479,0.65869,1.04736,-0.496,1.145,1.191
2026-05-23 12:56:46.454,1424545910,65454,1,0.06836,0.60938,-0.95947,-1.458,0.336,-0.176
2026-05-23 12:56:46.454,1424545910,65454,2,0.41699,0.66602,1.04077,-0.855,0.992,1.168
2026-05-23 12:56:46.654,1424546110,65654,1,0.06396,0.61035,-0.94458,-0.687,0.061,-0.496
2026-05-23 12:56:46.654,1424546110,65654,2,0.41089,0.66699,1.03979,-2.511,1.053,1.718
2026-05-23 12:56:46.854,1424546310,65854,1,0.07056,0.60425,-0.95239,-1.832,0.344,-0.351
2026-05-23 12:56:46.854,1424546310,65854,2,0.41235,0.66113,1.04907,-0.779,1.344,1.458
2026-05-23 12:56:47.054,1424546510,66054,1,0.06787,0.61035,-0.94189,-1.786,0.305,-0.092
2026-05-23 12:56:47.054,1424546510,66054,2,0.4126,0.66431,1.04028,-1.282,1.344,1.351
2026-05-23 12:56:47.254,1424546710,66254,1,0.06982,0.61035,-0.94824,-1.725,0.206,-0.031
2026-05-23 12:56:47.254,1424546710,66254,2,0.42114,0.67065,1.03979,-1.145,1.145,1.366
2026-05-23 12:56:47.454,1424546910,66454,1,0.06323,0.60596,-0.95093,-1.748,0.374,-0.183
2026-05-23 12:56:47.454,1424546910,66454,2,0.41699,0.66675,1.04053,-1.13,1.16,1.16
2026-05-23 12:56:47.654,1424547110,66654,1,0.06689,0.61304,-0.9519,-1.672,0.191,-0.305
2026-05-23 12:56:47.654,1424547110,66654,2,0.41455,0.67236,1.04834,-1.481,1.115,1.473
2026-05-23 12:56:47.854,1424547310,66854,1,0.06763,0.60303,-0.93848,-1.221,0.305,-0.359
2026-05-23 12:56:47.854,1424547310,66854,2,0.41797,0.65894,1.04443,-0.053,1.412,1.55
2026-05-23 12:56:48.054,1424547510,67054,1,0.06787,0.60815,-0.95483,-1.954,0.16,-0.168
2026-05-23 12:56:48.054,1424547510,67054,2,0.41211,0.66455,1.04126,-1.305,1.183,1.214
2026-05-23 12:56:48.254,1424547710,67254,1,0.0647,0.60547,-0.95215,-1.763,0.214,-0.046
2026-05-23 12:56:48.254,1424547710,67254,2,0.41406,0.66675,1.04688,-1.336,1.321,1.443
2026-05-23 12:56:48.454,1424547910,67454,1,0.06909,0.61792,-0.95483,-1.183,0.053,-0.321
2026-05-23 12:56:48.454,1424547910,67454,2,0.41431,0.66211,1.04102,-0.473,1.206,0.656
2026-05-23 12:56:48.654,1424548110,67654,1,0.06763,0.60938,-0.95215,-1.229,0.145,-0.198
2026-05-23 12:56:48.654,1424548110,67654,2,0.41284,0.66748,1.05005,-0.725,1.519,1.221
2026-05-23 12:56:48.854,1424548310,67854,1,0.06958,0.61133,-0.95605,-1.695,0.374,0.038
2026-05-23 12:56:48.854,1424548310,67854,2,0.41333,0.66626,1.03979,-1.282,1.13,1.321
2026-05-23 12:56:49.054,1424548510,68054,1,0.06787,0.61084,-0.94263,-2.71,0.427,0.16
2026-05-23 12:56:49.054,1424548510,68054,2,0.41284,0.65259,1.02197,0.55,2.153,1.435
2026-05-23 12:56:49.254,1424548710,68254,1,0.06274,0.61426,-0.94946,-1.756,0.237,-0.122
2026-05-23 12:56:49.254,1424548710,68254,2,0.41357,0.66772,1.03955,-1.069,0.924,0.771
2026-05-23 12:56:49.454,1424548910,68454,1,0.06763,0.60693,-0.948,-1.809,0.191,-0.305
2026-05-23 12:56:49.454,1424548910,68454,2,0.4187,0.6665,1.03784,-1.672,0.672,1.58
2026-05-23 12:56:49.654,1424549110,68654,1,0.073,0.61328,-0.95337,-1.924,0.145,-0.099
2026-05-23 12:56:49.654,1424549110,68654,2,0.41919,0.66797,1.04028,0.053,0.634,0.687
2026-05-23 12:56:49.854,1424549310,68854,1,0.07153,0.59595,-0.9397,-1.908,0.336,0.092
2026-05-23 12:56:49.854,1424549310,68854,2,0.43457,0.68286,1.03906,-1.313,1.015,1.221
2026-05-23 12:56:50.054,1424549510,69054,1,0.06372,0.60254,-0.95239,-1.458,-0.038,-0.099
2026-05-23 12:56:50.054,1424549510,69054,2,0.41455,0.66968,1.03345,0.145,0.908,0.924
2026-05-23 12:56:50.254,1424549710,69254,1,0.07056,0.60742,-0.95801,-1.802,0.252,-0.168
2026-05-23 12:56:50.254,1424549710,69254,2,0.41016,0.66748,1.04199,-2.145,1.229,1.687
2026-05-23 12:56:50.454,1424549910,69454,1,0.06494,0.60547,-0.94141,-2.229,0.603,
2026-05-23 12:56:50.454,1424549910,69454,2,0.42261,0.67603,1.03979,-0.427,1.084,1.137
2026-05-23 12:56:50.654,1424550110,69654,1,0.06812,0.60669,-0.94775,-1.87,0.298,-0.015
2026-05-23 12:56:50.654,1424550110,69654,2,0.43677,0.67773,1.04443,-1.389,2.061,1.824
2026-05-23 12:56:50.854,1424550310,69854,1,0.06494,0.60547,-0.95142,-1.924,0.275,-0.191
2026-05-23 12:56:50.854,1424550310,69854,2,0.44629,0.67798,1.052,2.305,10.214,5.214
2026-05-23 12:56:51.054,1424550510,70054,1,0.07056,0.61377,-0.95825,-1.771,0.115,-0.076
2026-05-23 12:56:51.054,1424550510,70054,2,0.42236,0.6709,1.0332,-0.031,1.618,1.656
2026-05-23T13:01:37.977681,,,,,,,,,
2026-05-23 13:01:37.444,1424836900,7444,1,1.0564,-0.10303,-0.02173,71.115,7.969,10.557
2026-05-23 13:01:37.444,1424836900,7444,2,0.86475,0.39722,0.08521,74.267,22.542,-28.389
2026-05-23 13:01:37.644,1424837100,7644,1,1.00464,-0.04199,0.01953,43.626,1.076,7.504
2026-05-23 13:01:37.644,1424837100,7644,2,0.83594,0.31665,0.06128,41.626,17.389,-11.672
2026-05-23 13:01:37.844,1424837300,7844,1,1.14136,-0.02441,-0.03638,35.87,-10.29,12.008
2026-05-23 13:01:37.844,1424837300,7844,2,0.92334,0.53467,0.12329,77.634,12.092,-40.863
2026-05-23 13:01:37.044,1424836500,8044,1,1.04395,-0.01221,-0.03198,17.282,8.756,2.565
2026-05-23 13:01:37.044,1424836500,8044,2,0.81885,0.46606,0.05786,33.046,12.824,-9.466
2026-05-23 13:01:38.244,1424837700,8244,1,1.05396,0.03687,-0.0354,30.366,4.145,-3.008
2026-05-23 13:01:38.244,1424837700,8244,2,0.83521,0.46045,0.06616,27.588,10.931,-10.122
2026-05-23 13:01:38.444,1424837900,8444,1,1.03491,0.02393,-0.01099,10.893,4.893,2.42
2026-05-23 13:01:38.444,1424837900,8444,2,0.81104,0.38916,0.02808,15.626,2.389,-6.954
2026-05-23 13:01:38.644,1424838100,8644,1,1.08301,0.02563,-0.00781,9.473,9.191,-2.061
2026-05-23 13:01:38.644,1424838100,8644,2,0.83569,0.37134,0.04126,10.267,5.0,3.359
2026-05-23 13:01:38.844,1424838300,8844,1,1.05273,0.01318,,9.214,-4.672,2.908
2026-05-23 13:01:38.844,1424838300,8844,2,0.82129,0.35962,0.03979,5.0,2.42,-11.168
2026-05-23 13:01:38.044,1424837500,9044,1,1.07324,0.01392,-0.02759,4.763,-2.649,2.26
2026-05-23 13:01:38.044,1424837500,9044,2,0.8335,0.34985,0.06177,-2.725,5.168,3.656
2026-05-23 13:01:39.244,1424838700,9244,1,1.06958,-0.00171,-0.01831,-3.458,4.45,-2.336
2026-05-23 13:01:39.244,1424838700,9244,2,0.8418,0.36108,0.03491,-10.977,7.779,11.55
2026-05-23 13:01:39.444,1424838900,9444,1,1.05762,-0.01465,-0.03223,-2.176,-5.115,4.489
2026-05-23 13:01:39.444,1424838900,9444,2,0.85205,0.36426,0.06689,-5.756,4.466,3.489
2026-05-23 13:01:39.644,1424839100,9644,1,1.0249,-0.00146,0.00977,1.588,-4.504,-0.328
2026-05-23 13:01:39.644,1424839100,9644,2,0.82104,0.35449,0.0271,3.962,-13.305,5.076
2026-05-23 13:01:39.844,1424839300,9844,1,1.07446,-0.00122,-0.03906,-9.427,-18.206,-2.366
2026-05-23 13:01:39.844,1424839300,9844,2,0.82446,0.36011,0.0437,-13.107,-14.275,6.435
2026-05-23 13:01:39.044,1424838500,10044,1,1.06592,-0.01685,-0.0769,-15.267,-9.687,-4.626
2026-05-23 13:01:39.044,1424838500,10044,2,0.82422,0.32568,-0.0083,-8.565,-14.618,5.74
2026-05-23 13:01:40.244,1424839700,10244,1,1.08154,0.00513,-0.09839,-8.221,-12.405,-6.725
2026-05-23 13:01:40.244,1424839700,10244,2,0.82178,0.33472,-0.02222,-16.076,-12.931,13.244
2026-05-23 13:01:40.444,1424839900,10444,1,1.10425,0.03247,-0.20361,-19.321,-10.137,-5.557
2026-05-23 13:01:40.444,1424839900,10444,2,0.83008,0.31665,-0.03369,-16.473,9.183,12.771
2026-05-23 13:01:40.644,1424840100,10644,1,1.04736,0.00415,-0.19458,-17.824,5.45,-0.954
2026-05-23 13:01:40.644,1424840100,10644,2,0.81641,0.3208,0.00195,-0.641,5.237,0.008
2026-05-23 13:01:40.844,1424840300,10844,1,1.03711,0.02271,-0.09546,-8.092,5.168,-3.107
2026-05-23 13:01:40.844,1424840300,10844,2,0.77783,0.32007,-0.01221,4.611,-19.0,-14.275
2026-05-23 13:01:40.044,1424839500,11044,1,1.08081,0.05322,-0.11401,-1.328,-7.908,-5.298
2026-05-23 13:01:40.044,1424839500,11044,2,0.77881,0.32007,-0.04199,-2.588,-6.817,4.977
2026-05-23 13:01:41.244,1424840700,11244,1,1.08276,0.05518,-0.16602,1.481,-2.282,-8.137
2026-05-23 13:01:41.244,1424840700,11244,2,0.85718,0.34448,-0.05054,-10.588,8.58,10.351
2026-05-23 13:01:41.444,1424840900,11444,1,1.10205,0.0708,-0.18701,-5.977,10.779,-5.443
2026-05-23 13:01:41.444,1424840900,11444,2,0.79492,0.32739,-0.03638,-4.878,23.878,-5.252
2026-05-23 13:01:41.644,1424841100,11644,1,1.04907,0.09277,-0.09839,-1.725,3.153,-1.977
2026-05-23 13:01:41.644,1424841100,11644,2,0.82178,0.31592,0.07861,6.298,14.046,-8.962
2026-05-23 13:01:41.844,1424841300,11844,1,1.07178,0.08057,-0.14111,19.588,3.55,10.779
2026-05-23 13:01:41.844,1424841300,11844,2,0.87329,0.42017,-0.04688,21.649,15.366,-13.84
2026-05-23 13:01:41.044,1424840500,12044,1,1.07861,0.1167,-0.16675,-16.351,-11.237,8.084
2026-05-23 13:01:41.044,1424840500,12044,2,0.80615,0.38013,0.16919,-2.122,4.504,27.756
2026-05-23 13:01:42.244,1424841700,12244,1,1.0271,0.02246,-0.19775,-28.779,35.634,-9.557
2026-05-23 13:01:42.244,1424841700,12244,2,0.91602,0.33032,-0.02197,-88.611,-27.099,40.382
2026-05-23 13:01:42.444,1424841900,12444,1,1.07178,0.00708,-0.10645,-50.153,6.176,-8.649
2026-05-23 13:01:42.444,1424841900,12444,2,0.84766,0.20093,0.12329,-43.618,5.611,34.374
2026-05-23 13:01:42.644,1424842100,12644,1,0.99243,-0.00684,0.06592,-28.405,27.809,-14.626
2026-05-23 13:01:42.644,1424842100,12644,2,0.81592,0.18262,0.15796,-38.473,20.099,25.061
2026-05-23 13:01:42.844,1424842300,12844,1,1.08081,0.05835,0.04468,-14.061,-14.374,10.397
2026-05-23 13:01:42.844,1424842300,12844,2,0.87646,0.18335,0.20068,14.878,1.977,-34.374
2026-05-23 13:01:42.044,1424841500,13044,1,0.90894,-0.01221,0.11792,30.267,-2.641,10.153
2026-05-23 13:01:42.044,1424841500,13044,2,0.87695,0.22266,0.29907,53.237,29.29,-7.634
2026-05-23 13:01:43.244,1424842700,13244,1,1.18701,0.22021,0.00806,32.053,-35.718,23.328
2026-05-23 13:01:43.244,1424842700,13244,2,0.97168,0.58838,0.42944,-3.733,19.947,-11.038
2026-05-23 13:01:43.444,1424842900,13444,1,0.89233,-0.00562,0.04004,-65.908,17.992,14.527
2026-05-23 13:01:43.444,1424842900,13444,2,0.80786,0.17139,0.37817,-88.855,-9.275,67.595
2026-05-23 13:01:43.644,1424843100,13644,1,1.15112,-0.34009,-0.06323,-29.626,26.145,-3.534
2026-05-23 13:01:43.644,1424843100,13644,2,0.9856,-0.02832,0.18311,-16.115,16.611,-19.092
2026-05-23 13:01:43.844,1424843300,13844,1,1.10986,-0.25366,-0.07886,70.618,-7.58,9.977
2026-05-23 13:01:43.844,1424843300,13844,2,0.9668,0.02661,0.23926,107.458,38.145,-59.977
2026-05-23 13:01:43.044,1424842500,14044,1,1.00317,0.17651,0.01855,171.13,-38.756,-4.969
2026-05-23 13:01:43.044,1424842500,14044,2,0.7229,0.55908,0.44995,107.84,59.71,-57.275
2026-05-23 13:01:44.244,1424843700,14244,1,1.2207,0.21924,0.02344,-40.534,21.16,-17.992
2026-05-23 13:01:44.244,1424843700,14244,2,0.98096,0.47852,0.38843,-103.954,-27.695,76.847
2026-05-23 13:01:44.444,1424843900,14444,1,0.76538,0.09814,-0.00464,-94.557,-0.832,-23.26
2026-05-23 13:01:44.444,1424843900,14444,2,1.18164,-0.06226,0.26514,-135.832,-59.595,78.336
2026-05-23 13:01:44.644,1424844100,14644,1,1.12134,-0.11499,-0.16064,70.718,-11.412,-4.076
2026-05-23 13:01:44.644,1424844100,14644,2,1.1521,0.07959,0.04761,98.053,73.756,-44.046
2026-05-23 13:01:44.844,1424844300,14844,1,1.04004,-0.04883,0.03857,62.557,-8.809,26.069
2026-05-23 13:01:44.844,1424844300,14844,2,0.68579,0.2002,0.34521,100.366,16.496,-65.176
2026-05-23 13:01:44.044,1424843500,15044,1,1.0293,0.2041,-0.05737,110.298,-62.931,-0.038
2026-05-23 13:01:44.044,1424843500,15044,2,0.82349,0.34009,0.35107,35.634,0.427,-0.626
2026-05-23 13:01:45.244,1424844700,15244,1,1.28906,0.27173,0.03735,2.305,21.214,-1.481
2026-05-23 13:01:45.244,1424844700,15244,2,0.98584,0.71606,0.20264,-29.618,-21.527,16.908
2026-05-23 13:01:45.444,1424844900,15444,1,0.72412,0.0127,-0.20142,-68.389,-6.435,6.145
2026-05-23 13:01:45.444,1424844900,15444,2,1.1543,0.19336,0.29712,-44.359,-20.985,46.267
2026-05-23 13:01:45.644,1424845100,15644,1,1.08398,-0.14429,-0.12891,-48.969,11.198,-16.275
2026-05-23 13:01:45.644,1424845100,15644,2,1.24048,0.1626,-0.05469,-81.076,27.756,51.084
2026-05-23 13:01:45.844,1424845300,15844,1,1.03296,0.05542,-0.07446,2.137,-4.779,-11.863
2026-05-23 13:01:45.844,1424845300,15844,2,0.75293,0.12305,0.19604,2.313,-6.328,20.443
2026-05-23 13:01:45.044,1424844500,16044,1,1.13916,-0.10229,-0.01416,23.496,-8.107,5.321
2026-05-23 13:01:45.044,1424844500,16044,2,1.04712,0.27197,0.052,35.511,28.198,-67.382
2026-05-23 13:01:46.244,1424845700,16244,1,0.92993,-0.00586,0.03101,43.786,8.931,1.573
2026-05-23 13:01:46.244,1424845700,16244,2,1.06372,0.41089,0.2146,69.87,42.092,-31.366
2026-05-23 13:01:46.444,1424845900,16444,1,1.0144,0.07959,-0.06055,42.695,36.824,29.214
2026-05-23 13:01:46.444,1424845900,16444,2,0.86353,0.40869,0.17114,-10.809,50.58,-20.786
2026-05-23 13:01:46.644,1424846100,16644,1,0.92383,0.13574,0.09863,-9.916,-4.267,16.092
2026-05-23 13:01:46.644,1424846100,16644,2,0.85376,0.41748,0.25049,-25.084,-37.397,12.382
2026-05-23 13:01:46.844,1424846300,16844,1,0.96948,-0.01123,0.1416,-27.71,-3.107,1.183
2026-05-23 13:01:46.844,1424846300,16844,2,0.87354,0.19873,0.42896,-100.954,-4.595,24.504
2026-05-23 13:01:46.044,1424845500,17044,1,0.99683,-0.09302,0.08618,-19.489,38.176,-30.191
2026-05-23 13:01:46.044,1424845500,17044,2,0.92114,0.1731,0.34082,-18.695,27.076,37.947
2026-05-23 13:01:47.244,1424846700,17244,1,0.88647,-0.17285,0.29224,5.969,47.908,-14.496
2026-05-23 13:01:47.244,1424846700,17244,2,0.95386,0.11475,0.60889,-2.466,68.962,-14.053
2026-05-23 13:01:47.444,1424846900,17444,1,0.68066,0.05444,0.51685,-15.87,59.977,-25.023
2026-05-23 13:01:47.444,1424846900,17444,2,0.83105,0.03833,0.90576,65.351,53.534,18.924
2026-05-23 13:01:47.644,1424847100,17644,1,0.50146,0.16357,0.6377,-16.74,81.45,-22.489
2026-05-23 13:01:47.644,1424847100,17644,2,0.63599,0.05493,1.05713,-11.244,60.603,8.664
2026-05-23 13:01:47.844,1424847300,17844,1,0.38721,-0.00903,0.77393,-75.87,75.954,-30.733
2026-05-23 13:01:47.844,1424847300,17844,2,0.55835,-0.33203,0.99658,-46.405,56.122,20.641
2026-05-23 13:01:47.044,1424846500,18044,1,0.07495,-0.26489,0.86011,-19.229,70.389,-16.015
2026-05-23 13:01:47.044,1424846500,18044,2,0.40137,-0.50024,1.02734,-64.031,70.328,15.366
2026-05-23 13:01:48.244,1424847700,18244,1,-0.1123,-0.17896,0.67261,5.214,36.977,4.542
2026-05-23 13:01:48.244,1424847700,18244,2,0.22485,-0.6001,0.99878,-11.336,49.069,11.237
2026-05-23 13:01:48.444,1424847900,18444,1,-0.3562,-0.09253,0.82129,42.26,58.153,24.771
2026-05-23 13:01:48.444,1424847900,18444,2,-0.01123,-0.39355,1.32251,33.168,62.786,21.611
2026-05-23 13:01:48.644,1424848100,18644,1,-0.4939,0.1499,0.80811,30.214,25.321,15.611
2026-05-23 13:01:48.644,1424848100,18644,2,-0.15771,-0.42236,1.375,31.817,23.763,22.695
2026-05-23 13:01:48.844,1424848300,18844,1,-0.55176,0.25708,0.83862,38.435,11.878,26.58
2026-05-23 13:01:48.844,1424848300,18844,2,-0.30371,-0.18384,1.53613,13.618,-4.443,8.916
2026-05-23 13:01:48.044,1424847500,19044,1,-0.56885,0.38477,0.86914,-22.267,-32.534,4.618
2026-05-23 13:01:48.044,1424847500,19044,2,-0.23315,-0.30151,1.40576,-14.931,-52.809,-26.359
2026-05-23 13:01:49.244,1424848700,19244,1,-0.37549,0.12134,0.84692,-44.626,-94.046,-15.55
2026-05-23 13:01:49.244,1424848700,19244,2,0.13013,-0.34473,1.29395,4.832,-108.656,-45.595
2026-05-23 13:01:49.444,1424848900,19444,1,-0.01343,-0.14453,0.71948,-67.382,-103.641,-39.481
2026-05-23 13:01:49.444,1424848900,19444,2,0.51807,-0.45508,1.0791,-6.481,-108.481,-54.206
2026-05-23 13:01:49.644,1424849100,19644,1,0.51221,-0.00537,0.62646,-26.504,-105.099,-40.939
2026-05-23 13:01:49.644,1424849100,19644,2,0.875,0.13525,0.75439,-2.878,-119.817,-48.977
2026-05-23 13:01:49.844,1424849300,19844,1,0.99829,0.12842,0.23804,-78.916,-74.74,-40.298
2026-05-23 13:01:49.844,1424849300,19844,2,0.95581,0.32202,0.49854,-34.397,-105.305,-35.947
2026-05-23 13:01:49.044,1424848500,20044,1,0.90308,0.11597,0.05078,-82.16,-53.901,-44.573
2026-05-23 13:01:49.044,1424848500,20044,2,0.97632,0.16284,0.15527,-106.595,-106.115,33.626
2026-05-23 13:01:50.244,1424849700,20244,1,1.08594,-0.12378,-0.02002,-49.023,-31.992,-40.687
2026-05-23 13:01:50.244,1424849700,20244,2,0.89453,0.21191,0.08936,-67.802,-10.229,-9.435
2026-05-23 13:01:50.444,1424849900,20444,1,1.10083,-0.06494,0.0376,-25.504,-12.328,-20.122
2026-05-23 13:01:50.444,1424849900,20444,2,0.88428,0.22876,0.01636,-24.183,-19.336,-24.366
2026-05-23 13:01:50.644,1424850100,20644,1,1.04272,-0.0918,-0.04443,29.847,-5.107,-4.252
2026-05-23 13:01:50.644,1424850100,20644,2,0.80103,0.29126,0.08569,31.145,21.351,-28.962
2026-05-23 13:01:50.844,1424850300,20844,1,1.16187,-0.01636,-0.02026,47.0,-5.336,5.244
2026-05-23 13:01:50.844,1424850300,20844,2,0.82031,0.43481,0.05444,40.687,14.092,-23.603
2026-05-23 13:01:50.044,1424849500,21044,1,1.04272,0.08398,-0.03076,47.641,6.29,9.809
2026-05-23 13:01:50.044,1424849500,21044,2,0.73511,0.45508,0.12378,48.504,27.786,4.74
2026-05-23 13:01:51.244,1424850700,21244,1,1.09229,0.06006,0.00537,-9.084,12.664,4.718
2026-05-23 13:01:51.244,1424850700,21244,2,0.82397,0.41064,0.05493,5.916,-3.397,5.427
2026-05-23 13:01:51.444,1424850900,21444,1,1.03247,0.03174,0.02295,-3.87,3.496,8.954
2026-05-23 13:01:51.444,1424850900,21444,2,0.8103,0.39551,0.07568,-7.611,1.939,6.191
2026-05-23 13:01:51.644,1424851100,21644,1,1.03979,-0.00146,0.04419,-11.649,0.786,1.74
2026-05-23 13:01:51.644,1424851100,21644,2,0.83374,0.39453,0.06006,-12.221,-3.595,11.366
2026-05-23 13:01:51.844,1424851300,21844,1,1.04639,-0.03394,0.04492,-11.382,-5.084,-2.527
2026-05-23 13:01:51.844,1424851300,21844,2,0.82983,0.34741,0.0708,-10.74,-8.176,3.076
2026-05-23 13:01:51.044,1424850500,22044,1,1.06006,-0.02222,0.02051,-9.702,-5.252,-5.855
2026-05-23 13:01:51.044,1424850500,22044,2,0.84912,0.34888,0.03809,-10.214,-5.794,9.695
2026-05-23 13:01:52.244,1424851700,22244,1,1.05615,-0.02686,0.0127,-9.328,-1.305,-1.977
2026-05-23 13:01:52.244,1424851700,22244,2,0.82642,0.34644,0.03711,-8.885,0.038,-3.061
2026-05-23 13:01:52.444,1424851900,22444,1,1.05615,-0.00098,0.01929,-0.802,-4.496,-2.893
2026-05-23 13:01:52.444,1424851900,22444,2,0.8103,0.36011,0.04272,-3.038,-5.214,0.031
2026-05-23 13:01:52.644,1424852100,22644,1,1.07056,-0.00854,-0.0188,-6.389,-0.817,0.382
2026-05-23 13:01:52.644,1424852100,22644,2,0.82056,0.34253,0.00586,-5.328,-2.649,5.756
2026-05-23 13:01:52.844,1424852300,22844,1,1.06494,-0.03833,-0.02319,-6.168,-2.55,1.992
2026-05-23 13:01:52.844,1424852300,22844,2,0.81323,0.3418,-0.00732,1.924,-5.038,3.168
2026-05-23 13:01:52.044,1424851500,23044,1,1.06543,-0.02197,-0.02612,-5.634,-3.618,4.191
2026-05-23 13:01:52.044,1424851500,23044,2,0.80737,0.38013,-0.01318,-1.794,-1.641,-1.321
2026-05-23 13:01:53.244,1424852700,23244,1,1.07031,-0.02612,-0.04028,-5.397,-3.649,-0.443
2026-05-23 13:01:53.244,1424852700,23244,2,0.79834,0.3645,-0.01294,-3.802,-1.267,3.092
2026-05-23 13:01:53.444,1424852900,23444,1,1.06201,-0.03149,-0.03638,-9.679,0.916,2.427
2026-05-23 13:01:53.444,1424852900,23444,2,0.80103,0.38428,-0.01855,-8.298,-2.122,3.87
2026-05-23 13:01:53.644,1424853100,23644,1,1.06982,-0.04688,-0.02905,-16.687,1.962,-1.947
2026-05-23 13:01:53.644,1424853100,23644,2,0.79468,0.35156,-0.01685,-18.565,-6.817,11.153
2026-05-23 13:01:53.844,1424853300,23844,1,1.05347,-0.05591,-0.01831,-17.351,0.511,-7.55
2026-05-23 13:01:53.844,1424853300,23844,2,0.79199,0.3584,-0.03955,-10.443,-6.656,6.702
2026-05-23 13:01:53.044,1424852500,24044,1,1.07056,-0.01611,-0.03442,-12.756,-3.885,-6.58
2026-05-23 13:01:53.044,1424852500,24044,2,0.78784,0.35107,-0.03125,-8.0,-5.092,5.863
2026-05-23 13:01:54.244,1424853700,24244,1,1.06055,-0.00708,-0.02905,-8.832,-3.382,0.16
2026-05-23 13:01:54.244,1424853700,24244,2,0.78564,0.34985,-0.04028,-4.382,-4.748,4.557
2026-05-23 13:01:54.444,1424853900,24444,1,1.0791,-0.01709,-0.0542,-2.557,-0.573,0.45
2026-05-23 13:01:54.444,1424853900,24444,2,0.80347,0.35229,-0.0498,-2.313,-0.374,3.458
2026-05-23 13:01:54.644,1424854100,24644,1,1.07251,-0.02588,-0.04932,-7.282,3.496,1.099
2026-05-23 13:01:54.644,1424854100,24644,2,0.79028,0.34546,-0.05884,-4.702,0.588,3.107
2026-05-23 13:01:54.844,1424854300,24844,1,1.05762,-0.03467,-0.03613,-5.992,3.26,2.496
2026-05-23 13:01:54.844,1424854300,24844,2,0.79395,0.3418,-0.0542,-3.878,3.656,4.679
2026-05-23 13:01:54.044,1424853500,25044,1,1.06226,-0.03687,-0.04565,-1.321,0.206,-2.573
2026-05-23 13:01:54.044,1424853500,25044,2,0.79761,0.34741,-0.03784,-1.237,0.916,1.267
2026-05-23 13:01:55.244,1424854700,25244,1,1.07495,-0.01978,-0.02759,0.466,0.74,0.183
2026-05-23 13:01:55.244,1424854700,25244,2,0.79468,0.35303,-0.05444,-1.244,1.313,-1.145
2026-05-23 13:01:55.444,1424854900,25444,1,1.06836,-0.01807,-0.01807,-1.389,-1.351,-1.992
2026-05-23 13:01:55.444,1424854900,25444,2,0.79443,0.35303,-0.02832,-1.191,1.16,1.611
2026-05-23 13:01:55.644,1424855100,25644,1,1.07031,-0.01465,-0.03394,1.756,1.962,-0.84
2026-05-23 13:01:55.644,1424855100,25644,2,0.79321,0.34692,-0.04126,-2.458,1.443,2.954
2026-05-23 13:01:55.844,1424855300,25844,1,1.06543,-0.00879,-0.03882,-0.611,1.107,-0.908
2026-05-23 13:01:55.844,1424855300,25844,2,0.80322,0.35547,-0.03516,0.305,0.756,-0.45
2026-05-23 13:01:55.044,1424854500,26044,1,1.0625,-0.00488,-0.02539,-1.382,3.053,-1.626
2026-05-23 13:01:55.044,1424854500,26044,2,0.80542,0.34326,-0.03369,-1.931,1.763,3.847
2026-05-23 13:01:56.244,1424855700,26244,1,1.05811,-0.02026,-0.02466,-5.718,2.901,1.55
2026-05-23 13:01:56.244,1424855700,26244,2,0.80103,0.3584,-0.0498,0.168,3.664,-1.489
2026-05-23 13:01:56.444,1424855900,26444,1,1.0647,-0.00684,-0.02612,2.237,-1.298,-0.076
2026-05-23 13:01:56.444,1424855900,26444,2,0.79932,0.34521,-0.01978,0.74,3.817,-2.275
2026-05-23 13:01:56.644,1424856100,26644,1,1.05737,-0.01587,-0.00464,0.954,1.733,2.924
2026-05-23 13:01:56.644,1424856100,26644,2,0.79565,0.37427,-0.03052,1.573,2.573,-1.611
2026-05-23 13:01:56.844,1424856300,26844,1,1.06445,-0.01147,-0.02954,2.076,-0.687,-0.802
2026-05-23 13:01:56.844,1424856300,26844,2,0.80127,0.34912,-0.00098,-5.076,3.351,3.313
2026-05-23 13:01:56.044,1424855500,27044,1,1.06616,-0.03857,-0.0105,-0.206,4.756,3.115
2026-05-23 13:01:56.044,1424855500,27044,2,0.80615,0.38623,-0.05762,-0.511,6.282,-0.069
2026-05-23 13:01:57.244,1424856700,27244,1,1.05737,-0.04248,-0.02417,14.679,-0.74,-0.557
2026-05-23 13:01:57.244,1424856700,27244,2,0.81592,0.35889,0.02148,-1.832,11.618,-5.679
2026-05-23 13:01:57.444,1424856900,27444,1,1.06152,-0.00171,-0.04517,21.237,-10.863,1.26
2026-05-23 13:01:57.444,1424856900,27444,2,0.81787,0.40601,-0.01465,22.466,6.221,-12.382
2026-05-23 13:01:57.644,1424857100,27644,1,1.04102,0.00757,-0.06543,2.42,-16.733,6.42
2026-05-23 13:01:57.644,1424857100,27644,2,0.78906,0.40381,0.00903,-0.603,-5.595,-9.038
2026-05-23 13:01:57.844,1424857300,27844,1,1.06421,-0.03809,-0.06421,-10.534,-2.115,9.573
2026-05-23 13:01:57.844,1424857300,27844,2,0.77515,0.43457,0.03296,-14.344,5.092,-3.328
2026-05-23 13:01:57.044,1424856500,28044,1,1.09131,-0.0708,-0.0542,-10.053,2.397,4.756
2026-05-23 13:01:57.044,1424856500,28044,2,0.77026,0.46045,0.0061,-8.962,-4.992,3.496
2026-05-23 13:01:58.244,1424857700,28244,1,1.10083,-0.09839,-0.11475,0.947,5.046,-3.672
2026-05-23 13:01:58.244,1424857700,28244,2,0.77734,0.44702,-0.01318,8.916,1.328,10.725
2026-05-23 13:01:58.444,1424857900,28444,1,1.07397,-0.04297,-0.08081,4.924,2.092,-1.626
2026-05-23 13:01:58.444,1424857900,28444,2,0.7561,0.41675,-0.04004,13.519,2.794,-2.557
2026-05-23 13:01:58.644,1424858100,28644,1,1.06177,-0.0376,-0.06836,-7.13,-4.504,9.473
2026-05-23 13:01:58.644,1424858100,28644,2,0.7666,0.45605,-0.02905,-21.351,2.458,-6.595
2026-05-23 13:01:58.844,1424858300,28844,1,1.08447,-0.07251,-0.12817,-16.359,-6.092,7.092
2026-05-23 13:01:58.844,1424858300,28844,2,0.74585,0.5,0.04053,-17.595,-1.389,1.053
2026-05-23 13:01:58.044,1424857500,29044,1,1.07788,-0.13379,-0.1272,-13.634,7.061,2.504
2026-05-23 13:01:58.044,1424857500,29044,2,0.75854,0.51416,0.03931,-19.153,11.366,-4.634
2026-05-23 13:01:59.244,1424858700,29244,1,1.0769,-0.1145,-0.07227,-13.42,7.878,-3.023
2026-05-23 13:01:59.244,1424858700,29244,2,0.76074,0.52075,0.05737,-13.008,-1.55,1.153
2026-05-23 13:01:59.444,1424858900,29444,1,1.02246,-0.14087,-0.06714,-17.511,5.725,-1.702
2026-05-23 13:01:59.444,1424858900,29444,2,0.77002,0.45068,0.09131,-23.008,-8.336,7.702
2026-05-23 13:01:59.644,1424859100,29644,1,1.05811,-0.16821,-0.04761,0.641,2.672,-0.305
2026-05-23 13:01:59.644,1424859100,29644,2,0.7832,0.52026,0.07178,1.878,-2.824,-3.237
2026-05-23 13:01:59.844,1424859300,29844,1,1.05469,-0.14673,-0.04663,0.122,0.015,-1.397
2026-05-23 13:01:59.844,1424859300,29844,2,0.75488,0.49683,0.09058,4.427,-1.779,2.969
2026-05-23 13:01:59.044,1424858500,30044,1,1.0896,-0.14575,-0.04761,5.473,1.542,-3.74
2026-05-23 13:01:59.044,1424858500,30044,2,0.78809,0.51733,0.05566,9.458,2.885,2.298
2026-05-23 13:02:00.244,1424859700,30244,1,1.05591,-0.12842,-0.052,10.71,3.206,-5.939
2026-05-23 13:02:00.244,1424859700,30244,2,0.78687,0.43262,0.05762,10.55,3.969,14.71
2026-05-23 13:02:00.444,1424859900,30444,1,1.0376,-0.13452,-0.03491,6.344,2.443,-3.382
2026-05-23 13:02:00.444,1424859900,30444,2,0.78857,0.33447,0.01001,20.015,-3.809,14.069
2026-05-23 13:02:00.644,1424860100,30644,1,1.03223,-0.12646,-0.02368,3.649,-5.229,-1.023
2026-05-23 13:02:00.644,1424860100,30644,2,0.80835,0.27734,-0.02368,21.725,-8.824,8.939
2026-05-23 13:02:00.844,1424860300,30844,1,1.14038,-0.12817,-0.07788,65.229,-2.603,2.992
2026-05-23 13:02:00.844,1424860300,30844,2,0.89331,0.40308,-0.02612,63.221,46.824,-27.366
2026-05-23 13:02:00.044,1424859500,31044,1,1.09863,0.08301,-0.04565,93.069,12.466,0.519
2026-05-23 13:02:00.044,1424859500,31044,2,0.79541,0.41187,0.03711,57.374,42.954,-46.466
2026-05-23 13:02:01.244,1424860700,31244,1,0.95044,0.15356,-0.02759,70.389,-5.519,1.191
2026-05-23 13:02:01.244,1424860700,31244,2,0.73633,0.39648,0.1084,52.656,16.519,-14.962
2026-05-23 13:02:01.444,1424860900,31444,1,1.11377,0.10254,-0.01538,40.534,-2.947,4.832
2026-05-23 13:02:01.444,1424860900,31444,2,0.84961,0.44556,-0.00122,46.336,-3.305,-11.595
2026-05-23 13:02:01.644,1424861100,31644,1,1.12207,0.02539,-0.0293,32.45,-0.634,11.305
2026-05-23 13:02:01.644,1424861100,31644,2,0.68921,0.38281,0.13672,9.664,50.802,-29.687
2026-05-23 13:02:01.844,1424861300,31844,1,1.04272,-0.06738,-0.0686,47.405,3.695,6.695
2026-05-23 13:02:01.844,1424861300,31844,2,0.88159,0.41064,0.04883,21.969,44.924,-29.092
2026-05-23 13:02:01.044,1424860500,32044,1,1.14233,-0.05469,-0.06201,54.664,4.885,1.855
2026-05-23 13:02:01.044,1424860500,32044,2,0.87354,0.44531,0.09448,65.656,17.626,-5.489
2026-05-23 13:02:02.244,1424861700,32244,1,1.03394,-0.06738,-0.09888,66.55,13.107,14.565
2026-05-23 13:02:02.244,1424861700,32244,2,0.80176,0.58374,0.08813,92.046,44.427,-52.817
2026-05-23 13:02:02.444,1424861900,32444,1,0.98804,0.17358,-0.00537,24.344,11.26,-19.672
2026-05-23 13:02:02.444,1424861900,32444,2,0.76563,0.4939,0.17383,6.374,9.389,-1.908
2026-05-23 13:02:02.644,1424862100,32644,1,1.01123,0.21948,0.0144,-11.458,13.374,-13.969
2026-05-23 13:02:02.644,1424862100,32644,2,0.78613,0.44116,0.16479,-18.168,11.122,30.305
2026-05-23 13:02:02.844,1424862300,32844,1,1.12622,0.20288,0.08691,-89.168,1.473,-0.412
2026-05-23 13:02:02.844,1424862300,32844,2,0.93652,0.34375,0.12573,-80.718,-25.824,49.878
2026-05-23 13:02:02.044,1424861500,33044,1,1.00659,-0.12988,0.00024,-43.237,-3.649,20.412
2026-05-23 13:02:02.044,1424861500,33044,2,0.90356,0.13306,0.21289,-61.458,29.603,28.305
2026-05-23 13:02:03.244,1424862700,33244,1,1.06274,-0.15088,0.09009,16.504,18.305,-8.267
2026-05-23 13:02:03.244,1424862700,33244,2,0.95532,0.13525,0.25122,-5.733,15.176,-0.366
2026-05-23 13:02:03.444,1424862900,33444,1,1.09302,-0.09644,0.10059,67.435,-6.626,13.198
2026-05-23 13:02:03.444,1424862900,33444,2,0.84546,0.32983,0.27588,104.534,10.481,-63.542
2026-05-23 13:02:03.644,1424863100,33644,1,0.99146,0.11719,-0.03394,90.542,6.13,-11.489
2026-05-23 13:02:03.644,1424863100,33644,2,0.80786,0.42725,0.34424,60.733,53.046,-2.046
2026-05-23 13:02:03.844,1424863300,33844,1,1.09009,0.12549,0.02222,19.969,-0.267,10.863
2026-05-23 13:02:03.844,1424863300,33844,2,0.86255,0.46753,0.28979,28.939,-10.412,-11.137
2026-05-23 13:02:03.044,1424862500,34044,1,1.01733,0.14453,0.05664,33.748,13.672,-4.183
2026-05-23 13:02:03.044,1424862500,34044,2,0.88867,0.40332,0.26489,14.626,16.237,28.313
2026-05-23 13:02:04.244,1424863700,34244,1,1.04614,0.13574,0.05176,-45.122,-4.832,1.771
2026-05-23 13:02:04.244,1424863700,34244,2,0.86938,0.43042,0.27393,-30.496,-19.954,4.962
2026-05-23 13:02:04.444,1424863900,34444,1,1.01465,0.18774,0.10107,-52.229,5.824,5.817
2026-05-23 13:02:04.444,1424863900,34444,2,0.87671,0.2627,0.32056,-98.504,4.885,36.466
2026-05-23 13:02:04.644,1424864100,34644,1,1.09302,-0.13037,0.07104,-62.885,-24.802,26.053
2026-05-23 13:02:04.644,1424864100,34644,2,0.92651,0.21582,0.34058,-35.557,-18.527,-12.191
2026-05-23 13:02:04.844,1424864300,34844,1,0.99072,-0.15161,-0.00879,-32.16,5.031,3.305
2026-05-23 13:02:04.844,1424864300,34844,2,0.87012,0.28101,0.31543,-37.588,-15.45,23.359
2026-05-23 13:02:04.044,1424863500,35044,1,1.11133,-0.20972,0.07959,-37.405,9.031,-9.718
2026-05-23 13:02:04.044,1424863500,35044,2,1.09399,0.09668,0.23047,-13.641,-18.718,1.382
2026-05-23 13:02:05.244,1424864700,35244,1,0.98755,-0.21997,0.04736,44.565,-1.779,15.344
2026-05-23 13:02:05.244,1424864700,35244,2,0.85571,0.29395,0.38867,50.313,35.0,-25.733
2026-05-23 13:02:05.444,1424864900,35444,1,1.0686,-0.19849,0.12695,74.901,-3.26,-3.718
2026-05-23 13:02:05.444,1424864900,35444,2,0.97681,0.38867,0.26538,85.237,-6.443,-26.084
2026-05-23 13:02:05.644,1424865100,35644,1,1.0,-0.0769,-0.04639,37.84,-10.924,-6.26
2026-05-23 13:02:05.644,1424865100,35644,2,0.86987,0.41699,0.34009,47.389,22.099,-26.305
2026-05-23 13:02:05.844,1424865300,35844,1,1.11914,0.03394,0.10107,13.908,5.756,6.878
2026-05-23 13:02:05.844,1424865300,35844,2,0.87378,0.52075,0.31006,11.344,-20.122,-1.885
2026-05-23 13:02:05.044,1424864500,36044,1,1.02173,0.02783,0.00806,-63.84,0.298,-10.618
2026-05-23 13:02:05.044,1424864500,36044,2,0.85156,0.40869,0.29102,-67.481,-33.519,55.832
2026-05-23 13:02:06.244,1424865700,36244,1,1.04395,-0.17627,0.01611,-64.672,15.466,1.076
2026-05-23 13:02:06.244,1424865700,36244,2,0.95239,0.14697,0.25171,-49.252,-0.366,22.863
2026-05-23 13:02:06.444,1424865900,36444,1,1.02173,-0.21338,0.09717,-4.076,-0.374,-2.672
2026-05-23 13:02:06.444,1424865900,36444,2,0.9126,0.2146,0.23438,12.405,-2.443,-27.87
2026-05-23 13:02:06.644,1424866100,36644,1,1.02734,-0.08643,-0.01709,11.954,-3.252,5.725
2026-05-23 13:02:06.644,1424866100,36644,2,0.91626,0.20215,0.27002,8.389,31.847,-15.695
2026-05-23 13:02:06.844,1424866300,36844,1,1.02759,-0.00488,0.0376,29.435,-14.954,-15.893
2026-05-23 13:02:06.844,1424866300,36844,2,0.88208,0.26709,0.31494,20.679,-17.626,7.191
2026-05-23 13:02:06.044,1424865500,37044,1,1.07031,-0.05225,0.08301,7.336,22.718,-25.382
2026-05-23 13:02:06.044,1424865500,37044,2,1.04175,0.1228,0.0437,7.344,-23.817,20.908
2026-05-23 13:02:07.244,1424866700,37244,1,1.04517,-0.07886,-0.06079,11.664,-22.954,26.489
2026-05-23 13:02:07.244,1424866700,37244,2,0.89453,0.28931,0.2583,28.069,32.916,-66.099
2026-05-23 13:02:07.444,1424866900,37444,1,1.03931,0.1499,-0.07568,38.595,-13.229,-25.573
2026-05-23 13:02:07.444,1424866900,37444,2,0.82227,0.43066,0.27148,33.267,-5.183,31.603
2026-05-23 13:02:07.644,1424867100,37644,1,1.14819,0.02954,0.06958,-39.366,14.962,10.015
2026-05-23 13:02:07.644,1424867100,37644,2,0.89819,0.3418,0.198,-1.122,17.366,-47.985
2026-05-23 13:02:07.844,1424867300,37844,1,1.01514,0.00977,-0.02051,-37.092,-0.885,32.504
2026-05-23 13:02:07.844,1424867300,37844,2,0.8291,0.28345,0.29272,-73.084,-2.282,-19.351
2026-05-23 13:02:07.044,1424866500,38044,1,0.99292,-0.00049,0.12329,-42.336,47.466,-61.687
2026-05-23 13:02:07.044,1424866500,38044,2,0.97559,0.3584,0.05249,-16.069,-62.992,65.031
2026-05-23 13:02:08.244,1424867700,38244,1,1.07324,-0.1665,-0.04932,-85.366,-10.13,16.901
2026-05-23 13:02:08.244,1424867700,38244,2,0.8833,0.28589,0.20557,-47.076,16.496,-52.55
2026-05-23 13:02:08.444,1424867900,38444,1,1.04883,-0.05103,0.03857,-14.901,17.458,-39.099
2026-05-23 13:02:08.444,1424867900,38444,2,0.89307,0.19849,0.19873,-8.542,-22.901,58.374
2026-05-23 13:02:08.644,1424868100,38644,1,1.08081,-0.06665,-0.01196,4.427,-18.695,20.336
2026-05-23 13:02:08.644,1424868100,38644,2,0.86255,0.25195,0.09448,28.969,21.206,-63.336
2026-05-23 13:02:08.844,1424868300,38844,1,1.11719,-0.06079,-0.04468,51.802,11.458,3.55
2026-05-23 13:02:08.844,1424868300,38844,2,0.86938,0.28076,0.12646,60.13,32.107,4.061
2026-05-23 13:02:08.044,1424867500,39044,1,1.0896,0.0481,0.06201,45.672,2.756,-4.588
2026-05-23 13:02:08.044,1424867500,39044,2,0.84375,0.37427,0.16138,45.71,-14.702,-30.908
2026-05-23 13:02:09.244,1424868700,39244,1,1.01587,-0.02808,0.01563,46.931,-17.26,45.252
2026-05-23 13:02:09.244,1424868700,39244,2,0.82935,0.32568,0.12573,26.397,28.878,-34.206
2026-05-23 13:02:09.444,1424868900,39444,1,1.0542,0.03198,0.05005,15.275,26.366,-32.901
2026-05-23 13:02:09.444,1424868900,39444,2,0.90869,0.47534,0.11304,0.405,-14.679,28.023
2026-05-23 13:02:09.644,1424869100,39644,1,1.0437,-0.05078,-0.02173,-41.489,-13.74,17.099
2026-05-23 13:02:09.644,1424869100,39644,2,0.82715,0.38916,0.18677,-28.382,5.412,-16.214
2026-05-23 13:02:09.844,1424869300,39844,1,1.02661,0.01172,0.02271,-8.191,11.473,-16.237
2026-05-23 13:02:09.844,1424869300,39844,2,0.83154,0.36548,0.19434,-17.092,-1.527,33.282
2026-05-23 13:02:09.044,1424868500,40044,1,1.09692,-0.01514,0.073,6.649,-12.611,7.588
2026-05-23 13:02:09.044,1424868500,40044,2,0.83789,0.39429,0.16943,8.427,-32.931,-22.664
2026-05-23 13:02:10.244,1424869700,40244,1,0.98657,-0.08667,-0.04468,28.397,1.489,11.382
2026-05-23 13:02:10.244,1424869700,40244,2,0.71729,0.36841,0.20898,-1.275,47.885,-34.863
2026-05-23 13:02:10.444,1424869900,40444,1,1.29614,-0.02881,-0.05005,17.214,8.008,4.069
2026-05-23 13:02:10.444,1424869900,40444,2,0.9834,0.56787,0.05908,19.321,-4.137,9.13
2026-05-23 13:02:10.644,1424870100,40644,1,0.86816,-0.14917,-0.06323,-30.069,-1.55,15.641
2026-05-23 13:02:10.644,1424870100,40644,2,0.97729,0.70752,0.44458,13.939,18.321,-23.519
2026-05-23 13:02:10.844,1424870300,40844,1,1.12256,-0.11304,0.00952,-55.573,22.534,-12.351
2026-05-23 13:02:10.844,1424870300,40844,2,0.90015,0.55713,0.10449,-40.84,-39.031,14.878
2026-05-23 13:02:10.044,1424869500,41044,1,1.0647,-0.08813,-0.04468,-90.985,-7.664,-20.511
2026-05-23 13:02:10.044,1424869500,41044,2,0.77271,0.3728,0.17773,-49.481,-76.641,30.313
2026-05-23 13:02:11.244,1424870700,41244,1,1.10864,-0.15356,-0.04614,-78.908,37.458,-34.954
2026-05-23 13:02:11.244,1424870700,41244,2,0.85742,0.23096,0.06616,-111.71,5.511,88.634
2026-05-23 13:02:11.444,1424870900,41444,1,1.198,0.11401,-0.01147,-82.534,6.107,-31.107
2026-05-23 13:02:11.444,1424870900,41444,2,1.05518,0.23682,-0.08911,-65.389,-21.267,74.634
2026-05-23 13:02:11.644,1424871100,41644,1,1.08667,0.05396,-0.04199,-52.008,-13.191,-10.977
2026-05-23 13:02:11.644,1424871100,41644,2,0.90088,0.17651,0.03979,-44.756,-31.313,-10.481
2026-05-23 13:02:11.844,1424871300,41844,1,0.75562,0.08569,-0.00049,7.298,-4.13,-9.359
2026-05-23 13:02:11.844,1424871300,41844,2,0.95483,0.14771,0.02905,3.519,5.366,33.153
2026-05-23 13:02:11.044,1424870500,42044,1,1.38843,0.08105,0.03589,93.328,-0.061,17.038
2026-05-23 13:02:11.044,1424870500,42044,2,1.08691,0.25269,-0.13501,89.198,10.122,-85.221
2026-05-23 13:02:12.244,1424871700,42244,1,0.78003,0.02051,-0.16333,133.87,-20.252,40.565
2026-05-23 13:02:12.244,1424871700,42244,2,0.85913,0.41504,0.11914,77.779,20.374,-100.473
2026-05-23 13:02:12.444,1424871900,42444,1,0.95776,-0.01343,-0.15918,182.969,8.061,41.282
2026-05-23 13:02:12.444,1424871900,42444,2,0.97656,0.53613,0.01807,95.374,101.908,-33.397
2026-05-23 13:02:12.644,1424872100,42644,1,1.36157,-0.00464,-0.05249,48.16,-6.473,15.725
2026-05-23 13:02:12.644,1424872100,42644,2,0.85425,0.73999,0.12158,70.0,1.511,-16.084
2026-05-23 13:02:12.844,1424872300,42844,1,1.04614,-0.11108,-0.06226,31.771,-1.885,15.695
2026-05-23 13:02:12.844,1424872300,42844,2,0.7478,0.71484,0.15967,9.702,25.863,-22.71
2026-05-23 13:02:12.044,1424871500,43044,1,1.13135,-0.09204,-0.0874,-42.954,4.405,-8.115
2026-05-23 13:02:12.044,1424871500,43044,2,0.9187,0.6333,0.06104,-46.275,-45.71,26.214
2026-05-23 13:02:13.244,1424872700,43244,1,1.03613,-0.11304,-0.13818,-101.405,10.13,-19.336
2026-05-23 13:02:13.244,1424872700,43244,2,0.56372,0.34521,-0.0083,-27.176,-51.298,42.542
2026-05-23 13:02:13.444,1424872900,43444,1,0.9314,0.01978,-0.14648,-74.748,-1.985,-37.366
2026-05-23 13:02:13.444,1424872900,43444,2,0.69604,0.39233,0.22412,-51.824,-13.366,88.473
2026-05-23 13:02:13.644,1424873100,43644,1,1.24512,-0.01978,-0.16113,-66.344,-19.748,-29.153
2026-05-23 13:02:13.644,1424873100,43644,2,1.04321,0.35278,-0.32104,-60.107,-32.962,17.55
2026-05-23 13:02:13.844,1424873300,43844,1,0.79248,0.12793,-0.10498,-58.519,-9.634,-13.351
2026-05-23 13:02:13.844,1424873300,43844,2,0.80811,0.14697,0.03809,-20.145,-33.847,36.496
2026-05-23 13:02:13.044,1424872500,44044,1,1.01636,-0.01831,0.00464,3.672,-2.626,8.076
2026-05-23 13:02:13.044,1424872500,44044,2,0.78979,0.30884,-0.16479,30.115,2.282,-11.611
2026-05-23 13:02:14.244,1424873700,44244,1,1.21704,0.03564,-0.12549,96.321,4.641,22.947
2026-05-23 13:02:14.244,1424873700,44244,2,0.72241,0.323,-0.07471,55.328,32.473,-95.901
2026-05-23 13:02:14.444,1424873900,44444,1,0.88843,-0.0166,-0.13647,86.267,17.603,40.397
2026-05-23 13:02:14.444,1424873900,44444,2,0.5835,0.41919,0.21094,44.748,93.176,-63.244
2026-05-23 13:02:14.644,1424874100,44644,1,1.17139,-0.06079,-0.11304,50.611,6.458,15.183
2026-05-23 13:02:14.644,1424874100,44644,2,0.97729,0.72705,0.10278,14.542,29.107,-6.389
2026-05-23 13:02:14.844,1424874300,44844,1,1.11206,-0.07007,-0.1665,16.916,-22.038,5.206
2026-05-23 13:02:14.844,1424874300,44844,2,0.63403,0.36499,0.19531,27.023,-22.13,14.802
2026-05-23 13:02:14.044,1424873500,45044,1,0.97974,-0.12915,-0.11108,-0.588,13.336,17.168
2026-05-23 13:02:14.044,1424873500,45044,2,0.7627,0.60034,0.13257,-31.221,17.282,15.382
2026-05-23 13:02:15.244,1424874700,45244,1,1.02222,-0.0874,-0.17969,-73.588,3.221,-12.504
2026-05-23 13:02:15.244,1424874700,45244,2,0.71484,0.46509,0.17725,-46.198,-42.878,27.809
2026-05-23 13:02:15.444,1424874900,45444,1,1.16919,-0.14453,-0.11719,-76.779,13.466,-20.015
2026-05-23 13:02:15.444,1424874900,45444,2,0.81836,0.47534,0.02466,-40.374,-53.786,39.191
2026-05-23 13:02:15.644,1424875100,45644,1,0.90942,-0.12769,-0.12793,-73.908,12.656,-28.069
2026-05-23 13:02:15.644,1424875100,45644,2,0.64478,0.36182,0.28247,-37.252,-18.878,48.763
2026-05-23 13:02:15.844,1424875300,45844,1,0.95898,0.01147,-0.03882,-78.534,28.046,-30.321
2026-05-23 13:02:15.844,1424875300,45844,2,1.02393,0.28784,-0.05273,-32.313,-18.603,50.458
2026-05-23 13:02:15.044,1424874500,46044,1,1.24414,0.17358,-0.021,-11.084,-14.313,-11.565
2026-05-23 13:02:15.044,1424874500,46044,2,0.89551,0.27222,,-17.053,-0.305,-12.664
2026-05-23 13:02:16.244,1424875700,46244,1,1.0957,0.04639,-0.11719,-14.412,8.42,-9.779
2026-05-23 13:02:16.244,1424875700,46244,2,0.75195,0.21826,0.14868,5.466,2.473,44.893
2026-05-23 13:02:16.444,1424875900,46444,1,1.12378,0.07983,-0.01855,62.061,13.176,16.847
2026-05-23 13:02:16.444,1424875900,46444,2,1.04224,0.22876,-0.15308,60.168,19.786,-47.427
2026-05-23 13:02:16.644,1424876100,46644,1,1.00195,0.01465,-0.10278,87.443,-9.527,42.412
2026-05-23 13:02:16.644,1424876100,46644,2,0.57983,0.47607,0.12427,74.069,20.122,-121.893
2026-05-23 13:02:16.844,1424876300,46844,1,0.86548,-0.01099,-0.05688,70.435,21.664,38.061
2026-05-23 13:02:16.844,1424876300,46844,2,0.55371,0.53125,0.2019,32.603,87.87,-58.656
2026-05-23 13:02:16.044,1424875500,47044,1,1.27612,-0.00293,-0.07275,64.977,-3.87,6.58
2026-05-23 13:02:16.044,1424875500,47044,2,1.00952,0.65161,0.09766,50.427,6.687,-6.908
2026-05-23 13:02:17.244,1424876700,47244,1,0.83496,-0.12891,-0.073,12.802,-6.374,13.473
2026-05-23 13:02:17.244,1424876700,47244,2,0.64673,0.51758,0.23218,-7.176,33.176,-17.863
2026-05-23 13:02:17.444,1424876900,47444,1,0.9834,-0.1582,-0.05176,-27.885,21.382,-3.947
2026-05-23 13:02:17.444,1424876900,47444,2,0.70996,0.59619,0.14746,-40.45,-10.122,-7.267
2026-05-23 13:02:17.644,1424877100,47644,1,1.14185,-0.10254,-0.07739,-90.527,13.275,-21.695
2026-05-23 13:02:17.644,1424877100,47644,2,0.85742,0.61328,0.04126,-46.847,-72.618,32.84
2026-05-23 13:02:17.844,1424877300,47844,1,1.06177,-0.08179,-0.11938,-50.55,8.885,-25.038
2026-05-23 13:02:17.844,1424877300,47844,2,0.69238,0.44116,0.17407,-30.046,-20.466,40.389
2026-05-23 13:02:17.044,1424876500,48044,1,0.95728,-0.0437,0.04028,-79.351,17.412,-35.809
2026-05-23 13:02:17.044,1424876500,48044,2,0.7832,0.23145,-0.1394,-50.664,-30.74,70.336
2026-05-23 13:02:18.244,1424877700,48244,1,1.23608,0.07422,0.01367,-54.519,-2.252,-32.206
2026-05-23 13:02:18.244,1424877700,48244,2,1.05713,0.31592,-0.10132,-27.679,-4.992,12.183
2026-05-23 13:02:18.444,1424877900,48444,1,0.85962,0.16602,-0.01294,-11.26,-3.481,-11.191
2026-05-23 13:02:18.444,1424877900,48444,2,0.97412,0.02441,0.07129,-8.305,15.099,28.061
2026-05-23 13:02:18.644,1424878100,48644,1,1.04712,0.08984,0.07617,35.336,-5.702,8.481
2026-05-23 13:02:18.644,1424878100,48644,2,0.86938,0.13232,0.01685,52.305,-8.305,-38.443
2026-05-23 13:02:18.844,1424878300,48844,1,1.11743,0.19336,0.02686,65.626,0.931,25.84
2026-05-23 13:02:18.844,1424878300,48844,2,0.89697,0.37158,-0.09497,58.71,4.206,-52.527
2026-05-23 13:02:18.044,1424877500,49044,1,0.93726,0.01074,-0.12817,55.389,-25.252,44.115
2026-05-23 13:02:18.044,1424877500,49044,2,0.70239,0.47778,0.13477,21.061,15.252,-74.061
2026-05-23 13:02:19.244,1424878700,49244,1,0.98096,-0.11621,-0.05273,63.0,26.328,35.962
2026-05-23 13:02:19.244,1424878700,49244,2,0.82886,0.57715,0.16333,-12.55,100.511,-37.481
2026-05-23 13:02:19.444,1424878900,49444,1,1.26074,-0.03906,-0.09106,54.565,-17.214,4.771
2026-05-23 13:02:19.444,1424878900,49444,2,0.84473,0.66846,0.04248,61.718,-3.206,-14.84
2026-05-23 13:02:19.644,1424879100,49644,1,1.05566,-0.09106,-0.14038,32.954,-13.634,18.481
2026-05-23 13:02:19.644,1424879100,49644,2,0.63696,0.44824,0.18677,19.802,41.458,-0.664
2026-05-23 13:02:19.844,1424879300,49844,1,1.08911,-0.06982,-0.0459,-34.71,19.695,-14.901
2026-05-23 13:02:19.844,1424879300,49844,2,0.82056,0.63892,0.03613,-47.809,-28.779,8.435
2026-05-23 13:02:19.044,1424878500,50044,1,1.02344,-0.12305,-0.13428,-103.046,6.687,-18.0
2026-05-23 13:02:19.044,1424878500,50044,2,0.71411,0.43652,-0.01904,-55.87,-67.779,37.023
2026-05-23 13:02:20.244,1424879700,50244,1,1.13989,-0.10693,-0.00269,-78.481,14.427,-28.389
2026-05-23 13:02:20.244,1424879700,50244,2,0.75879,0.46899,-0.06616,-32.687,14.893,65.695
2026-05-23 13:02:20.444,1424879900,50444,1,1.10815,-0.00952,-0.09668,-36.885,11.672,-3.565
2026-05-23 13:02:20.444,1424879900,50444,2,0.82739,0.41602,0.00293,-6.061,-16.252,12.031
2026-05-23 13:02:20.644,1424880100,50644,1,1.0686,-0.00806,-0.06396,4.443,0.389,-3.023
2026-05-23 13:02:20.644,1424880100,50644,2,0.75049,0.44189,-0.01538,15.908,1.763,-12.931
2026-05-23 13:02:20.844,1424880300,50844,1,1.07227,0.01685,-0.08252,11.389,0.718,-0.229
2026-05-23 13:02:20.844,1424880300,50844,2,0.75391,0.46191,-0.01807,8.702,5.878,-11.13
2026-05-23 13:02:20.044,1424879500,51044,1,1.0686,0.03906,-0.09473,17.42,-0.26,5.153
2026-05-23 13:02:20.044,1424879500,51044,2,0.73071,0.48169,-0.03491,11.954,11.672,-6.779
2026-05-23 13:02:21.244,1424880700,51244,1,1.07007,0.01074,-0.09619,10.763,0.366,2.985
2026-05-23 13:02:21.244,1424880700,51244,2,0.74854,0.49268,-0.02661,3.267,2.687,-2.466
2026-05-23 13:02:21.444,1424880900,51444,1,1.06006,-0.00122,-0.09814,5.061,1.992,0.237
2026-05-23 13:02:21.444,1424880900,51444,2,0.73169,0.47705,-0.02319,-0.634,2.176,1.275
2026-05-23 13:02:21.644,1424881100,51644,1,1.08472,-0.0022,-0.09082,-2.969,1.183,-1.756
2026-05-23 13:02:21.644,1424881100,51644,2,0.73828,0.47876,-0.02148,-2.267,-0.168,2.985
2026-05-23 13:02:21.844,1424881300,51844,1,1.07495,-0.0022,-0.09229,-3.809,1.55,-0.275
2026-05-23 13:02:21.844,1424881300,51844,2,0.74609,0.45972,-0.01318,-3.763,2.534,3.359
2026-05-23 13:02:21.044,1424880500,52044,1,1.07227,-0.01147,-0.08032,-1.679,0.763,-0.069
2026-05-23 13:02:21.044,1424880500,52044,2,0.75562,0.46802,-0.01172,0.992,-0.168,-0.229
2026-05-23 13:02:22.244,1424881700,52244,1,1.07007,-0.01172,-0.0835,1.397,0.786,0.443
2026-05-23 13:02:22.244,1424881700,52244,2,0.74512,0.46924,-0.02197,1.153,0.901,-0.847
2026-05-23 13:02:22.444,1424881900,52444,1,1.07617,-0.01147,-0.08154,-0.198,-1.053,0.954
2026-05-23 13:02:22.444,1424881900,52444,2,0.74561,0.46558,-0.0271,0.489,0.527,0.29
2026-05-23 13:02:22.644,1424882100,52644,1,1.07593,-0.02417,-0.09497,-0.733,-1.176,0.015
2026-05-23 13:02:22.644,1424882100,52644,2,0.74414,0.46387,-0.0188,0.023,0.573,0.252
2026-05-23 13:02:22.844,1424882300,52844,1,1.06909,-0.01685,-0.08716,-0.519,-1.107,0.145
2026-05-23 13:02:22.844,1424882300,52844,2,0.73608,0.4668,-0.02319,0.374,0.672,-0.29
2026-05-23 13:02:22.044,1424881500,53044,1,1.08105,-0.0166,-0.09229,-0.557,0.435,-0.344
2026-05-23 13:02:22.044,1424881500,53044,2,0.73657,0.47046,-0.04248,0.321,2.481,1.0
2026-05-23 13:02:23.244,1424882700,53244,1,1.07227,-0.0144,-0.09253,-2.031,1.122,-0.969
2026-05-23 13:02:23.244,1424882700,53244,2,0.74219,0.46655,-0.0354,-1.321,2.153,1.26
2026-05-23 13:02:23.444,1424882900,53444,1,1.09082,0.00146,-0.1167,-2.275,1.008,0.168
2026-05-23 13:02:23.444,1424882900,53444,2,0.75098,0.49048,-0.01855,-3.977,7.962,4.656
2026-05-23 13:02:23.644,1424883100,53644,1,1.06567,-0.01855,-0.08765,5.122,5.237,-0.656
2026-05-23 13:02:23.644,1424883100,53644,2,0.75732,0.44189,0.00635,-5.061,11.748,9.702
2026-05-23 13:02:23.844,1424883300,53844,1,1.05176,-0.01416,-0.02271,21.168,5.832,5.031
2026-05-23 13:02:23.844,1424883300,53844,2,0.75977,0.43652,0.03589,20.611,15.023,-18.344
2026-05-23 13:02:23.044,1424882500,54044,1,1.05322,-0.0271,-0.13965,21.634,0.008,14.313
2026-05-23 13:02:23.044,1424882500,54044,2,0.7627,0.46045,0.13721,5.87,21.916,-18.832
2026-05-23 13:02:24.244,1424883700,54244,1,1.17188,-0.11353,-0.0918,42.878,10.336,5.206
2026-05-23 13:02:24.244,1424883700,54244,2,0.93457,0.66772,0.03857,32.061,33.0,-22.435
2026-05-23 13:02:24.444,1424883900,54444,1,1.00708,-0.11743,-0.10107,-12.382,-1.87,1.214
2026-05-23 13:02:24.444,1424883900,54444,2,0.62598,0.36035,0.06616,5.985,-51.16,-3.0
2026-05-23 13:02:24.644,1424884100,54644,1,1.00488,-0.08765,-0.09302,-16.275,2.71,-4.321
2026-05-23 13:02:24.644,1424884100,54644,2,0.67578,0.58911,0.16357,-31.534,41.435,-6.229
2026-05-23 13:02:24.844,1424884300,54844,1,1.23022,-0.01001,-0.16211,-58.794,16.191,-20.359
2026-05-23 13:02:24.844,1424884300,54844,2,0.82544,0.5498,0.03369,-30.893,-78.611,52.908
2026-05-23 13:02:24.044,1424883500,55044,1,1.10205,-0.07471,-0.14087,-74.29,9.74,-31.244
2026-05-23 13:02:24.044,1424883500,55044,2,0.65601,0.29517,0.04297,1.603,-11.107,38.076
2026-05-23 13:02:25.244,1424884700,55244,1,1.06226,0.0498,-0.01099,-12.336,24.603,-22.328
2026-05-23 13:02:25.244,1424884700,55244,2,0.98901,0.3772,-0.13232,-31.229,9.16,47.756
2026-05-23 13:02:25.444,1424884900,55444,1,1.07373,0.05396,-0.04346,-9.603,-7.786,3.992
2026-05-23 13:02:25.444,1424884900,55444,2,0.7478,0.35864,0.06543,2.0,-2.282,-50.13
2026-05-23 13:02:25.644,1424885100,55644,1,1.04736,0.0835,-0.05005,-25.153,17.924,2.931
2026-05-23 13:02:25.644,1424885100,55644,2,0.65601,0.41797,0.13989,18.916,40.794,29.931
2026-05-23 13:02:25.844,1424885300,55844,1,1.09839,0.02637,-0.06836,35.885,11.229,19.947
2026-05-23 13:02:25.844,1424885300,55844,2,1.14697,0.47437,-0.12134,54.863,35.359,-22.344
2026-05-23 13:02:25.044,1424884500,56044,1,1.02466,-0.00024,-0.07935,54.893,-16.649,33.702
2026-05-23 13:02:25.044,1424884500,56044,2,0.55762,0.51709,0.15625,31.763,16.099,-95.305
2026-05-23 13:02:26.244,1424885700,56244,1,0.99902,-0.01147,-0.1731,40.519,16.099,-7.084
2026-05-23 13:02:26.244,1424885700,56244,2,0.74072,0.35278,0.27881,-11.328,88.046,-2.939
2026-05-23 13:02:26.444,1424885900,56444,1,1.37939,-0.04028,-0.09863,68.565,-0.489,-11.504
2026-05-23 13:02:26.444,1424885900,56444,2,1.03101,0.75537,-0.08838,55.908,-4.015,-15.985
2026-05-23 13:02:26.644,1424886100,56644,1,0.81836,0.00879,-0.13037,41.664,18.267,-13.916
2026-05-23 13:02:26.644,1424886100,56644,2,0.77075,0.51929,-0.01489,144.359,11.168,47.244
2026-05-23 13:02:26.844,1424886300,56844,1,1.10107,0.29102,-0.07446,55.374,16.87,16.511
2026-05-23 13:02:26.844,1424886300,56844,2,0.96729,0.3877,-0.24097,84.641,25.183,10.634
2026-05-23 13:02:26.044,1424885500,57044,1,1.03613,-0.05737,-0.17383,137.763,-27.076,62.275
2026-05-23 13:02:26.044,1424885500,57044,2,0.63037,0.37354,0.10254,99.641,31.267,-142.847
2026-05-23 13:02:27.244,1424886700,57244,1,0.86499,-0.21558,-0.25171,128.221,24.206,-12.198
2026-05-23 13:02:27.244,1424886700,57244,2,0.66821,0.35571,0.2124,51.924,67.504,-47.176
2026-05-23 13:02:27.444,1424886900,57444,1,1.25513,0.02173,-0.22412,140.763,-20.504,-36.084
2026-05-23 13:02:27.444,1424886900,57444,2,0.78369,0.52466,-0.1123,109.939,2.779,-46.824
2026-05-23 13:02:27.644,1424887100,57644,1,1.00122,0.27734,-0.08984,103.137,25.74,-21.489
2026-05-23 13:02:27.644,1424887100,57644,2,0.63892,0.1936,-0.02197,60.611,54.748,2.87
2026-05-23 13:02:27.844,1424887300,57844,1,1.1189,0.29712,-0.1355,107.466,-22.397,35.847
2026-05-23 13:02:27.844,1424887300,57844,2,0.99316,0.41064,-0.23877,124.344,24.115,-17.802
2026-05-23 13:02:27.044,1424886500,58044,1,1.02002,0.05933,-0.2312,121.954,-29.115,55.679
2026-05-23 13:02:27.044,1424886500,58044,2,0.646,0.52295,-0.02759,87.336,70.588,-129.786
2026-05-23 13:02:28.244,1424887700,58244,1,1.00806,-0.19067,-0.18262,46.069,51.45,10.16
2026-05-23 13:02:28.244,1424887700,58244,2,0.69092,0.31104,0.18408,4.817,52.779,-24.885
2026-05-23 13:02:28.444,1424887900,58444,1,1.12793,-0.10474,-0.2085,176.58,-19.107,-23.702
2026-05-23 13:02:28.444,1424887900,58444,2,0.8584,0.53955,0.04443,142.809,52.924,-40.237
2026-05-23 13:02:28.644,1424888100,58644,1,0.92236,0.14014,-0.13525,156.214,24.008,-27.557
2026-05-23 13:02:28.644,1424888100,58644,2,0.71118,0.37109,-0.00562,127.748,35.565,-26.573
2026-05-23 13:02:28.844,1424888300,58844,1,0.98804,0.46631,0.02148,96.687,0.664,13.366
2026-05-23 13:02:28.844,1424888300,58844,2,0.84082,0.34106,-0.1106,83.015,45.061,33.366
2026-05-23 13:02:28.044,1424887500,59044,1,1.05078,0.04102,-0.13843,68.229,-32.687,65.282
2026-05-23 13:02:28.044,1424887500,59044,2,0.76245,0.49829,0.02051,74.282,26.656,-76.351
2026-05-23 13:02:29.244,1424888700,59244,1,1.06201,-0.10815,-0.22119,62.763,3.237,21.244
2026-05-23 13:02:29.244,1424888700,59244,2,0.69897,0.38428,0.19336,5.031,68.954,-42.344
2026-05-23 13:02:29.444,1424888900,59444,1,1.20898,-0.08276,-0.14087,69.336,21.023,-27.985
2026-05-23 13:02:29.444,1424888900,59444,2,0.92676,0.5249,0.08667,55.771,33.939,1.122
2026-05-23 13:02:29.644,1424889100,59644,1,0.97705,0.02759,-0.07788,41.931,14.389,-22.542
2026-05-23 13:02:29.644,1424889100,59644,2,0.72583,0.34424,0.16211,44.366,-1.489,14.321
2026-05-23 13:02:29.844,1424889300,59844,1,1.09595,0.12158,0.06641,20.939,-0.366,-10.382
2026-05-23 13:02:29.844,1424889300,59844,2,1.03223,0.47559,-0.01001,-8.031,0.015,11.679
2026-05-23 13:02:29.044,1424888500,60044,1,0.97534,0.04834,-0.11694,-34.832,-7.168,3.267
2026-05-23 13:02:29.044,1424888500,60044,2,0.7439,0.40479,0.22827,-21.641,-4.366,-14.618
2026-05-23 13:02:30.244,1424889700,60244,1,1.03198,0.07495,0.09546,12.794,6.519,0.305
2026-05-23 13:02:30.244,1424889700,60244,2,1.01465,0.56396,-0.12036,14.855,-9.687,13.84
2026-05-23 13:02:30.444,1424889900,60444,1,0.90918,0.03101,-0.03491,-7.298,-29.809,20.137
2026-05-23 13:02:30.444,1424889900,60444,2,0.61035,0.38574,0.36548,-27.611,-14.916,-22.42
2026-05-23 13:02:30.644,1424890100,60644,1,1.12842,0.10254,-0.10474,15.282,13.366,-11.092
2026-05-23 13:02:30.644,1424890100,60644,2,0.85645,0.58301,0.10913,2.229,26.351,21.779
2026-05-23 13:02:30.844,1424890300,60844,1,1.05518,0.00098,-0.05103,-27.443,11.412,13.374
2026-05-23 13:02:30.844,1424890300,60844,2,0.75586,0.43384,0.24268,-26.947,-27.061,-18.435
2026-05-23 13:02:30.044,1424889500,61044,1,1.07495,-0.14111,-0.10962,21.725,18.145,6.649
2026-05-23 13:02:30.044,1424889500,61044,2,0.83154,0.43091,0.10815,16.878,38.42,17.863
2026-05-23 13:02:31.244,1424890700,61244,1,1.0813,-0.1394,-0.02954,1.771,-3.527,-10.992
2026-05-23 13:02:31.244,1424890700,61244,2,0.78296,0.40186,0.01318,33.626,-59.351,-11.366
2026-05-23 13:02:31.444,1424890900,61444,1,1.06494,-0.06836,-0.15479,46.366,3.504,-1.511
2026-05-23 13:02:31.444,1424890900,61444,2,0.77368,0.42871,0.06445,30.0,29.771,-7.954
2026-05-23 13:02:31.644,1424891100,61644,1,1.12231,0.01733,-0.03418,17.817,12.405,-9.794
2026-05-23 13:02:31.644,1424891100,61644,2,0.90991,0.48462,-0.03882,10.824,5.046,-3.573
2026-05-23 13:02:31.844,1424891300,61844,1,1.05176,0.05664,-0.06982,9.107,0.969,4.252
2026-05-23 13:02:31.844,1424891300,61844,2,0.70801,0.43701,0.11182,-3.771,16.771,-13.84
2026-05-23 13:02:31.044,1424890500,62044,1,0.98682,0.10547,-0.05176,1.458,0.618,-11.282
2026-05-23 13:02:31.044,1424890500,62044,2,0.76465,0.55298,0.13525,18.634,3.916,23.527
2026-05-23 13:02:32.244,1424891700,62244,1,1.0835,0.16895,-0.04956,-6.573,-7.252,21.008
2026-05-23 13:02:32.244,1424891700,62244,2,0.8042,0.54321,0.09937,-11.71,0.061,-28.84
2026-05-23 13:02:32.444,1424891900,62444,1,0.88501,0.08667,-0.08203,-33.916,-1.191,13.122
2026-05-23 13:02:32.444,1424891900,62444,2,0.68799,0.5354,0.2959,-40.809,9.779,7.267
2026-05-23 13:02:32.644,1424892100,62644,1,1.14722,0.04663,-0.02686,-20.366,-10.321,-11.344
2026-05-23 13:02:32.644,1424892100,62644,2,0.83643,0.38623,0.15332,-22.115,-47.237,5.244
2026-05-23 13:02:32.844,1424892300,62844,1,0.97754,-0.198,-0.04468,-24.046,2.183,4.702
2026-05-23 13:02:32.844,1424892300,62844,2,0.7439,0.40088,0.15845,-33.397,23.344,3.702
2026-05-23 13:02:32.044,1424891500,63044,1,1.23779,-0.15283,-0.05054,5.855,5.756,-6.542
2026-05-23 13:02:32.044,1424891500,63044,2,0.96753,0.44995,0.12256,29.603,-5.481,11.099
2026-05-23 13:02:33.244,1424892700,63244,1,0.9668,-0.09131,0.01245,15.229,11.282,-3.87
2026-05-23 13:02:33.244,1424892700,63244,2,0.79858,0.34204,0.20093,31.573,3.969,28.786
2026-05-23 13:02:33.444,1424892900,63444,1,1.08716,-0.03662,0.03882,20.237,5.756,9.237
2026-05-23 13:02:33.444,1424892900,63444,2,1.04077,0.34741,0.07227,33.695,16.397,13.985
2026-05-23 13:02:33.644,1424893100,63644,1,0.95459,0.0061,0.0144,51.305,-4.405,14.397
2026-05-23 13:02:33.644,1424893100,63644,2,0.73169,0.40381,0.32959,40.924,28.168,-15.901
2026-05-23 13:02:33.844,1424893300,63844,1,1.07886,0.05469,0.16699,18.931,18.344,-5.885
2026-05-23 13:02:33.844,1424893300,63844,2,0.94971,0.49512,0.19751,11.16,6.992,-8.565
2026-05-23 13:02:33.044,1424892500,64044,1,1.02271,0.07788,0.04443,-39.931,-12.573,5.687
2026-05-23 13:02:33.044,1424892500,64044,2,0.76221,0.46313,0.24658,-37.718,-32.58,-20.542
2026-05-23 13:02:34.244,1424893700,64244,1,0.99097,-0.13379,0.03906,-26.099,1.87,8.733
2026-05-23 13:02:34.244,1424893700,64244,2,0.90308,0.43579,0.20215,-41.046,4.656,-6.924
2026-05-23 13:02:34.444,1424893900,64444,1,1.07178,-0.1333,-0.02954,-15.351,2.817,-8.763
2026-05-23 13:02:34.444,1424893900,64444,2,0.88892,0.33105,0.19922,9.55,-18.046,22.74
2026-05-23 13:02:34.644,1424894100,64644,1,1.00146,-0.07275,0.03467,9.718,6.412,-6.076
2026-05-23 13:02:34.644,1424894100,64644,2,0.94702,0.38477,0.09766,-15.29,-5.305,26.298
2026-05-23 13:02:34.844,1424894300,64844,1,1.08057,-0.05176,0.02637,5.893,-16.298,7.634
2026-05-23 13:02:34.844,1424894300,64844,2,0.83521,0.40918,0.17188,19.053,-4.87,-25.55
2026-05-23 13:02:34.044,1424893500,65044,1,0.99487,-0.04834,0.00562,-3.603,-5.031,-7.763
2026-05-23 13:02:34.044,1424893500,65044,2,0.78589,0.41357,0.20532,-13.504,3.588,-10.046
2026-05-23 13:02:35.244,1424894700,65244,1,1.16406,-0.02051,0.01025,-19.855,-8.855,-6.267
2026-05-23 13:02:35.244,1424894700,65244,2,0.88721,0.5105,0.1084,-0.542,-35.336,-9.198
2026-05-23 13:02:35.444,1424894900,65444,1,1.02368,-0.0874,-0.04883,-26.618,-0.756,-4.634
2026-05-23 13:02:35.444,1424894900,65444,2,0.75781,0.39478,0.17993,-35.046,-2.473,0.458
2026-05-23 13:02:35.644,1424895100,65644,1,1.08203,-0.20581,-0.05835,-0.794,5.786,-4.412
2026-05-23 13:02:35.644,1424895100,65644,2,0.97266,0.40063,0.02271,-2.481,21.298,-4.84
2026-05-23 13:02:35.844,1424895300,65844,1,1.10547,-0.16821,-0.10132,67.351,1.053,3.122
2026-05-23 13:02:35.844,1424895300,65844,2,0.78857,0.4104,0.14478,69.542,47.618,-29.321
2026-05-23 13:02:35.044,1424894500,66044,1,1.0459,0.00439,-0.05566,99.634,-2.786,9.168
2026-05-23 13:02:35.044,1424894500,66044,2,0.74927,0.53345,0.21045,75.679,68.985,-9.397
2026-05-23 13:02:36.244,1424895700,66244,1,1.14844,0.18115,-0.01416,43.672,9.679,-3.023
2026-05-23 13:02:36.244,1424895700,66244,2,0.77246,0.5813,0.1897,33.115,18.55,14.71
2026-05-23 13:02:36.444,1424895900,66444,1,1.00977,0.17041,-0.05078,-24.794,1.282,-9.053
2026-05-23 13:02:36.444,1424895900,66444,2,0.9624,0.54517,0.09033,-35.092,-34.298,53.412
2026-05-23 13:02:36.644,1424896100,66644,1,1.09912,0.16846,-0.11646,-61.496,-12.092,-3.061
2026-05-23 13:02:36.644,1424896100,66644,2,0.78418,0.48096,0.08765,-73.947,-44.695,22.015
2026-05-23 13:02:36.844,1424896300,66844,1,0.89966,0.1228,-0.05493,-75.588,-11.26,-6.084
2026-05-23 13:02:36.844,1424896300,66844,2,1.04712,0.27979,0.13208,-54.565,-43.275,58.817
2026-05-23 13:02:36.044,1424895500,67044,1,1.13721,-0.00757,-0.03564,-42.313,-5.26,-10.595
2026-05-23 13:02:36.044,1424895500,67044,2,0.88403,0.3457,-0.02319,-67.267,-24.076,-0.916
2026-05-23 13:02:37.244,1424896700,67244,1,1.02295,-0.03271,-0.0354,-28.992,0.115,-8.832
2026-05-23 13:02:37.244,1424896700,67244,2,0.87549,0.271,0.08765,-49.595,8.206,-1.763
2026-05-23 13:02:37.444,1424896900,67444,1,1.17944,-0.06763,-0.06982,15.305,-2.389,-4.641
2026-05-23 13:02:37.444,1424896900,67444,2,0.91968,0.3313,0.06543,26.252,1.061,-4.046
2026-05-23 13:02:37.644,1424897100,67644,1,0.97925,-0.07202,-0.02197,31.122,10.649,12.29
2026-05-23 13:02:37.644,1424897100,67644,2,0.75195,0.34497,0.09985,15.527,19.802,-9.733
2026-05-23 13:02:37.844,1424897300,67844,1,1.14526,0.06909,0.00635,-20.107,-14.351,-2.71
2026-05-23 13:02:37.844,1424897300,67844,2,0.93799,0.39453,-0.00122,21.573,-37.924,7.206
2026-05-23 13:02:37.044,1424896500,68044,1,1.02222,0.03467,-0.07886,-5.603,-14.496,3.168
2026-05-23 13:02:37.044,1424896500,68044,2,0.74536,0.45239,0.17578,10.214,12.771,6.809
2026-05-23 13:02:38.244,1424897700,68244,1,1.04883,0.05737,-0.0686,-39.305,6.962,-5.26
2026-05-23 13:02:38.244,1424897700,68244,2,0.88257,0.47266,0.01709,-57.466,10.16,23.321
2026-05-23 13:02:38.444,1424897900,68444,1,1.18701,0.12305,-0.03516,-42.099,-1.466,-9.267
2026-05-23 13:02:38.444,1424897900,68444,2,0.86353,0.479,0.15283,-45.977,-17.244,7.771
2026-05-23 13:02:38.644,1424898100,68644,1,0.83154,0.12988,-0.12036,-81.214,-1.817,-3.053
2026-05-23 13:02:38.644,1424898100,68644,2,0.72559,0.40015,0.26782,-56.802,-19.397,34.489
2026-05-23 13:02:38.844,1424898300,68844,1,1.15894,0.04883,-0.00317,-18.931,-10.786,-23.618
2026-05-23 13:02:38.844,1424898300,68844,2,0.79004,0.69092,0.04004,27.794,-21.687,-61.947
2026-05-23 13:02:38.044,1424897500,69044,1,0.7793,-0.13184,-0.02246,32.237,6.885,-15.786
2026-05-23 13:02:38.044,1424897500,69044,2,0.75537,0.13965,0.32471,5.168,33.229,-37.718
2026-05-23 13:02:39.244,1424898700,69244,1,1.28467,0.21558,-0.06738,94.427,6.031,3.649
2026-05-23 13:02:39.244,1424898700,69244,2,0.94019,0.66992,0.30371,71.313,64.817,-34.214
2026-05-23 13:02:39.444,1424898900,69444,1,0.76929,0.08716,0.02246,78.321,0.634,6.405
2026-05-23 13:02:39.444,1424898900,69444,2,0.70752,0.41626,0.31299,96.824,35.901,-21.038
2026-05-23 13:02:39.644,1424899100,69644,1,1.12817,0.17456,-0.21826,53.267,-3.267,16.092
2026-05-23 13:02:39.644,1424899100,69644,2,0.77856,0.50391,0.01709,84.023,-0.824,4.885
2026-05-23 13:02:39.844,1424899300,69844,1,0.92236,-0.02148,-0.17017,42.489,11.267,46.58
2026-05-23 13:02:39.844,1424899300,69844,2,0.73413,0.42871,0.03735,54.359,9.511,11.763
2026-05-23 13:02:39.044,1424898500,70044,1,1.15674,0.08008,-0.11572,0.344,22.053,37.832
2026-05-23 13:02:39.044,1424898500,70044,2,0.84839,0.59424,-0.06592,56.649,-5.366,28.344
2026-05-23 13:02:40.244,1424899700,70244,1,1.07178,-0.01221,-0.09644,-8.809,4.565,7.237
2026-05-23 13:02:40.244,1424899700,70244,2,0.68677,0.49243,0.1333,-39.504,-28.802,-3.237
2026-05-23 13:02:40.444,1424899900,70444,1,1.1062,0.13477,-0.07471,-50.183,24.244,-24.344
2026-05-23 13:02:40.444,1424899900,70444,2,0.98975,0.33667,-0.02002,-65.473,-21.786,60.359
2026-05-23 13:02:40.644,1424900100,70644,1,1.19995,-0.0166,-0.05371,-84.954,1.718,-12.962
2026-05-23 13:02:40.644,1424900100,70644,2,0.77515,0.29565,0.03052,-61.13,-40.176,-1.496
2026-05-23 13:02:40.844,1424900300,70844,1,0.94531,0.05933,-0.14233,-32.794,-6.046,-18.473
2026-05-23 13:02:40.844,1424900300,70844,2,1.17871,0.21582,0.01465,-53.084,11.954,69.55
2026-05-23 13:02:40.044,1424899500,71044,1,1.11987,0.03442,-0.09448,24.023,-3.496,-9.832
2026-05-23 13:02:40.044,1424899500,71044,2,0.85693,0.32788,0.0188,14.832,-14.718,-39.405
2026-05-23 13:02:41.244,1424900700,71244,1,1.06445,-0.01147,-0.10913,30.252,5.87,7.74
2026-05-23 13:02:41.244,1424900700,71244,2,0.78076,0.37402,0.10913,-1.008,28.725,-28.252
2026-05-23 13:02:41.444,1424900900,71444,1,1.1001,0.04346,-0.0625,5.519,6.481,7.733
2026-05-23 13:02:41.444,1424900900,71444,2,0.83398,0.47998,0.04346,9.374,-10.733,-3.458
2026-05-23 13:02:41.644,1424901100,71644,1,1.0752,-0.0083,-0.10547,-9.878,-2.679,1.84
2026-05-23 13:02:41.644,1424901100,71644,2,0.81299,0.43921,0.06006,1.55,-15.389,5.786
2026-05-23 13:02:41.844,1424901300,71844,1,1.07275,0.00146,-0.10352,-5.557,1.611,-1.145
2026-05-23 13:02:41.844,1424901300,71844,2,0.77734,0.42969,0.0271,-16.481,-6.359,14.901
2026-05-23 13:02:41.044,1424900500,72044,1,1.07251,-0.0271,-0.09375,-13.634,5.275,-0.794
2026-05-23 13:02:41.044,1424900500,72044,2,0.82349,0.35791,0.02563,-13.588,3.282,17.015
2026-05-23 13:02:42.244,1424901700,72244,1,1.06934,-0.03198,-0.11719,-7.779,8.076,-5.863
2026-05-23 13:02:42.244,1424901700,72244,2,0.83374,0.3479,0.00391,-9.275,4.771,17.183
2026-05-23 13:02:42.444,1424901900,72444,1,1.07007,-0.0083,-0.03027,28.183,-0.595,5.656
2026-05-23 13:02:42.444,1424901900,72444,2,0.84253,0.35132,0.08252,26.435,16.069,-19.122
2026-05-23 13:02:42.644,1424902100,72644,1,1.05322,-0.00977,-0.02686,21.359,-0.237,5.542
2026-05-23 13:02:42.644,1424902100,72644,2,0.81982,0.42017,0.08081,18.221,2.313,-12.244
2026-05-23 13:02:42.844,1424902300,72844,1,1.06348,-0.02026,-0.05396,19.779,-6.74,5.565
2026-05-23 13:02:42.844,1424902300,72844,2,0.80273,0.4209,0.04126,14.855,-3.985,-16.802
2026-05-23 13:02:42.044,1424901500,73044,1,1.06885,-0.01807,-0.08862,18.84,-4.489,3.153
2026-05-23 13:02:42.044,1424901500,73044,2,0.77832,0.45068,-0.01099,11.382,-3.107,-9.695
2026-05-23 13:02:43.244,1424902700,73244,1,1.08984,-0.03003,-0.12085,5.015,-3.611,6.435
2026-05-23 13:02:43.244,1424902700,73244,2,0.74878,0.49536,0.0188,4.252,15.695,-4.237
2026-05-23 13:02:45.960,1424905416,75960,1,1.07935,-0.17114,-0.22144,16.679,-2.611,5.344
2026-05-23 13:02:45.960,1424905416,75960,2,0.74438,0.49146,0.02563,4.26,15.832,-7.626
2026-05-23 13:02:45.160,1424904616,76160,1,1.05566,-0.17578,-0.19775,7.397,-0.344,-0.733
2026-05-23 13:02:45.160,1424904616,76160,2,0.74756,0.50293,0.04492,2.794,3.214,-1.305
2026-05-23 13:02:46.360,1424905816,76360,1,1.07056,-0.15967,-0.20435,-0.84,0.16,-4.328
2026-05-23 13:02:46.360,1424905816,76360,2,0.73828,0.51953,0.03979,0.649,-5.298,0.145
2026-05-23 13:02:46.560,1424906016,76560,1,1.06909,-0.12866,-0.19897,-14.878,5.038,-8.786
2026-05-23 13:02:46.560,1424906016,76560,2,0.74072,0.5,0.00513,-7.847,-17.901,10.924
2026-05-23 13:02:46.760,1424906216,76760,1,1.07861,-0.12378,-0.18237,-14.344,4.084,-6.359
2026-05-23 13:02:46.760,1424906216,76760,2,0.73462,0.47681,-0.02466,-3.618,-13.466,8.481
2026-05-23 13:02:46.960,1424906416,76960,1,1.07397,-0.10376,-0.15918,-12.214,4.13,-1.504
2026-05-23 13:02:46.960,1424906416,76960,2,0.73364,0.4812,-0.03955,-4.695,-6.366,4.443
2026-05-23 13:02:46.160,1424905616,77160,1,1.05811,-0.08252,-0.15356,-0.779,2.298,-0.336
2026-05-23 13:02:46.160,1424905616,77160,2,0.71973,0.47168,-0.05908,-1.313,-1.519,2.679
2026-05-23 13:02:47.360,1424906816,77360,1,1.0647,-0.10132,-0.1394,-6.137,-5.122,3.359
2026-05-23 13:02:47.360,1424906816,77360,2,0.70703,0.48169,-0.06885,-0.176,-5.687,-1.687
2026-05-23 13:02:47.560,1424907016,77560,1,1.07471,-0.09839,-0.17725,-7.519,-1.748,1.504
2026-05-23 13:02:47.560,1424907016,77560,2,0.7146,0.50806,-0.07251,-5.183,-3.191,0.733
2026-05-23 13:02:47.760,1424907216,77760,1,1.11597,-0.05444,-0.20435,4.099,5.519,6.038
2026-05-23 13:02:47.760,1424907216,77760,2,0.70459,0.53442,-0.02637,-3.29,26.672,11.824
2026-05-23 13:02:47.960,1424907416,77960,1,1.01709,-0.07178,-0.10303,-47.939,28.344,-23.237
2026-05-23 13:02:47.960,1424907416,77960,2,0.76685,0.49316,0.04858,-57.748,5.275,44.336
2026-05-23 13:02:47.160,1424906616,78160,1,1.07373,-0.10645,-0.00146,-64.771,28.298,-19.916
2026-05-23 13:02:47.160,1424906616,78160,2,0.90234,0.35254,-0.00854,-35.328,-3.542,49.366
2026-05-23 13:02:48.360,1424907816,78360,1,0.98511,-0.15088,0.0332,-46.687,6.992,-15.031
2026-05-23 13:02:48.360,1424907816,78360,2,0.82764,0.26733,0.0791,-39.855,-24.305,-4.176
2026-05-23 13:02:48.560,1424908016,78560,1,1.08496,-0.08716,-0.00708,-13.229,-22.229,-12.427
2026-05-23 13:02:48.560,1424908016,78560,2,0.87476,0.36475,0.04736,-3.71,-36.214,-36.084
2026-05-23 13:02:48.760,1424908216,78760,1,1.12036,-0.01392,-0.02832,-62.611,-3.916,-1.13
2026-05-23 13:02:48.760,1424908216,78760,2,0.75171,0.35352,0.00464,-10.954,-3.863,26.145
2026-05-23 13:02:48.960,1424908416,78960,1,1.04517,-0.01025,-0.05835,-54.282,7.71,-3.74
2026-05-23 13:02:48.960,1424908416,78960,2,0.74951,0.41016,0.04517,-30.634,0.763,52.794
2026-05-23 13:02:48.160,1424907616,79160,1,1.10278,0.02173,-0.03149,-56.725,-0.573,-3.397
2026-05-23 13:02:48.160,1424907616,79160,2,0.8042,0.46558,0.10864,-47.969,-9.282,2.115
2026-05-23 13:02:49.360,1424908816,79360,1,1.07251,0.12622,-0.03394,-55.977,6.313,-21.504
2026-05-23 13:02:49.360,1424908816,79360,2,0.80103,0.43872,0.05322,-40.198,-25.435,17.26
2026-05-23 13:02:49.560,1424909016,79560,1,1.04272,0.12061,-0.03809,-58.939,4.611,-18.359
2026-05-23 13:02:49.560,1424909016,79560,2,0.85767,0.39722,-0.00928,-75.969,-40.038,37.313
2026-05-23 13:02:49.760,1424909216,79760,1,1.03955,-0.00537,-0.04663,-81.824,5.87,-3.023
2026-05-23 13:02:49.760,1424909216,79760,2,0.81226,0.32983,0.06299,-89.634,-14.351,41.885
2026-05-23 13:02:49.960,1424909416,79960,1,1.09351,-0.08569,-0.02539,-85.924,9.069,-14.969
2026-05-23 13:02:49.960,1424909416,79960,2,0.85059,0.26001,0.00537,-63.183,-21.328,34.076
2026-05-23 13:02:49.160,1424908616,80160,1,1.02856,-0.12964,-0.03882,-56.092,-1.023,-15.015
2026-05-23 13:02:49.160,1424908616,80160,2,0.81104,0.22681,-0.03442,-54.534,-25.786,9.26
2026-05-23 13:02:50.360,1424909816,80360,1,1.07983,-0.04297,-0.0354,-39.74,-18.237,-6.267
2026-05-23 13:02:50.360,1424909816,80360,2,0.83643,0.24951,0.03955,-26.519,-21.893,16.481
2026-05-23 13:02:50.560,1424910016,80560,1,1.08228,-0.01782,-0.00684,-34.305,-7.084,-3.092
2026-05-23 13:02:50.560,1424910016,80560,2,0.80225,0.42285,0.10132,-20.321,-1.244,3.046
2026-05-23 13:02:50.760,1424910216,80760,1,1.08203,0.02441,-0.04028,-39.55,11.282,-3.061
2026-05-23 13:02:50.760,1424910216,80760,2,0.80176,0.39331,0.11646,-53.344,2.611,1.863
2026-05-23 13:02:50.960,1424910416,80960,1,1.06543,0.00635,-0.04053,-30.405,8.832,-7.649
2026-05-23 13:02:50.960,1424910416,80960,2,0.8042,0.42114,0.06982,-34.527,-9.695,11.29
2026-05-23 13:02:50.160,1424909616,81160,1,1.04272,-0.00708,-0.04858,-30.053,-2.328,4.115
2026-05-23 13:02:50.160,1424909616,81160,2,0.76465,0.43262,-0.03149,-13.076,-32.168,0.366
2026-05-23 13:02:51.360,1424910816,81360,1,1.17676,-0.07886,-0.00464,-12.328,0.305,12.374
2026-05-23 13:02:51.360,1424910816,81360,2,0.82007,0.56421,0.14111,-20.412,5.137,11.466
2026-05-23 13:02:51.560,1424911016,81560,1,1.08496,-0.14087,0.0564,-33.412,15.71,-7.916
2026-05-23 13:02:51.560,1424911016,81560,2,0.9668,0.39209,0.15015,-17.076,-10.405,27.069
2026-05-23 13:02:51.760,1424911216,81760,1,0.96094,-0.20093,-0.00586,-1.099,6.115,-8.618
2026-05-23 13:02:51.760,1424911216,81760,2,0.7207,0.26343,-0.03003,6.908,-17.901,-14.282
2026-05-23 13:02:51.960,1424911416,81960,1,1.05737,0.00488,0.01514,7.504,-25.107,-7.786
2026-05-23 13:02:51.960,1424911416,81960,2,0.84766,0.18164,0.14038,28.58,5.809,-6.534
2026-05-23 13:02:51.160,1424910616,82160,1,1.04492,0.05273,0.0061,47.366,-5.824,2.802
2026-05-23 13:02:51.160,1424910616,82160,2,0.87964,0.51099,0.12793,-8.267,41.336,-12.885
2026-05-23 13:02:52.360,1424911816,82360,1,0.98853,0.08447,-0.05469,7.611,-0.275,5.901
2026-05-23 13:02:52.360,1424911816,82360,2,0.73486,0.42383,0.16455,27.107,19.229,-11.214
2026-05-23 13:02:52.560,1424912016,82560,1,1.07007,0.02637,-0.02954,-7.42,9.733,4.198
2026-05-23 13:02:52.560,1424912016,82560,2,0.79443,0.51392,0.00269,3.847,-5.382,0.611
2026-05-23 13:02:52.760,1424912216,82760,1,1.0874,0.03223,-0.03882,-16.328,-15.229,-1.153
2026-05-23 13:02:52.760,1424912216,82760,2,0.84473,0.43188,0.04517,-17.076,-29.672,-16.718
2026-05-23 13:02:52.960,1424912416,82960,1,1.00781,-0.01123,0.02661,-0.939,-8.718,-2.183
2026-05-23 13:02:52.960,1424912416,82960,2,0.80347,0.36133,0.12988,-12.427,0.573,13.84
2026-05-23 13:02:52.160,1424911616,83160,1,1.16772,-0.13281,-0.01416,16.878,5.687,-0.939
2026-05-23 13:02:52.160,1424911616,83160,2,0.87573,0.36914,0.02759,30.168,20.58,14.817
2026-05-23 13:02:53.360,1424912816,83360,1,1.02808,-0.10742,-0.03369,40.679,7.618,3.534
2026-05-23 13:02:53.360,1424912816,83360,2,0.7937,0.31396,-0.02393,35.275,10.947,-21.344
2026-05-23 13:02:53.560,1424913016,83560,1,1.05518,-0.04492,-0.09814,41.702,-0.573,2.122
2026-05-23 13:02:53.560,1424913016,83560,2,0.81299,0.49219,-0.07617,67.008,-24.656,-28.031
2026-05-23 13:02:53.760,1424913216,83760,1,1.15015,0.01611,-0.09033,29.695,-5.977,3.061
2026-05-23 13:02:53.760,1424913216,83760,2,0.8313,0.45337,-0.05103,40.595,4.16,-0.305
2026-05-23 13:02:53.960,1424913416,83960,1,1.08643,0.03906,-0.06372,34.069,14.695,-1.321
2026-05-23 13:02:53.960,1424913416,83960,2,0.85352,0.44312,0.06421,18.42,43.893,-2.061
2026-05-23 13:02:53.160,1424912616,84160,1,1.04248,0.18555,-0.00098,20.588,11.595,1.847
2026-05-23 13:02:53.160,1424912616,84160,2,0.76367,0.44971,0.09473,-7.702,13.58,0.504
2026-05-23 13:02:54.360,1424913816,84360,1,1.07813,0.13184,0.01367,-20.901,-0.855,-5.183
2026-05-23 13:02:54.360,1424913816,84360,2,0.99658,0.39941,0.09961,-20.672,-5.13,29.031
2026-05-23 13:02:54.560,1424914016,84560,1,1.02808,0.11011,0.01147,-13.931,-0.405,-11.519
2026-05-23 13:02:54.560,1424914016,84560,2,0.90894,0.3291,0.09082,-44.038,-19.313,4.611
2026-05-23 13:02:54.760,1424914216,84760,1,1.02271,-0.01587,0.04712,-26.0,20.817,-9.916
