datetime,epoch_ms,ts_millis,mpu_id,ax,ay,az,gx,gy,gz
2026-05-23 16:19:39.554,1436719010,72554,2,0.94043,0.21265,0.29126,-2.466,0.939,0.931
2026-05-23 16:19:52.932,1436732388,85931,1,1.04932,0.02466,0.08936,-6.855,-0.031,-9.015
2026-05-23 16:19:52.932,1436732388,85931,2,0.90869,0.22876,0.42529,-16.458,-4.252,4.641
2026-05-23 16:19:55.802,1436735258,88802,1,0.97949,0.0332,0.23828,-0.611,1.985,-2.26
2026-05-23 16:19:55.802,1436735258,88802,2,0.94092,0.2019,0.33398,-2.122,2.031,-0.069
2026-05-23 16:20:01.886,1436741342,94886,1,0.98999,0.05713,0.22241,-2.305,-0.702,-0.511
2026-05-23 16:20:01.886,1436741342,94886,2,0.95459,0.16675,0.33667,-0.863,0.588,1.397
2026-05-23 16:20:04.132,1436743588,98132,1,0.99854,0.08008,0.21191,-1.756,1.107,0.412
2026-05-23 16:20:04.132,1436743588,98132,2,0.95508,0.17212,0.32935,-0.74,0.679,1.588
2026-05-23 16:20:07.121,1436746577,101121,1,0.99951,0.07153,0.21436,-2.26,-0.45,-0.832
2026-05-23 16:20:07.121,1436746577,101121,2,0.95386,0.16626,0.33325,-1.557,1.046,1.191
2026-05-23 16:20:10.618,1436750074,103618,1,0.9917,0.04541,0.21777,-2.183,-0.008,-0.015
2026-05-23 16:20:10.618,1436750074,103618,2,0.94922,0.17676,0.33325,-1.992,1.336,1.29
2026-05-23 16:20:10.839,1436750295,103839,1,0.9917,0.05469,0.21387,-3.603,-0.71,-0.405
2026-05-23 16:20:10.839,1436750295,103839,2,0.9812,0.22729,0.35352,-8.405,-9.0,0.229
2026-05-23 16:20:10.209,1436749665,104209,1,1.06226,0.01538,0.07813,3.924,10.458,-6.626
2026-05-23 16:20:10.209,1436749665,104209,2,0.95874,0.18018,0.354,20.687,-42.756,21.137
2026-05-23 16:20:11.409,1436750865,104409,1,1.07788,0.10864,0.28125,21.939,15.863,-14.618
2026-05-23 16:20:11.409,1436750865,104409,2,0.95142,0.19775,0.32788,-4.046,1.168,1.053
2026-05-23 16:20:13.239,1436752695,107239,1,1.04346,0.09253,0.06641,-2.0,1.321,-1.649
2026-05-23 16:20:13.239,1436752695,107239,2,0.94897,0.20215,0.32617,-2.031,0.16,0.206
2026-05-23 16:20:14.439,1436753895,107439,1,1.03857,0.08545,0.06274,-1.885,2.0,0.115
2026-05-23 16:20:14.439,1436753895,107439,2,0.95386,0.18237,0.33105,-0.756,0.878,1.489
2026-05-23 16:20:17.303,1436756759,110303,1,1.05396,0.09375,0.08594,-4.397,0.832,-0.87
2026-05-23 16:20:17.303,1436756759,110303,2,0.94922,0.18994,0.33105,-2.29,2.42,1.534
2026-05-23 16:20:17.648,1436757104,110648,1,1.03271,0.09619,0.08008,-1.42,-0.031,-0.13
2026-05-23 16:20:17.648,1436757104,110648,2,0.95117,0.19067,0.32178,-0.344,0.771,1.275
2026-05-23 16:20:17.850,1436757306,110850,1,1.04321,0.07275,0.07568,-0.16,1.466,2.198
2026-05-23 16:20:17.850,1436757306,110850,2,0.95264,0.17725,0.31299,0.573,0.687,1.962
2026-05-23 16:20:20.089,1436759545,114088,1,1.03711,0.07788,0.0708,-1.405,-0.313,-0.55
2026-05-23 16:20:20.089,1436759545,114088,2,0.98047,0.14551,0.31982,-0.122,,6.901
2026-05-23 16:20:21.438,1436760894,114438,1,1.00806,0.06934,-0.02319,-2.183,15.168,-0.382
2026-05-23 16:20:21.438,1436760894,114438,2,0.83496,0.10034,0.2561,-7.794,-26.069,28.71
2026-05-23 16:20:21.646,1436761102,114646,1,0.76416,0.12915,0.19995,-4.29,80.924,-11.695
2026-05-23 16:20:21.646,1436761102,114646,2,0.948,0.15088,0.29297,-4.053,1.214,1.298
2026-05-23 16:20:24.641,1436764097,117641,1,1.00586,0.08252,0.20654,-1.748,-0.771,0.015
2026-05-23 16:20:24.641,1436764097,117641,2,0.94678,0.14722,0.30054,-0.076,0.977,0.58
2026-05-23 16:20:27.558,1436767014,120558,1,1.00659,0.08179,0.19287,-3.809,-0.206,-0.328
2026-05-23 16:20:27.558,1436767014,120558,2,0.95361,0.17651,0.31396,-1.588,1.489,0.985
2026-05-23 16:20:30.883,1436770339,123882,1,1.00586,0.08008,0.19312,-1.992,-0.168,-0.435
2026-05-23 16:20:30.883,1436770339,123882,2,0.95264,0.17749,0.31226,-0.977,1.733,1.031
2026-05-23 16:20:30.082,1436769538,124082,1,1.0166,0.07446,0.16626,-1.969,1.565,0.053
2026-05-23 16:20:30.082,1436769538,124082,2,0.96021,0.19824,0.35034,-1.321,-2.061,5.176
2026-05-23 16:20:33.175,1436772631,127175,1,1.03711,0.0752,0.06836,2.145,4.137,6.847
2026-05-23 16:20:33.175,1436772631,127175,2,0.94458,0.21606,0.33545,-0.115,0.855,1.656
2026-05-23 16:20:34.576,1436774032,127576,1,1.03638,0.07007,0.06934,-4.221,0.076,-3.0
2026-05-23 16:20:34.576,1436774032,127576,2,0.94019,0.19995,0.3269,-0.542,0.779,-0.26
2026-05-23 16:20:37.420,1436776876,130420,1,1.05225,0.07813,0.05005,-0.55,-0.58,0.427
2026-05-23 16:20:37.420,1436776876,130420,2,0.95068,0.19238,0.33716,1.435,0.611,3.237
2026-05-23 16:20:37.724,1436777180,130724,1,1.03442,0.08618,0.04224,-3.221,-0.366,-0.26
2026-05-23 16:20:37.724,1436777180,130724,2,0.94214,0.18823,0.30469,-4.565,0.641,-1.649
2026-05-23 16:20:40.422,1436779878,133422,1,1.04517,0.08618,0.06006,-3.725,1.618,-0.489
2026-05-23 16:20:40.422,1436779878,133422,2,0.94653,0.19824,0.3501,0.519,0.313,-0.237
2026-05-23 16:20:40.648,1436780104,133648,1,1.04858,0.08887,0.05298,-1.122,1.221,0.649
2026-05-23 16:20:40.648,1436780104,133648,2,0.95361,0.18604,0.34033,-0.374,0.26,1.733
2026-05-23 16:20:40.859,1436780315,133859,1,1.03687,0.09009,0.0459,-1.153,0.893,0.863
2026-05-23 16:20:40.859,1436780315,133859,2,0.92822,0.24072,0.36865,-9.618,2.656,-4.756
2026-05-23 16:20:43.219,1436782675,137219,1,1.02905,0.07178,0.11182,-9.405,0.977,-0.366
2026-05-23 16:20:43.219,1436782675,137219,2,0.95142,0.25391,0.38184,-11.855,2.069,2.405
2026-05-23 16:20:44.422,1436783878,137422,1,1.03003,0.06152,0.12109,0.992,2.878,0.435
2026-05-23 16:20:44.422,1436783878,137422,2,0.93994,0.21973,0.36011,6.344,-3.901,4.198
2026-05-23 16:20:44.622,1436784078,137622,1,1.01758,0.09863,0.14429,2.145,3.611,-0.817
2026-05-23 16:20:44.622,1436784078,137622,2,0.95215,0.21582,0.36377,2.588,-0.336,3.084
2026-05-23 16:20:44.834,1436784290,137834,1,1.01758,0.09619,0.14844,-0.275,1.565,0.252
2026-05-23 16:20:44.834,1436784290,137834,2,0.94971,0.22656,0.35596,-1.359,-0.58,2.725
2026-05-23 16:20:47.682,1436787138,140682,1,1.0144,0.09741,0.12134,-2.26,1.885,-0.26
2026-05-23 16:20:47.682,1436787138,140682,2,0.9502,0.22144,0.34644,-0.504,-0.008,2.664
2026-05-23 16:20:47.027,1436786483,141027,1,1.01782,0.10645,0.13745,0.634,2.168,-0.511
2026-05-23 16:20:47.027,1436786483,141027,2,0.95361,0.21704,0.34985,0.84,0.832,2.435
2026-05-23 16:20:47.227,1436786683,141227,1,1.02222,0.11084,0.14282,-2.641,0.962,0.328
2026-05-23 16:20:47.227,1436786683,141227,2,0.93359,0.21899,0.34326,-1.13,1.618,1.985
2026-05-23 16:20:48.461,1436787917,141461,1,1.01978,0.09351,0.14185,0.458,1.534,0.397
2026-05-23 16:20:48.461,1436787917,141461,2,0.95117,0.21289,0.34814,-4.603,1.702,0.183
2026-05-23 16:20:48.992,1436788448,141991,1,1.01831,0.10889,0.15259,1.519,3.382,-0.305
2026-05-23 16:20:48.992,1436788448,141991,2,0.93774,0.20728,0.3396,0.893,-0.557,2.641
2026-05-23 16:20:49.334,1436788790,142334,1,1.00586,0.10107,0.16064,-6.939,-0.053,-1.023
2026-05-23 16:20:49.334,1436788790,142334,2,0.94775,0.2146,0.33081,-2.878,2.0,-0.58
2026-05-23 16:20:51.205,1436790661,145205,1,0.84155,0.08472,0.21387,1.931,-48.565,-11.809
2026-05-23 16:20:51.205,1436790661,145205,2,0.86841,0.16699,0.13428,15.466,42.656,-5.298
2026-05-23 16:20:52.409,1436791865,145409,1,1.05493,0.06079,0.03345,6.351,-29.847,4.473
2026-05-23 16:20:52.409,1436791865,145409,2,0.94482,0.25049,0.26514,25.496,8.076,13.427
2026-05-23 16:20:52.609,1436792065,145609,1,1.05591,0.09985,0.01221,-1.443,-8.344,11.42
2026-05-23 16:20:52.609,1436792065,145609,2,0.98853,0.14868,0.23169,35.84,13.847,-8.466
2026-05-23 16:20:55.268,1436794724,148268,1,1.03906,0.09692,0.02734,-2.374,0.092,-0.092
2026-05-23 16:20:55.268,1436794724,148268,2,0.95166,0.20825,0.30493,-2.725,0.931,1.634
2026-05-23 16:20:55.637,1436795093,148637,1,1.04346,0.09937,0.02686,-2.679,-1.412,-0.786
2026-05-23 16:20:55.637,1436795093,148637,2,0.94922,0.20581,0.3186,-1.137,1.061,1.168
2026-05-23 16:20:58.314,1436797770,151314,1,1.04834,0.10889,0.04126,-3.252,-0.458,0.466
2026-05-23 16:20:58.314,1436797770,151314,2,0.95215,0.20679,0.31421,-1.695,1.863,1.573
2026-05-23 16:21:01.510,1436800966,154510,1,0.79443,0.11133,0.64575,8.656,17.71,-7.466
2026-05-23 16:21:01.510,1436800966,154510,2,0.77271,0.25903,-0.15015,20.931,-47.496,-11.229
2026-05-23 16:21:04.436,1436803892,157436,1,0.99902,0.08643,0.21021,-2.16,0.725,0.565
2026-05-23 16:21:04.436,1436803892,157436,2,0.96118,0.1543,0.25513,-1.237,2.237,1.649
2026-05-23 16:21:07.958,1436807414,160958,1,0.97388,0.10791,0.20776,-0.786,0.13,-0.069
2026-05-23 16:21:07.958,1436807414,160958,2,0.95117,0.15088,0.25195,1.603,0.992,3.298
2026-05-23 16:21:12.069,1436811525,166069,1,1.05542,0.07593,0.01758,10.427,1.191,2.115
2026-05-23 16:21:12.069,1436811525,166069,2,0.9436,0.20679,0.3252,8.763,2.282,6.992
2026-05-23 16:21:13.269,1436812725,166269,1,1.05518,0.11523,0.03345,11.634,8.282,5.053
2026-05-23 16:21:13.269,1436812725,166269,2,0.94556,0.18726,0.32568,6.344,3.565,-4.779
2026-05-23 16:21:13.469,1436812925,166469,1,1.05176,0.07813,0.00757,-3.13,-1.221,-0.221
2026-05-23 16:21:13.469,1436812925,166469,2,0.96191,0.17847,0.33105,-3.611,0.901,0.656
2026-05-23 16:21:13.669,1436813125,166669,1,1.05054,0.08203,0.03467,-5.824,1.237,-5.122
2026-05-23 16:21:13.669,1436813125,166669,2,0.93628,0.20581,0.33423,-10.344,0.74,-1.916
2026-05-23 16:21:13.869,1436813325,166869,1,1.03979,0.07886,0.04565,-1.076,2.115,-1.382
2026-05-23 16:21:13.869,1436813325,166869,2,0.94482,0.2207,0.33984,-1.901,0.55,2.924
2026-05-23 16:21:13.069,1436812525,167069,1,1.04761,0.08887,0.0564,-1.237,3.328,-0.206
2026-05-23 16:21:13.069,1436812525,167069,2,0.94629,0.20557,0.33691,2.267,1.191,1.603
2026-05-23 16:21:14.269,1436813725,167269,1,1.04175,0.10132,0.05078,-1.672,-2.023,0.87
2026-05-23 16:21:14.269,1436813725,167269,2,0.9541,0.19312,0.31836,-3.16,0.618,1.733
2026-05-23 16:21:14.469,1436813925,167469,1,1.04541,0.08594,0.05029,-3.557,0.267,-0.748
2026-05-23 16:21:14.469,1436813925,167469,2,0.95093,0.21118,0.34399,-0.649,1.641,1.481
2026-05-23 16:21:14.669,1436814125,167669,1,1.03979,0.0918,0.05762,-1.603,0.267,-0.626
2026-05-23 16:21:14.669,1436814125,167669,2,0.94727,0.20044,0.33032,-1.947,1.603,1.641
2026-05-23 16:21:14.869,1436814325,167869,1,1.0459,0.09082,0.04688,-1.298,-0.412,-0.321
2026-05-23 16:21:14.869,1436814325,167869,2,0.95313,0.20264,0.34839,1.282,0.71,1.656
2026-05-23 16:21:14.069,1436813525,168069,1,1.04077,0.09131,0.04858,-0.969,0.42,0.298
2026-05-23 16:21:14.069,1436813525,168069,2,0.95459,0.19946,0.3396,-1.74,1.008,1.664
2026-05-23 16:21:15.269,1436814725,168269,1,1.04126,0.09277,0.05103,-0.87,1.412,-0.145
2026-05-23 16:21:15.269,1436814725,168269,2,0.95044,0.20435,0.34277,-0.405,0.137,1.13
2026-05-23 16:21:15.565,1436815021,168565,1,1.04517,0.09644,0.04761,-2.038,-1.069,-0.305
2026-05-23 16:21:15.565,1436815021,168565,2,0.95166,0.19946,0.32861,-1.977,0.221,1.405
2026-05-23 16:21:15.765,1436815221,168765,1,1.04663,0.09009,0.06104,-2.214,0.725,-0.076
2026-05-23 16:21:15.765,1436815221,168765,2,0.94873,0.20239,0.3457,-1.611,1.412,2.321
2026-05-23 16:21:15.965,1436815421,168965,1,1.04395,0.09326,0.05835,-0.687,-0.557,-0.496
2026-05-23 16:21:15.965,1436815421,168965,2,0.94922,0.19775,0.33545,-2.145,0.511,1.305
2026-05-23 16:21:15.165,1436814621,169165,1,1.04175,0.09424,0.0459,-0.733,0.015,0.076
2026-05-23 16:21:15.165,1436814621,169165,2,0.95264,0.19458,0.33618,-3.435,1.16,1.756
2026-05-23 16:21:16.365,1436815821,169365,1,1.0481,0.09912,0.05005,-2.023,1.191,-0.939
2026-05-23 16:21:16.365,1436815821,169365,2,0.95435,0.20068,0.32251,-0.42,0.45,1.687
2026-05-23 16:21:16.565,1436816021,169565,1,1.05933,0.10107,0.04395,-1.794,-0.443,-0.053
2026-05-23 16:21:16.565,1436816021,169565,2,0.94824,0.19263,0.33423,-0.908,0.511,0.557
2026-05-23 16:21:16.765,1436816221,169765,1,1.04102,0.08887,0.04443,-2.26,0.458,0.092
2026-05-23 16:21:16.765,1436816221,169765,2,0.95215,0.19409,0.32788,-2.626,2.298,2.061
2026-05-23 16:21:16.965,1436816421,169965,1,1.04883,0.0979,0.05298,-2.298,-0.435,-0.206
2026-05-23 16:21:16.965,1436816421,169965,2,0.9563,0.19409,0.33716,-1.87,1.305,0.458
2026-05-23 16:21:16.165,1436815621,170165,1,1.0415,0.09277,0.0437,-1.969,-0.427,0.351
2026-05-23 16:21:16.165,1436815621,170165,2,0.95142,0.19995,0.33057,0.313,2.031,1.641
2026-05-23 16:21:17.365,1436816821,170365,1,1.04736,0.10132,0.04419,-5.427,-0.733,1.626
2026-05-23 16:21:17.365,1436816821,170365,2,0.95923,0.20288,0.34155,0.305,1.046,-0.344
2026-05-23 16:21:17.565,1436817021,170565,1,1.05591,0.08203,0.03784,1.031,-0.763,1.267
2026-05-23 16:21:17.565,1436817021,170565,2,0.94678,0.20142,0.3147,0.336,0.565,2.718
2026-05-23 16:21:17.765,1436817221,170765,1,1.05298,0.08179,0.03125,-1.45,-0.305,-1.397
2026-05-23 16:21:17.765,1436817221,170765,2,0.94482,0.19336,0.33154,-0.206,1.542,2.412
2026-05-23 16:21:17.965,1436817421,170965,1,1.04395,0.09497,0.03247,-4.313,0.534,-1.573
2026-05-23 16:21:17.965,1436817421,170965,2,0.948,0.19458,0.32666,-3.366,1.527,0.702
2026-05-23 16:21:17.165,1436816621,171165,1,1.04883,0.09009,0.03149,-1.855,-0.504,-0.756
2026-05-23 16:21:17.165,1436816621,171165,2,0.95459,0.2002,0.32837,0.366,1.603,1.565
2026-05-23 16:21:18.365,1436817821,171365,1,1.04785,0.09937,0.02563,-1.893,2.847,-1.29
2026-05-23 16:21:18.365,1436817821,171365,2,0.95898,0.20361,0.36011,2.901,1.443,0.931
2026-05-23 16:21:18.565,1436818021,171565,1,1.04321,0.09277,0.03271,-1.344,0.008,-0.641
2026-05-23 16:21:18.565,1436818021,171565,2,0.94653,0.20093,0.34766,0.198,1.855,1.45
2026-05-23 16:21:18.765,1436818221,171765,1,1.04907,0.10864,0.03027,-0.962,-2.107,0.473
2026-05-23 16:21:18.765,1436818221,171765,2,0.95728,0.20215,0.34082,-2.282,1.985,1.344
2026-05-23 16:21:18.965,1436818421,171965,1,1.05493,0.10034,0.03345,-2.16,2.344,0.588
2026-05-23 16:21:18.965,1436818421,171965,2,0.95288,0.20435,0.34375,0.496,1.794,1.87
2026-05-23 16:21:18.165,1436817621,172165,1,1.03882,0.09106,0.02319,-1.74,2.702,-0.145
2026-05-23 16:21:18.165,1436817621,172165,2,0.95166,0.20996,0.34106,-0.427,2.168,1.656
2026-05-23 16:21:19.365,1436818821,172365,1,1.04053,0.08545,0.04614,-1.901,0.908,0.092
2026-05-23 16:21:19.365,1436818821,172365,2,0.95264,0.20068,0.34937,-0.847,1.389,1.588
2026-05-23 16:21:19.565,1436819021,172565,1,1.04443,0.09302,0.04053,-2.405,-0.687,-0.099
2026-05-23 16:21:19.565,1436819021,172565,2,0.95239,0.2041,0.34766,-1.176,-0.107,0.809
2026-05-23 16:21:19.765,1436819221,172765,1,1.04419,0.09326,0.04297,-1.702,0.641,-0.229
2026-05-23 16:21:19.765,1436819221,172765,2,0.95142,0.20459,0.34546,-0.519,1.313,2.122
2026-05-23 16:21:19.965,1436819421,172965,1,1.04053,0.09863,0.03809,-0.832,0.427,0.031
2026-05-23 16:21:19.965,1436819421,172965,2,0.95044,0.19971,0.32935,-5.573,2.015,1.634
2026-05-23 16:21:19.165,1436818621,173165,1,1.05127,0.09302,0.03833,-2.305,-0.061,-0.824
2026-05-23 16:21:19.165,1436818621,173165,2,0.95313,0.20264,0.33667,-0.672,0.023,1.412
2026-05-23 16:21:20.365,1436819821,173365,1,1.04321,0.09863,0.03857,-2.954,-0.214,-0.832
2026-05-23 16:21:20.365,1436819821,173365,2,0.94287,0.20166,0.33887,-1.099,0.229,1.412
2026-05-23 16:21:20.565,1436820021,173565,1,1.05664,0.10303,0.03711,-2.336,0.71,0.145
2026-05-23 16:21:20.565,1436820021,173565,2,0.9502,0.20386,0.33911,0.542,0.481,0.58
2026-05-23 16:21:20.765,1436820221,173765,1,1.05273,0.09619,0.0332,-1.74,-0.481,-0.099
2026-05-23 16:21:20.765,1436820221,173765,2,0.95313,0.20093,0.35107,-1.397,1.824,1.427
2026-05-23 16:21:20.965,1436820421,173965,1,1.04907,0.09814,0.03711,-1.779,-0.122,-0.038
2026-05-23 16:21:20.965,1436820421,173965,2,0.95435,0.19873,0.34253,-2.099,2.015,0.901
2026-05-23 16:21:20.165,1436819621,174165,1,1.04858,0.09619,0.02954,-1.634,0.473,0.008
2026-05-23 16:21:20.165,1436819621,174165,2,0.95215,0.20215,0.34692,-0.863,1.458,1.153
2026-05-23 16:21:21.365,1436820821,174365,1,1.06885,0.09912,-0.02686,-9.855,7.321,-1.038
2026-05-23 16:21:21.365,1436820821,174365,2,0.88403,0.12744,0.26001,-11.992,-18.328,9.053
2026-05-23 16:21:21.565,1436821021,174565,1,0.95801,0.10815,0.07861,-12.802,75.664,-4.298
2026-05-23 16:21:21.565,1436821021,174565,2,0.81885,0.11987,0.14575,-36.992,-51.664,14.412
2026-05-23 16:21:21.765,1436821221,174765,1,0.75977,0.04028,0.44775,-5.16,36.603,-6.427
2026-05-23 16:21:21.765,1436821221,174765,2,0.76099,0.21191,-0.02173,-26.359,-52.977,-16.221
2026-05-23 16:21:21.965,1436821421,174965,1,0.95483,0.13794,0.5791,11.611,-14.504,3.405
2026-05-23 16:21:21.965,1436821421,174965,2,0.94702,0.19043,-0.04321,11.267,23.061,-6.168
2026-05-23 16:21:21.165,1436820621,175165,1,0.95703,0.0625,0.27002,6.634,-36.718,9.595
2026-05-23 16:21:21.165,1436820621,175165,2,0.95605,0.23169,0.12744,3.336,33.344,2.977
2026-05-23 16:21:22.365,1436821821,175365,1,1.05981,0.14429,0.19751,25.977,-7.0,13.626
2026-05-23 16:21:22.365,1436821821,175365,2,0.97046,0.22119,0.17065,6.748,29.214,3.023
2026-05-23 16:21:22.565,1436822021,175565,1,1.06543,0.07275,0.14282,13.328,-15.786,14.412
2026-05-23 16:21:22.565,1436822021,175565,2,0.96753,0.15552,0.26123,15.557,8.794,-5.107
2026-05-23 16:21:22.765,1436822221,175765,1,1.03711,0.04565,-0.02368,-30.588,-24.55,-3.855
2026-05-23 16:21:22.765,1436822221,175765,2,0.97998,0.19775,0.30908,-12.962,37.969,-6.641
2026-05-23 16:21:22.965,1436822421,175965,1,1.08496,0.0415,0.02173,2.695,8.565,-1.573
2026-05-23 16:21:22.965,1436822421,175965,2,0.96729,0.19214,0.4314,6.282,-3.046,13.557
2026-05-23 16:21:22.165,1436821621,176165,1,1.03345,0.08667,0.06885,-1.092,11.626,-4.191
2026-05-23 16:21:22.165,1436821621,176165,2,0.9458,0.13452,0.32935,-10.069,-12.084,-2.412
2026-05-23 16:21:23.365,1436822821,176365,1,1.01514,0.09424,0.12231,-18.0,3.313,-5.534
2026-05-23 16:21:23.365,1436822821,176365,2,0.95215,0.177,0.30811,-9.672,-2.794,-5.565
2026-05-23 16:21:23.565,1436823021,176565,1,1.03491,0.06787,0.11646,6.519,8.725,2.313
2026-05-23 16:21:23.565,1436823021,176565,2,0.95581,0.17578,0.31128,8.107,-2.534,5.908
2026-05-23 16:21:23.765,1436823221,176765,1,1.02905,0.10474,0.12524,-0.015,3.649,0.053
2026-05-23 16:21:23.765,1436823221,176765,2,0.9375,0.16772,0.2937,2.237,-2.771,-4.092
2026-05-23 16:21:23.965,1436823421,176965,1,1.03052,0.06494,0.15942,-5.115,1.084,-0.786
2026-05-23 16:21:23.965,1436823421,176965,2,0.95605,0.21265,0.29053,-3.412,-1.748,-2.137
2026-05-23 16:21:23.165,1436822621,177165,1,1.0188,0.08105,0.14087,3.664,2.328,1.832
2026-05-23 16:21:23.165,1436822621,177165,2,0.94019,0.18604,0.27686,1.053,-0.84,3.267
2026-05-23 16:21:24.365,1436823821,177365,1,1.01123,0.08081,0.15332,-5.542,0.099,-2.084
2026-05-23 16:21:24.365,1436823821,177365,2,0.9458,0.20166,0.27417,-2.29,0.611,
2026-05-23 16:21:24.565,1436824021,177565,1,1.021,0.08252,0.14917,-0.412,0.466,-0.45
2026-05-23 16:21:24.565,1436824021,177565,2,0.94653,0.18408,0.26538,-0.786,-0.939,4.29
2026-05-23 16:21:24.765,1436824221,177765,1,1.01514,0.08691,0.14551,-4.832,-1.084,-0.763
2026-05-23 16:21:24.765,1436824221,177765,2,0.94385,0.18896,0.2644,-3.031,0.947,1.313
2026-05-23 16:21:24.965,1436824421,177965,1,1.01953,0.08301,0.14136,-2.931,-0.931,-0.389
2026-05-23 16:21:24.965,1436824421,177965,2,0.94824,0.18359,0.26367,-0.908,-0.679,2.282
2026-05-23 16:21:24.165,1436823621,178165,1,1.01929,0.08936,0.13501,0.565,0.802,-1.389
2026-05-23 16:21:24.165,1436823621,178165,2,0.94092,0.17676,0.24878,-0.229,1.916,2.893
2026-05-23 16:21:25.365,1436824821,178365,1,1.01978,0.10376,0.16357,-2.573,2.16,-1.397
2026-05-23 16:21:25.365,1436824821,178365,2,0.95825,0.18604,0.28027,-2.794,3.405,-0.061
2026-05-23 16:21:25.565,1436825021,178565,1,1.01978,0.08545,0.14673,-4.076,-0.244,0.122
2026-05-23 16:21:25.565,1436825021,178565,2,0.94336,0.18262,0.27246,-0.763,0.802,2.344
2026-05-23 16:21:25.765,1436825221,178765,1,1.02466,0.08936,0.15405,-0.107,1.84,0.046
2026-05-23 16:21:25.765,1436825221,178765,2,0.94434,0.17627,0.2832,-1.191,1.328,1.275
2026-05-23 16:21:25.965,1436825421,178965,1,1.01563,0.08618,0.15454,-2.878,0.733,-0.015
2026-05-23 16:21:25.965,1436825421,178965,2,0.95166,0.18384,0.27832,0.557,0.885,-0.153
2026-05-23 16:21:25.165,1436824621,179165,1,1.00732,0.08813,0.15308,-2.626,0.84,-0.008
2026-05-23 16:21:25.165,1436824621,179165,2,0.93799,0.18018,0.26538,0.344,0.282,1.229
2026-05-23 16:21:26.365,1436825821,179365,1,1.01245,0.09619,0.16772,-1.344,-0.031,0.023
2026-05-23 16:21:26.365,1436825821,179365,2,0.94263,0.17798,0.27075,-0.664,0.305,-0.053
2026-05-23 16:21:26.565,1436826021,179565,1,1.0249,0.08594,0.15601,-2.435,0.168,-0.863
2026-05-23 16:21:26.565,1436826021,179565,2,0.94434,0.18994,0.26831,-0.672,2.473,1.122
2026-05-23 16:21:26.765,1436826221,179765,1,1.02588,0.09131,0.15234,0.153,1.137,-0.336
2026-05-23 16:21:26.765,1436826221,179765,2,0.94629,0.17969,0.26855,-0.817,1.366,1.45
2026-05-23 16:21:26.965,1436826421,179965,1,1.01343,0.09595,0.15405,-0.702,0.954,-0.779
2026-05-23 16:21:26.965,1436826421,179965,2,0.94482,0.18335,0.26636,-0.015,1.244,1.267
2026-05-23 16:21:26.165,1436825621,180165,1,1.01196,0.0957,0.16455,-1.305,0.908,-0.71
2026-05-23 16:21:26.165,1436825621,180165,2,0.95166,0.17798,0.27441,-1.061,0.412,1.221
2026-05-23 16:21:27.365,1436826821,180365,1,1.01001,0.09961,0.15283,-2.305,0.519,-0.336
2026-05-23 16:21:27.365,1436826821,180365,2,0.94434,0.18555,0.26514,-1.824,0.557,1.389
2026-05-23 16:21:27.592,1436827048,180591,1,1.01343,0.09839,0.15723,-2.412,-0.412,-0.359
2026-05-23 16:21:27.592,1436827048,180591,2,0.94238,0.18335,0.26392,-1.603,0.458,1.473
2026-05-23 16:21:27.791,1436827247,180791,1,1.01807,0.09668,0.16284,-3.344,-0.214,-0.336
2026-05-23 16:21:27.791,1436827247,180791,2,0.94092,0.18042,0.2583,-3.305,0.885,1.267
2026-05-23 16:21:27.991,1436827447,180991,1,1.01343,0.0979,0.15503,-2.656,-0.107,0.336
2026-05-23 16:21:27.991,1436827447,180991,2,0.94995,0.17603,0.25952,-1.191,1.061,1.015
2026-05-23 16:21:27.191,1436826647,181191,1,1.01685,0.09521,0.16064,-2.328,-0.153,0.084
2026-05-23 16:21:27.191,1436826647,181191,2,0.94873,0.18506,0.26514,-0.954,1.092,1.122
2026-05-23 16:21:28.391,1436827847,181391,1,1.01685,0.09302,0.14575,-3.099,-0.634,-0.45
2026-05-23 16:21:28.391,1436827847,181391,2,0.94165,0.19531,0.25562,-1.779,0.87,1.183
2026-05-23 16:21:28.591,1436828047,181591,1,1.01929,0.10083,0.15137,-1.969,-0.053,-0.397
2026-05-23 16:21:28.591,1436828047,181591,2,0.9397,0.18408,0.26733,-1.13,1.252,1.321
2026-05-23 16:21:28.791,1436828247,181791,1,1.01782,0.09546,0.14209,-0.954,0.947,-0.824
2026-05-23 16:21:28.791,1436828247,181791,2,0.94165,0.18188,0.26099,-1.443,1.725,1.603
2026-05-23 16:21:28.991,1436828447,181991,1,1.01587,0.09399,0.15527,-0.366,1.496,-0.603
2026-05-23 16:21:28.991,1436828447,181991,2,0.94482,0.18018,0.2666,-1.542,1.13,1.328
2026-05-23 16:21:28.191,1436827647,182191,1,1.01123,0.0957,0.14844,-0.71,1.031,-0.435
2026-05-23 16:21:28.191,1436827647,182191,2,0.94556,0.17871,0.26392,-0.13,1.817,1.664
2026-05-23 16:21:29.391,1436828847,182391,1,1.01123,0.1001,0.15942,-0.718,0.153,-0.756
2026-05-23 16:21:29.391,1436828847,182391,2,0.94702,0.18164,0.2644,-1.366,1.107,1.504
2026-05-23 16:21:29.650,1436829106,182650,1,1.01514,0.1084,0.15381,-2.412,-0.229,-0.618
2026-05-23 16:21:29.650,1436829106,182650,2,0.94067,0.17529,0.26709,-1.26,0.534,1.977
2026-05-23 16:21:29.850,1436829306,182850,1,1.0083,0.10669,0.14941,-2.0,0.023,-0.473
2026-05-23 16:21:29.850,1436829306,182850,2,0.96313,0.1748,0.26245,-1.847,1.412,1.359
2026-05-23 16:21:29.050,1436828506,183050,1,1.01465,0.10889,0.14941,-2.656,-0.229,-0.893
2026-05-23 16:21:29.050,1436828506,183050,2,0.94214,0.1792,0.26538,-1.473,0.748,1.351
2026-05-23 16:21:29.250,1436828706,183250,1,1.01563,0.10547,0.15674,-1.878,0.038,0.176
2026-05-23 16:21:29.250,1436828706,183250,2,0.94727,0.17993,0.25488,-1.168,0.885,1.58
2026-05-23 16:21:30.450,1436829906,183450,1,1.01343,0.10571,0.1604,-1.939,-0.16,0.038
2026-05-23 16:21:30.450,1436829906,183450,2,0.94604,0.18018,0.26294,-2.366,0.901,1.42
2026-05-23 16:21:30.650,1436830106,183650,1,1.01855,0.104,0.1521,-2.183,-0.092,-0.374
2026-05-23 16:21:30.650,1436830106,183650,2,0.95142,0.17676,0.26221,-1.305,0.985,1.328
2026-05-23 16:21:30.850,1436830306,183850,1,1.02075,0.10742,0.15356,-2.466,0.122,-0.008
2026-05-23 16:21:30.850,1436830306,183850,2,0.94458,0.17896,0.26099,-1.221,1.244,1.351
2026-05-23 16:21:30.050,1436829506,184050,1,1.02051,0.08887,0.1333,-2.29,0.466,-0.504
2026-05-23 16:21:30.050,1436829506,184050,2,0.9375,0.1897,0.27319,-2.626,-1.031,3.031
2026-05-23 16:21:30.250,1436829706,184250,1,1.05273,0.09497,0.02905,-7.74,21.863,-3.076
2026-05-23 16:21:30.250,1436829706,184250,2,1.01343,0.15918,0.29736,2.198,-26.786,9.977
2026-05-23 16:21:31.450,1436830906,184450,1,1.03833,0.07495,0.20972,-7.603,36.939,-7.756
2026-05-23 16:21:31.450,1436830906,184450,2,1.02417,0.12866,0.21045,-1.786,-45.061,6.397
2026-05-23 16:21:31.650,1436831106,184650,1,0.94336,0.1189,0.55054,-20.71,28.206,-6.282
2026-05-23 16:21:31.650,1436831106,184650,2,0.79443,0.1626,-0.10718,-11.336,-29.702,-5.397
2026-05-23 16:21:31.850,1436831306,184850,1,0.85132,0.09277,0.55713,-9.504,-4.847,4.618
2026-05-23 16:21:31.850,1436831306,184850,2,0.79126,0.13184,-0.10132,-25.557,4.954,-8.893
2026-05-23 16:21:31.050,1436830506,185050,1,0.74536,-0.02466,0.38501,-3.916,-35.656,4.435
2026-05-23 16:21:31.050,1436830506,185050,2,0.64478,0.19458,0.07227,-1.221,39.122,4.695
2026-05-23 16:21:32.275,1436831731,185275,1,0.82837,0.10547,0.16113,12.763,-42.74,-10.527
2026-05-23 16:21:32.275,1436831731,185275,2,0.88184,0.15332,0.18042,-29.634,81.58,-12.443
2026-05-23 16:21:32.475,1436831931,185475,1,1.0144,0.10352,-0.00122,-5.237,-34.107,3.84
2026-05-23 16:21:32.475,1436831931,185475,2,0.92578,0.21069,0.16846,-12.893,29.511,7.58
2026-05-23 16:21:32.675,1436832131,185675,1,1.08032,0.09741,-0.02319,7.58,-3.26,5.496
2026-05-23 16:21:32.675,1436832131,185675,2,0.97754,0.20703,0.31006,23.122,1.595,
2026-05-23 16:21:32.875,1436832331,185875,1,1.0625,0.0752,-0.03687,6.84,0.847,2.565
2026-05-23 16:21:32.875,1436832331,185875,2,0.95215,0.21191,0.30664,-8.977,15.435,-1.244
2026-05-23 16:21:32.075,1436831531,186075,1,1.04785,0.09424,-0.00366,-4.412,6.412,2.55
2026-05-23 16:21:32.075,1436831531,186075,2,0.95508,0.17871,0.31494,-1.962,-1.802,8.351
2026-05-23 16:21:33.275,1436832731,186275,1,1.06567,0.08936,0.00537,-13.267,3.145,-2.557
2026-05-23 16:21:33.275,1436832731,186275,2,0.95776,0.19214,0.31958,-9.198,-0.725,-2.374
2026-05-23 16:21:33.475,1436832931,186475,1,1.05103,0.08008,0.00586,-1.748,2.794,-3.29
2026-05-23 16:21:33.475,1436832931,186475,2,0.94604,0.19409,0.3457,5.084,1.618,-0.496
2026-05-23 16:21:33.675,1436833131,186675,1,1.05371,0.09961,0.01245,1.435,-1.962,0.176
2026-05-23 16:21:33.675,1436833131,186675,2,0.95752,0.18994,0.32446,-0.115,1.313,1.847
2026-05-23 16:21:33.875,1436833331,186875,1,1.06348,0.10059,-0.00952,2.252,1.947,-3.176
2026-05-23 16:21:33.875,1436833331,186875,2,0.95508,0.18994,0.33716,0.435,-0.847,4.489
2026-05-23 16:21:33.075,1436832531,187075,1,1.04443,0.10962,0.01514,1.0,2.29,-0.656
2026-05-23 16:21:33.075,1436832531,187075,2,0.95581,0.19092,0.34106,2.534,1.298,1.305
2026-05-23 16:21:34.275,1436833731,187275,1,1.0481,0.10693,0.00952,-1.504,0.893,-0.954
2026-05-23 16:21:34.275,1436833731,187275,2,0.95361,0.18384,0.33569,-0.847,1.252,0.145
2026-05-23 16:21:34.475,1436833931,187475,1,1.05054,0.11841,0.0144,-2.527,0.023,-0.023
2026-05-23 16:21:34.475,1436833931,187475,2,0.95508,0.18091,0.3208,-2.511,1.229,1.031
2026-05-23 16:21:34.675,1436834131,187675,1,1.05176,0.10645,0.01709,-4.542,1.359,1.153
2026-05-23 16:21:34.675,1436834131,187675,2,0.95386,0.18604,0.32837,-1.511,1.153,-0.557
2026-05-23 16:21:34.875,1436834331,187875,1,1.0542,0.09399,0.01489,-2.656,1.534,0.756
2026-05-23 16:21:34.875,1436834331,187875,2,0.94873,0.18579,0.32178,1.191,0.405,2.687
2026-05-23 16:21:34.075,1436833531,188075,1,1.06055,0.10107,0.02319,7.374,0.466,-1.023
2026-05-23 16:21:34.075,1436833531,188075,2,0.94751,0.17529,0.3064,0.015,0.321,3.748
2026-05-23 16:21:35.275,1436834731,188275,1,1.04419,0.10303,0.01733,-3.924,0.023,1.115
2026-05-23 16:21:35.275,1436834731,188275,2,0.95068,0.17407,0.32251,-1.305,2.053,-0.023
2026-05-23 16:21:35.475,1436834931,188475,1,1.05469,0.10352,0.021,-3.267,0.42,0.122
2026-05-23 16:21:35.475,1436834931,188475,2,0.95532,0.18213,0.31543,-2.687,0.947,1.038
2026-05-23 16:21:35.675,1436835131,188675,1,1.05005,0.09985,0.01538,-3.389,1.115,-1.557
2026-05-23 16:21:35.675,1436835131,188675,2,0.95264,0.17822,0.32568,-2.061,0.847,1.107
2026-05-23 16:21:35.875,1436835331,188875,1,1.04932,0.10645,0.02222,-2.55,0.061,-0.893
2026-05-23 16:21:35.875,1436835331,188875,2,0.95435,0.18604,0.3313,-1.611,1.473,1.466
2026-05-23 16:21:35.075,1436834531,189075,1,1.04321,0.09473,0.02051,-1.275,0.45,-0.328
2026-05-23 16:21:35.075,1436834531,189075,2,0.95166,0.18628,0.32349,-0.214,1.802,1.55
2026-05-23 16:21:36.275,1436835731,189275,1,1.04614,0.11011,0.03003,-2.405,0.664,-0.282
2026-05-23 16:21:36.275,1436835731,189275,2,0.95044,0.1748,0.31885,-2.038,2.046,1.046
2026-05-23 16:21:36.475,1436835931,189475,1,1.05322,0.11084,0.02344,-2.115,0.55,-0.595
2026-05-23 16:21:36.475,1436835931,189475,2,0.95654,0.1897,0.32446,-1.603,1.344,0.908
2026-05-23 16:21:36.675,1436836131,189675,1,1.04541,0.10522,0.03149,-1.092,0.908,0.275
2026-05-23 16:21:36.675,1436836131,189675,2,0.95728,0.18774,0.32275,-0.435,1.321,1.763
2026-05-23 16:21:36.875,1436836331,189875,1,1.05298,0.11133,0.02417,0.031,0.496,0.359
2026-05-23 16:21:36.875,1436836331,189875,2,0.95068,0.17407,0.33423,-0.985,0.298,1.466
2026-05-23 16:21:36.075,1436835531,190075,1,1.05273,0.09692,0.02637,-1.092,-0.183,0.206
2026-05-23 16:21:36.075,1436835531,190075,2,0.95581,0.17676,0.31787,-1.374,1.374,1.328
2026-05-23 16:21:37.275,1436836731,190275,1,1.05127,0.10718,0.02197,-1.13,-0.031,-0.573
2026-05-23 16:21:37.275,1436836731,190275,2,0.95288,0.18652,0.32837,-1.542,1.282,1.267
2026-05-23 16:21:37.475,1436836931,190475,1,1.04199,0.10498,0.00732,-1.771,1.267,-0.298
2026-05-23 16:21:37.475,1436836931,190475,2,0.95923,0.18164,0.34009,-0.817,0.687,0.84
2026-05-23 16:21:37.675,1436837131,190675,1,1.03882,0.10425,0.02588,-2.771,1.137,0.008
2026-05-23 16:21:37.675,1436837131,190675,2,0.9519,0.18213,0.32153,-1.221,0.84,1.634
2026-05-23 16:21:37.875,1436837331,190875,1,1.05151,0.1123,0.02832,-2.267,-0.443,-0.382
2026-05-23 16:21:37.875,1436837331,190875,2,0.95605,0.1853,0.32446,-0.328,0.664,1.061
2026-05-23 16:21:37.075,1436836531,191075,1,1.05176,0.10596,0.02979,-3.359,0.42,-0.344
2026-05-23 16:21:37.075,1436836531,191075,2,0.95703,0.18677,0.3252,-1.924,1.405,1.664
2026-05-23 16:21:38.275,1436837731,191275,1,1.04443,0.09692,0.03564,-2.779,0.481,-0.756
2026-05-23 16:21:38.275,1436837731,191275,2,0.9563,0.1853,0.33081,0.489,0.992,1.29
2026-05-23 16:21:38.475,1436837931,191475,1,1.05151,0.10718,0.02393,-0.779,-0.427,-0.008
2026-05-23 16:21:38.475,1436837931,191475,2,0.94995,0.18408,0.33496,-0.725,1.687,1.519
2026-05-23 16:21:38.675,1436838131,191675,1,1.04712,0.10718,0.02881,-1.771,1.008,-0.137
2026-05-23 16:21:38.675,1436838131,191675,2,0.95703,0.18311,0.33081,-1.122,0.702,1.122
2026-05-23 16:21:38.875,1436838331,191875,1,1.05103,0.10034,0.02856,-1.725,0.435,-0.496
2026-05-23 16:21:38.875,1436838331,191875,2,0.9585,0.18164,0.33203,-1.366,1.13,1.534
2026-05-23 16:21:38.075,1436837531,192075,1,1.04321,0.10498,0.03149,-2.397,1.389,-0.382
2026-05-23 16:21:38.075,1436837531,192075,2,0.9563,0.18066,0.33105,-1.145,1.084,0.374
2026-05-23 16:21:39.275,1436838731,192275,1,1.04541,0.09839,0.02856,-2.198,-0.244,-0.221
2026-05-23 16:21:39.275,1436838731,192275,2,0.9563,0.19067,0.32227,-1.779,1.305,1.397
2026-05-23 16:21:39.475,1436838931,192475,1,1.0498,0.10742,0.03491,-2.878,0.977,-0.42
2026-05-23 16:21:39.475,1436838931,192475,2,0.95142,0.18726,0.34009,-1.397,1.351,1.008
2026-05-23 16:21:39.675,1436839131,192675,1,1.05176,0.10645,0.02832,-1.824,0.542,-0.443
2026-05-23 16:21:39.675,1436839131,192675,2,0.95703,0.1875,0.34399,-1.069,1.008,1.389
2026-05-23 16:21:39.875,1436839331,192875,1,1.04468,0.10547,0.02563,-0.863,1.252,-0.031
2026-05-23 16:21:39.875,1436839331,192875,2,0.95337,0.18896,0.32422,-0.756,1.466,1.664
2026-05-23 16:21:39.075,1436838531,193075,1,1.0498,0.11646,0.02954,-1.763,0.969,-0.588
2026-05-23 16:21:39.075,1436838531,193075,2,0.96289,0.19336,0.33447,-1.672,1.679,1.336
2026-05-23 16:21:40.275,1436839731,193275,1,1.04321,0.10693,0.04248,-1.832,0.931,0.038
2026-05-23 16:21:40.275,1436839731,193275,2,0.95166,0.18408,0.33398,-0.84,1.466,1.397
2026-05-23 16:21:40.475,1436839931,193475,1,1.04321,0.11084,0.04565,-1.412,1.466,0.496
2026-05-23 16:21:40.475,1436839931,193475,2,0.95093,0.18677,0.33545,-1.298,0.557,1.191
2026-05-23 16:21:40.675,1436840131,193675,1,1.04419,0.1001,0.03613,-1.397,0.611,-0.076
2026-05-23 16:21:40.675,1436840131,193675,2,0.9502,0.18481,0.33276,-0.634,2.656,1.878
2026-05-23 16:21:40.875,1436840331,193875,1,1.04028,0.10718,0.0415,-3.168,0.504,-0.695
2026-05-23 16:21:40.875,1436840331,193875,2,0.95972,0.18042,0.33496,-1.45,1.504,1.099
2026-05-23 16:21:40.075,1436839531,194075,1,1.0415,0.10669,0.03784,-2.893,1.298,-0.282
2026-05-23 16:21:40.075,1436839531,194075,2,0.9563,0.19336,0.33252,-0.786,0.977,1.565
2026-05-23 16:21:41.275,1436840731,194275,1,1.05005,0.11108,0.04126,-1.794,-0.58,0.023
2026-05-23 16:21:41.275,1436840731,194275,2,0.95215,0.18945,0.3252,-1.229,0.725,1.061
2026-05-23 16:21:41.475,1436840931,194475,1,1.04248,0.10376,0.05078,-1.534,0.061,-0.321
2026-05-23 16:21:41.475,1436840931,194475,2,0.95703,0.18481,0.32935,-1.84,0.786,1.435
2026-05-23 16:21:41.675,1436841131,194675,1,1.05542,0.10693,0.04199,-2.191,-0.099,-0.237
2026-05-23 16:21:41.675,1436841131,194675,2,1.03589,0.16211,0.2832,-8.061,12.603,0.763
2026-05-23 16:21:41.875,1436841331,194875,1,0.97827,0.05908,-0.12354,-1.939,36.336,4.26
2026-05-23 16:21:41.875,1436841331,194875,2,0.94189,0.08789,0.29614,-7.542,-29.641,23.885
2026-05-23 16:21:41.075,1436840531,195075,1,0.75513,0.06372,0.28198,-1.786,64.115,-3.405
2026-05-23 16:21:41.075,1436840531,195075,2,0.76904,-0.03174,-0.10229,-115.924,-29.26,9.626
2026-05-23 16:21:42.275,1436841731,195275,1,0.93066,0.12207,0.7019,27.26,-6.565,-5.969
2026-05-23 16:21:42.275,1436841731,195275,2,0.90161,0.18433,-0.16748,7.74,14.298,-1.237
2026-05-23 16:21:42.475,1436841931,195475,1,1.05249,0.09302,0.45679,3.481,-23.145,3.206
2026-05-23 16:21:42.475,1436841931,195475,2,0.89575,0.1665,-0.09106,8.267,38.031,11.458
2026-05-23 16:21:42.675,1436842131,195675,1,0.9668,0.1438,0.27563,20.29,-6.13,7.076
2026-05-23 16:21:42.675,1436842131,195675,2,0.94702,0.15894,0.07275,10.656,34.947,6.466
2026-05-23 16:21:42.875,1436842331,195875,1,1.00928,0.12842,0.25293,-1.55,-18.313,5.511
2026-05-23 16:21:42.875,1436842331,195875,2,0.96997,0.16528,0.24805,-1.42,21.42,-7.107
2026-05-23 16:21:42.075,1436841531,196075,1,1.0332,0.09644,0.1499,-8.405,-27.611,2.901
2026-05-23 16:21:42.075,1436841531,196075,2,0.94995,0.19629,0.28003,-17.824,15.511,-4.092
2026-05-23 16:21:43.275,1436842731,196275,1,1.03979,0.09595,0.07568,-4.084,-9.87,-1.718
2026-05-23 16:21:43.275,1436842731,196275,2,0.97705,0.22144,0.30054,-8.618,5.16,-0.115
2026-05-23 16:21:43.475,1436842931,196475,1,1.03394,0.08594,0.09399,-1.824,1.786,
2026-05-23 16:21:43.475,1436842931,196475,2,0.9458,0.19287,0.29761,-1.351,2.344,1.779
2026-05-23 16:21:43.675,1436843131,196675,1,1.02954,0.08008,0.11768,-2.916,5.076,-0.374
2026-05-23 16:21:43.675,1436843131,196675,2,0.95044,0.19409,0.30444,0.053,0.008,4.565
2026-05-23 16:21:43.929,1436843385,196929,1,1.01099,0.09839,0.13745,-1.603,3.061,0.168
2026-05-23 16:21:43.929,1436843385,196929,2,0.95117,0.17163,0.2793,-3.87,0.053,0.519
2026-05-23 16:21:43.129,1436842585,197129,1,1.02222,0.07886,0.12744,-2.763,1.0,-0.282
2026-05-23 16:21:43.129,1436842585,197129,2,0.94727,0.19214,0.29077,-1.489,2.443,1.321
2026-05-23 16:21:44.329,1436843785,197329,1,1.01904,0.08789,0.13599,-1.328,1.435,-0.458
2026-05-23 16:21:44.329,1436843785,197329,2,0.95581,0.18579,0.28516,-1.855,2.794,0.809
2026-05-23 16:21:44.529,1436843985,197529,1,1.00952,0.08545,0.13599,-3.481,0.298,-0.145
2026-05-23 16:21:44.529,1436843985,197529,2,0.94751,0.18872,0.2832,-3.053,0.725,0.191
2026-05-23 16:21:44.729,1436844185,197729,1,1.02344,0.08252,0.14014,-0.267,2.405,-0.458
2026-05-23 16:21:44.729,1436844185,197729,2,0.95508,0.19653,0.29004,-2.313,1.595,1.053
2026-05-23 16:21:44.929,1436844385,197929,1,1.01172,0.07861,0.1416,-4.061,-0.183,-1.122
2026-05-23 16:21:44.929,1436844385,197929,2,0.95508,0.20361,0.30762,-1.244,0.443,1.206
2026-05-23 16:21:44.129,1436843585,198129,1,1.00122,0.08643,0.14331,-1.542,2.023,-1.58
2026-05-23 16:21:44.129,1436843585,198129,2,0.94653,0.18774,0.2915,-3.519,-0.198,2.237
2026-05-23 16:21:45.329,1436844785,198329,1,0.99927,0.10425,0.13647,-2.359,1.679,-0.313
2026-05-23 16:21:45.329,1436844785,198329,2,0.92603,0.19238,0.28101,-0.802,-2.351,4.954
2026-05-23 16:21:45.529,1436844985,198529,1,1.02051,0.11841,0.1394,-4.282,-0.153,-0.947
2026-05-23 16:21:45.529,1436844985,198529,2,0.94629,0.17212,0.2688,-6.16,0.58,2.389
2026-05-23 16:21:45.729,1436845185,198729,1,1.03223,0.10352,0.14551,-5.962,0.305,-1.328
2026-05-23 16:21:45.729,1436845185,198729,2,0.89746,0.17017,0.25073,-2.947,-1.756,0.366
2026-05-23 16:21:45.929,1436845385,198929,1,1.03638,0.09912,0.15137,0.298,1.489,-1.985
2026-05-23 16:21:45.929,1436845385,198929,2,0.99951,0.17456,0.27441,-0.916,2.573,2.466
2026-05-23 16:21:45.129,1436844585,199129,1,1.03369,0.11597,0.15991,1.573,1.42,-0.008
2026-05-23 16:21:45.129,1436844585,199129,2,0.93994,0.18408,0.26172,-0.969,1.29,2.229
2026-05-23 16:21:46.329,1436845785,199329,1,1.03809,0.10107,0.15674,0.611,5.069,2.374
2026-05-23 16:21:46.329,1436845785,199329,2,0.91748,0.17285,0.30371,2.649,-0.611,6.099
2026-05-23 16:21:46.529,1436845985,199529,1,1.03149,0.09106,0.18433,7.076,3.786,1.977
2026-05-23 16:21:46.529,1436845985,199529,2,0.95581,0.14697,0.24878,7.321,1.786,2.557
2026-05-23 16:21:46.729,1436846185,199729,1,1.00171,0.07886,0.18262,-2.061,,-2.824
2026-05-23 16:21:46.729,1436846185,199729,2,0.97363,0.16553,0.26611,-3.282,2.74,-1.992
2026-05-23 16:21:46.929,1436846385,199929,1,1.00513,0.0791,0.16528,-0.122,-0.153,-0.099
2026-05-23 16:21:46.929,1436846385,199929,2,0.96558,0.17188,0.26196,0.679,2.115,1.359
2026-05-23 16:21:46.129,1436845585,200129,1,0.98853,0.08643,0.16309,-2.893,-0.962,-0.008
2026-05-23 16:21:46.129,1436845585,200129,2,0.94336,0.16943,0.24927,1.664,0.015,1.725
2026-05-23 16:21:47.329,1436846785,200329,1,0.98315,0.07642,0.16992,-4.198,-1.42,-0.313
2026-05-23 16:21:47.329,1436846785,200329,2,0.95483,0.16089,0.27588,-0.58,1.359,-0.863
2026-05-23 16:21:47.529,1436846985,200529,1,0.99561,0.08716,0.1687,-5.229,-1.252,-0.603
2026-05-23 16:21:47.529,1436846985,200529,2,0.94019,0.18774,0.24951,-0.779,-0.504,1.244
2026-05-23 16:21:47.729,1436847185,200729,1,1.0,0.08813,0.18262,-2.031,-0.634,-0.366
2026-05-23 16:21:47.729,1436847185,200729,2,0.9541,0.177,0.26416,-0.374,0.885,1.954
2026-05-23 16:21:47.929,1436847385,200929,1,1.00146,0.09253,0.17236,-3.374,0.427,-1.405
2026-05-23 16:21:47.929,1436847385,200929,2,0.94604,0.17822,0.2666,-1.458,1.092,2.298
2026-05-23 16:21:47.129,1436846585,201129,1,1.00269,0.09277,0.17383,-2.87,0.695,-1.412
2026-05-23 16:21:47.129,1436846585,201129,2,0.94849,0.17651,0.26636,-1.344,1.603,1.817
2026-05-23 16:21:48.329,1436847785,201329,1,0.9978,0.08594,0.17456,-3.023,0.237,-1.389
2026-05-23 16:21:48.329,1436847785,201329,2,0.95313,0.17139,0.2854,-0.931,2.282,1.611
2026-05-23 16:21:48.529,1436847985,201529,1,0.99927,0.10596,0.16602,-1.519,0.794,-1.496
2026-05-23 16:21:48.529,1436847985,201529,2,0.94873,0.16162,0.2478,2.733,0.397,2.031
2026-05-23 16:21:48.729,1436848185,201729,1,0.99316,0.10742,0.16919,-4.588,-0.115,-0.634
2026-05-23 16:21:48.729,1436848185,201729,2,0.94214,0.17139,0.25732,-1.031,,1.924
2026-05-23 16:21:48.929,1436848385,201929,1,0.99634,0.11279,0.18188,-3.733,-0.076,0.076
2026-05-23 16:21:48.929,1436848385,201929,2,0.94507,0.16772,0.25903,-2.786,1.763,0.099
2026-05-23 16:21:48.129,1436847585,202129,1,0.99609,0.10889,0.18042,-2.053,0.382,-0.061
2026-05-23 16:21:48.129,1436847585,202129,2,0.94897,0.16553,0.26831,-0.069,0.939,1.771
2026-05-23 16:21:49.329,1436848785,202329,1,0.99854,0.10938,0.17236,-1.038,0.397,-0.748
2026-05-23 16:21:49.329,1436848785,202329,2,0.95068,0.16406,0.25049,0.87,1.687,1.153
2026-05-23 16:21:49.529,1436848985,202529,1,1.00781,0.11157,0.18359,-2.679,-1.473,0.061
2026-05-23 16:21:49.529,1436848985,202529,2,0.948,0.17041,0.26001,2.038,1.496,0.664
2026-05-23 16:21:49.729,1436849185,202729,1,1.0061,0.10571,0.17505,-1.939,-0.298,0.153
2026-05-23 16:21:49.729,1436849185,202729,2,0.94702,0.16528,0.26343,0.969,1.603,1.008
2026-05-23 16:21:49.929,1436849385,202929,1,1.01855,0.09839,0.16748,-1.351,-0.725,0.702
2026-05-23 16:21:49.929,1436849385,202929,2,0.94775,0.17529,0.25708,-1.305,1.771,0.542
2026-05-23 16:21:49.129,1436848585,203129,1,1.00537,0.09644,0.1709,-1.16,-0.122,1.221
2026-05-23 16:21:49.129,1436848585,203129,2,0.9436,0.17822,0.26294,-1.069,1.298,0.992
2026-05-23 16:21:50.329,1436849785,203329,1,1.00635,0.08984,0.17041,-2.542,-0.313,0.328
2026-05-23 16:21:50.329,1436849785,203329,2,0.95654,0.18555,0.27246,-0.863,2.725,0.191
2026-05-23 16:21:50.529,1436849985,203529,1,1.00586,0.09863,0.16797,-1.687,0.366,0.069
2026-05-23 16:21:50.529,1436849985,203529,2,0.94409,0.18286,0.26758,-1.351,0.924,1.107
2026-05-23 16:21:50.729,1436850185,203729,1,1.00952,0.10303,0.1687,-2.275,0.847,-0.282
2026-05-23 16:21:50.729,1436850185,203729,2,0.94873,0.17798,0.25659,-1.885,1.45,0.969
2026-05-23 16:21:50.929,1436850385,203929,1,1.04736,0.09692,0.09692,-4.702,6.74,-0.771
2026-05-23 16:21:50.929,1436850385,203929,2,1.01855,0.16504,0.27148,7.718,-6.656,2.74
2026-05-23 16:21:50.129,1436849585,204129,1,1.03149,0.08911,0.12915,-11.282,33.435,-5.885
2026-05-23 16:21:50.129,1436849585,204129,2,0.99487,0.17603,0.22363,-0.206,-43.198,12.626
2026-05-23 16:21:51.329,1436850785,204329,1,0.92065,0.13965,0.37085,-9.16,44.321,-2.527
2026-05-23 16:21:51.329,1436850785,204329,2,1.11133,0.13452,-0.08252,-9.252,-46.466,-8.267
2026-05-23 16:21:51.529,1436850985,204529,1,0.8418,0.073,0.72339,-13.885,26.656,1.16
2026-05-23 16:21:51.529,1436850985,204529,2,0.80127,0.14258,-0.21533,8.985,-16.924,-2.214
2026-05-23 16:21:51.729,1436851185,204729,1,0.82617,0.02124,0.61206,-3.29,-20.878,8.603
2026-05-23 16:21:51.729,1436851185,204729,2,0.72168,0.19409,-0.09619,-1.473,10.466,-6.855
2026-05-23 16:21:51.929,1436851385,204929,1,0.6001,0.03687,0.37451,22.351,-45.16,-2.878
2026-05-23 16:21:51.929,1436851385,204929,2,0.73169,0.16211,0.01294,2.878,59.901,-12.718
2026-05-23 16:21:51.129,1436850585,205129,1,0.94385,0.06714,0.07104,13.832,-62.962,0.176
2026-05-23 16:21:51.129,1436850585,205129,2,0.92554,0.15771,0.13696,26.962,55.725,9.863
2026-05-23 16:21:52.329,1436851785,205329,1,1.04004,0.13843,-0.03003,-34.198,-28.397,-4.084
2026-05-23 16:21:52.329,1436851785,205329,2,1.03467,0.14478,0.18506,-40.183,8.664,23.901
2026-05-23 16:21:52.529,1436851985,205529,1,1.08838,0.10815,-0.02637,-27.092,3.298,-8.969
2026-05-23 16:21:52.529,1436851985,205529,2,0.95728,0.17749,0.25537,6.672,-12.74,-10.466
2026-05-23 16:21:52.729,1436852185,205729,1,1.0813,0.11499,-0.0083,-2.611,6.504,2.13
2026-05-23 16:21:52.729,1436852185,205729,2,0.95703,0.16235,0.271,14.565,9.557,-8.595
2026-05-23 16:21:52.929,1436852385,205929,1,1.04492,0.09961,0.02075,16.115,8.26,8.893
2026-05-23 16:21:52.929,1436852385,205929,2,0.95776,0.20142,0.30493,15.962,1.802,5.893
2026-05-23 16:21:52.129,1436851585,206129,1,1.03735,0.09863,0.06592,-3.855,-0.534,2.267
2026-05-23 16:21:52.129,1436851585,206129,2,0.9458,0.17212,0.3103,0.756,2.87,-0.718
2026-05-23 16:21:53.329,1436852785,206329,1,1.0498,0.09521,0.04785,-4.176,0.206,-1.313
2026-05-23 16:21:53.329,1436852785,206329,2,0.94312,0.19678,0.30371,-8.725,0.763,2.809
2026-05-23 16:21:53.529,1436852985,206529,1,1.05005,0.07813,0.03345,-0.58,-2.58,0.382
2026-05-23 16:21:53.529,1436852985,206529,2,0.94946,0.18604,0.323,-0.153,2.595,0.611
2026-05-23 16:21:53.729,1436853185,206729,1,1.05664,0.0957,0.0354,0.26,-1.992,0.748
2026-05-23 16:21:53.729,1436853185,206729,2,0.95264,0.17261,0.31592,-0.313,-0.855,3.076
2026-05-23 16:21:53.929,1436853385,206929,1,1.0498,0.08179,0.03223,-1.534,-0.053,0.382
2026-05-23 16:21:53.929,1436853385,206929,2,0.95801,0.18359,0.31104,-1.977,0.542,2.725
2026-05-23 16:21:53.129,1436852585,207129,1,1.0498,0.09448,0.03516,-5.374,-0.985,-0.252
2026-05-23 16:21:53.129,1436852585,207129,2,0.95142,0.17871,0.30566,-1.366,1.748,-0.145
2026-05-23 16:21:54.329,1436853785,207329,1,1.04712,0.09106,0.03052,-1.885,0.405,-4.038
2026-05-23 16:21:54.329,1436853785,207329,2,0.94971,0.19214,0.30933,-2.046,1.893,2.359
2026-05-23 16:21:54.529,1436853985,207529,1,1.05054,0.10229,0.03491,-2.237,-1.336,-2.015
2026-05-23 16:21:54.529,1436853985,207529,2,0.95679,0.17358,0.31104,-2.092,1.534,1.412
2026-05-23 16:21:54.745,1436854201,207745,1,1.04297,0.10742,0.03174,-1.26,-0.115,-0.267
2026-05-23 16:21:54.745,1436854201,207745,2,0.95532,0.18872,0.323,-2.473,1.29,1.198
2026-05-23 16:21:54.945,1436854401,207945,1,1.05078,0.11182,0.03467,-1.153,1.351,0.275
2026-05-23 16:21:54.945,1436854401,207945,2,0.96313,0.19336,0.31665,0.519,2.076,1.13
2026-05-23 16:21:54.145,1436853601,208145,1,1.0437,0.10376,0.03491,-0.427,1.244,0.443
2026-05-23 16:21:54.145,1436853601,208145,2,0.94946,0.17627,0.32129,-0.58,1.725,2.061
2026-05-23 16:21:55.345,1436854801,208345,1,1.05078,0.10376,0.04419,-2.008,1.542,-0.305
2026-05-23 16:21:55.345,1436854801,208345,2,0.9519,0.18335,0.31445,-1.328,0.802,1.626
2026-05-23 16:21:55.545,1436855001,208545,1,1.03662,0.10034,0.04688,-2.443,0.947,-0.29
2026-05-23 16:21:55.545,1436855001,208545,2,0.94873,0.18213,0.31665,-1.481,1.053,2.015
2026-05-23 16:21:55.745,1436855201,208745,1,1.0459,0.09595,0.05591,-0.695,2.282,-0.534
2026-05-23 16:21:55.745,1436855201,208745,2,0.9502,0.177,0.31958,0.359,0.229,1.153
2026-05-23 16:21:55.945,1436855401,208945,1,1.04004,0.10107,0.05469,-2.397,1.382,0.29
2026-05-23 16:21:55.945,1436855401,208945,2,0.9519,0.17505,0.31201,-2.16,1.45,1.969
2026-05-23 16:21:55.145,1436854601,209145,1,1.04321,0.10571,0.05322,-0.794,0.099,-0.679
2026-05-23 16:21:55.145,1436854601,209145,2,0.95435,0.17554,0.31787,-2.092,0.679,1.359
2026-05-23 16:21:56.345,1436855801,209345,1,1.03784,0.09497,0.04736,-2.298,1.061,-0.649
2026-05-23 16:21:56.345,1436855801,209345,2,0.95117,0.17993,0.30566,0.115,0.931,1.13
2026-05-23 16:21:56.545,1436856001,209545,1,1.04639,0.1001,0.052,-0.924,-0.214,-0.229
2026-05-23 16:21:56.545,1436856001,209545,2,0.95117,0.18213,0.31934,-0.351,1.412,1.298
2026-05-23 16:21:56.745,1436856201,209745,1,1.05176,0.10864,0.04614,-1.718,-0.832,0.336
2026-05-23 16:21:56.745,1436856201,209745,2,0.95166,0.17407,0.31543,-1.748,2.061,0.275
2026-05-23 16:21:56.945,1436856401,209945,1,1.04517,0.09375,0.04419,-2.489,1.947,0.573
2026-05-23 16:21:56.945,1436856401,209945,2,0.9585,0.17749,0.32813,-1.252,0.718,0.534
2026-05-23 16:21:56.145,1436855601,210145,1,1.04248,0.1062,0.05762,-1.542,-1.42,-0.832
2026-05-23 16:21:56.145,1436855601,210145,2,0.9519,0.18433,0.31836,-0.885,0.611,1.496
2026-05-23 16:21:57.345,1436856801,210345,1,1.04614,0.09741,0.03882,-0.618,-0.847,0.282
2026-05-23 16:21:57.345,1436856801,210345,2,0.95386,0.18188,0.32642,-1.198,0.733,1.855
2026-05-23 16:21:57.545,1436857001,210545,1,1.04712,0.10547,0.04639,-2.191,0.122,-0.321
2026-05-23 16:21:57.545,1436857001,210545,2,0.95435,0.18237,0.32178,-2.038,1.221,1.42
2026-05-23 16:21:57.745,1436857201,210745,1,1.05005,0.10132,0.04688,-2.107,0.038,-0.076
2026-05-23 16:21:57.745,1436857201,210745,2,0.95093,0.18677,0.32373,-1.282,1.168,1.244
2026-05-23 16:21:57.945,1436857401,210945,1,1.04077,0.10645,0.04517,-1.466,0.885,0.115
2026-05-23 16:21:57.945,1436857401,210945,2,0.94946,0.1875,0.32568,-0.221,0.901,1.565
2026-05-23 16:21:57.145,1436856601,211145,1,1.03784,0.10181,0.052,-1.794,-0.176,-0.145
2026-05-23 16:21:57.145,1436856601,211145,2,0.95313,0.18408,0.3252,-1.893,1.13,1.229
2026-05-23 16:21:58.345,1436857801,211345,1,1.04761,0.104,0.0459,-1.336,0.092,0.076
2026-05-23 16:21:58.345,1436857801,211345,2,0.95776,0.17407,0.31665,-1.191,1.0,1.748
2026-05-23 16:21:58.545,1436858001,211545,1,1.03955,0.10229,0.04175,-0.702,-0.252,0.718
2026-05-23 16:21:58.545,1436858001,211545,2,0.94604,0.18262,0.31226,-0.069,0.962,2.176
2026-05-23 16:21:58.745,1436858201,211745,1,1.05347,0.10352,0.03345,0.893,-0.626,2.267
2026-05-23 16:21:58.745,1436858201,211745,2,0.9563,0.1709,0.31812,-0.496,1.573,0.779
2026-05-23 16:21:58.945,1436858401,211945,1,1.05005,0.09131,0.02808,-2.267,1.473,0.366
2026-05-23 16:21:58.945,1436858401,211945,2,0.95557,0.1792,0.3186,-1.183,0.763,1.84
2026-05-23 16:21:58.145,1436857601,212145,1,1.04858,0.09351,0.03369,-2.908,0.84,-0.405
2026-05-23 16:21:58.145,1436857601,212145,2,0.9585,0.17993,0.31616,-0.817,1.695,1.176
2026-05-23 16:21:59.345,1436858801,212345,1,1.04907,0.09399,0.03613,-2.466,0.13,-0.42
2026-05-23 16:21:59.345,1436858801,212345,2,0.95264,0.17773,0.31665,-1.275,1.71,1.137
2026-05-23 16:21:59.545,1436859001,212545,1,1.05005,0.0896,0.03809,-2.473,-0.84,-1.275
2026-05-23 16:21:59.545,1436859001,212545,2,0.95679,0.18091,0.31226,-1.802,1.481,1.214
2026-05-23 16:21:59.745,1436859201,212745,1,1.05347,0.09351,0.04102,-1.954,1.313,0.13
2026-05-23 16:21:59.745,1436859201,212745,2,0.9541,0.1792,0.31885,-0.489,1.244,1.557
2026-05-23 16:21:59.945,1436859401,212945,1,1.04883,0.09619,0.04077,-0.985,0.969,-0.023
2026-05-23 16:21:59.945,1436859401,212945,2,0.95459,0.177,0.31567,1.015,1.168,1.214
2026-05-23 16:21:59.145,1436858601,213145,1,1.04028,0.09595,0.04053,-1.763,0.275,0.015
2026-05-23 16:21:59.145,1436858601,213145,2,0.96143,0.18213,0.32642,-1.015,0.931,1.298
2026-05-23 16:22:00.345,1436859801,213345,1,1.04565,0.10376,0.03906,-3.481,0.382,-0.893
2026-05-23 16:22:00.345,1436859801,213345,2,0.9519,0.16992,0.31372,-2.611,1.069,0.42
2026-05-23 16:22:00.545,1436860001,213545,1,1.06494,0.1001,0.04321,-1.626,3.176,-0.656
2026-05-23 16:22:00.545,1436860001,213545,2,0.99756,0.17603,0.30811,-3.351,9.344,0.527
2026-05-23 16:22:00.745,1436860201,213745,1,0.95581,0.0625,-0.03076,-14.198,33.847,-0.908
2026-05-23 16:22:00.745,1436860201,213745,2,0.79614,0.12305,0.19434,-16.641,-26.405,18.473
2026-05-23 16:22:00.945,1436860401,213945,1,0.78101,0.04175,0.21436,2.878,81.336,-3.763
2026-05-23 16:22:00.945,1436860401,213945,2,0.77222,0.10864,0.0542,-11.679,-100.344,26.718
2026-05-23 16:22:00.145,1436859601,214145,1,0.79028,0.13257,0.6228,14.527,17.313,-5.656
2026-05-23 16:22:00.145,1436859601,214145,2,0.81763,0.07275,-0.20435,33.427,-9.023,12.473
2026-05-23 16:22:01.345,1436860801,214345,1,0.83936,0.1604,0.604,5.427,-24.71,-6.115
2026-05-23 16:22:01.345,1436860801,214345,2,0.97876,0.1626,-0.18457,-19.573,32.405,-14.435
2026-05-23 16:22:01.545,1436861001,214545,1,1.02002,0.18359,0.28223,32.58,-23.733,20.26
2026-05-23 16:22:01.545,1436861001,214545,2,0.95166,0.06201,-0.01172,18.481,50.84,9.618
2026-05-23 16:22:01.745,1436861201,214745,1,1.01196,0.19116,0.24512,23.435,-12.55,21.885
2026-05-23 16:22:01.745,1436861201,214745,2,0.98413,0.04956,0.14136,17.656,35.397,2.298
2026-05-23 16:22:01.945,1436861401,214945,1,0.98413,0.11963,0.12622,-33.305,-33.183,7.275
2026-05-23 16:22:01.945,1436861401,214945,2,0.95215,0.05615,0.22656,-21.725,22.626,-20.779
2026-05-23 16:22:01.145,1436860601,215145,1,1.04272,0.03174,0.04492,-7.947,-6.908,-2.71
2026-05-23 16:22:01.145,1436860601,215145,2,0.96143,0.19409,0.30054,9.359,11.29,2.847
2026-05-23 16:22:02.345,1436861801,215345,1,1.04077,0.08594,0.08911,-5.756,7.443,3.885
2026-05-23 16:22:02.345,1436861801,215345,2,0.96729,0.125,0.34058,-2.229,2.71,-7.023
2026-05-23 16:22:02.545,1436862001,215545,1,1.02417,0.06152,0.13916,-25.229,-3.664,-9.672
2026-05-23 16:22:02.545,1436862001,215545,2,0.94849,0.21191,0.31836,-17.878,2.901,-6.366
2026-05-23 16:22:02.745,1436862201,215745,1,1.0437,0.05835,0.13232,1.58,3.206,1.84
2026-05-23 16:22:02.745,1436862201,215745,2,0.9436,0.2356,0.34326,6.191,0.374,0.366
2026-05-23 16:22:02.945,1436862401,215945,1,1.02222,0.06812,0.11792,0.687,0.137,3.229
2026-05-23 16:22:02.945,1436862401,215945,2,0.93945,0.23242,0.323,2.519,-0.275,-2.237
2026-05-23 16:22:02.145,1436861601,216145,1,1.03296,0.04736,0.11475,-5.916,1.023,-13.649
2026-05-23 16:22:02.145,1436861601,216145,2,0.91797,0.27417,0.31641,-1.733,-7.611,-1.389
2026-05-23 16:22:03.345,1436862801,216345,1,1.01367,0.1084,0.12695,7.748,5.763,0.702
2026-05-23 16:22:03.345,1436862801,216345,2,0.93457,0.24927,0.29907,3.779,-1.855,4.832
2026-05-23 16:22:03.545,1436863001,216545,1,1.01245,0.11035,0.15161,-3.397,2.473,3.901
2026-05-23 16:22:03.545,1436863001,216545,2,0.93359,0.23804,0.2915,-0.939,0.023,2.534
2026-05-23 16:22:03.745,1436863201,216745,1,1.02417,0.09717,0.13257,-3.893,0.595,0.26
2026-05-23 16:22:03.745,1436863201,216745,2,0.94409,0.23438,0.29126,0.527,-0.534,3.55
2026-05-23 16:22:03.945,1436863401,216945,1,1.02075,0.10107,0.15454,-0.496,0.366,-0.977
2026-05-23 16:22:03.945,1436863401,216945,2,0.9375,0.23291,0.28223,-0.893,-0.206,1.786
2026-05-23 16:22:03.145,1436862601,217145,1,1.01367,0.09106,0.15063,-2.649,1.038,-0.855
2026-05-23 16:22:03.145,1436862601,217145,2,0.92896,0.21948,0.29321,-1.748,2.42,1.221
2026-05-23 16:22:04.345,1436863801,217345,1,1.02393,0.0957,0.1438,-2.412,-0.313,0.198
2026-05-23 16:22:04.345,1436863801,217345,2,0.93872,0.22266,0.29272,-0.351,0.473,1.504
2026-05-23 16:22:04.545,1436864001,217545,1,1.01318,0.09546,0.13916,-2.061,-0.786,-0.718
2026-05-23 16:22:04.545,1436864001,217545,2,0.93604,0.229,0.27832,-1.008,0.435,2.084
2026-05-23 16:22:04.745,1436864201,217745,1,1.02222,0.10278,0.13843,-1.565,0.565,-0.42
2026-05-23 16:22:04.745,1436864201,217745,2,0.94019,0.22046,0.28784,-0.87,0.771,1.824
2026-05-23 16:22:04.945,1436864401,217945,1,1.01807,0.09473,0.14575,-1.282,-0.122,-0.305
2026-05-23 16:22:04.945,1436864401,217945,2,0.93945,0.22021,0.28955,-0.763,0.802,1.519
2026-05-23 16:22:04.145,1436863601,218145,1,1.01855,0.10083,0.14355,-1.595,0.282,-0.374
2026-05-23 16:22:04.145,1436863601,218145,2,0.94946,0.22534,0.28223,-0.992,0.954,1.069
2026-05-23 16:22:05.345,1436864801,218345,1,1.01636,0.09277,0.13965,-2.313,0.466,0.725
2026-05-23 16:22:05.345,1436864801,218345,2,0.9436,0.21777,0.29199,-1.0,1.282,1.252
2026-05-23 16:22:05.545,1436865001,218545,1,1.02026,0.10669,0.14429,-2.55,-0.198,0.405
2026-05-23 16:22:05.545,1436865001,218545,2,0.94141,0.21606,0.2793,-1.794,2.267,0.389
2026-05-23 16:22:05.745,1436865201,218745,1,1.02197,0.09497,0.14233,-2.221,1.252,0.534
2026-05-23 16:22:05.745,1436865201,218745,2,0.94434,0.22754,0.28662,-0.756,1.687,1.855
2026-05-23 16:22:05.945,1436865401,218945,1,1.0083,0.0791,0.14941,1.038,2.939,3.198
2026-05-23 16:22:05.945,1436865401,218945,2,0.95068,0.21899,0.27246,1.038,0.733,5.634
2026-05-23 16:22:05.145,1436864601,219145,1,1.00317,0.08569,0.15649,-1.634,1.565,0.908
2026-05-23 16:22:05.145,1436864601,219145,2,0.94775,0.19971,0.27661,-2.573,-0.382,2.664
2026-05-23 16:22:06.345,1436865801,219345,1,1.01514,0.08862,0.16138,-2.985,1.466,-0.985
2026-05-23 16:22:06.345,1436865801,219345,2,0.93994,0.20117,0.29321,-2.786,2.015,1.466
2026-05-23 16:22:06.545,1436866001,219545,1,1.01587,0.08667,0.14624,-1.412,0.183,-2.0
2026-05-23 16:22:06.545,1436866001,219545,2,0.94727,0.20288,0.28467,-2.672,2.092,2.443
2026-05-23 16:22:06.745,1436866201,219745,1,1.01123,0.09741,0.17017,-2.992,0.733,-0.527
2026-05-23 16:22:06.745,1436866201,219745,2,0.94653,0.19507,0.29907,-8.076,1.45,1.466
2026-05-23 16:22:06.945,1436866401,219945,1,1.03052,0.09888,0.15552,-0.389,1.756,0.389
2026-05-23 16:22:06.945,1436866401,219945,2,0.90039,0.18652,0.27588,0.565,-2.588,3.733
2026-05-23 16:22:06.145,1436865601,220145,1,1.02441,0.09985,0.16919,0.069,0.855,-0.015
2026-05-23 16:22:06.145,1436865601,220145,2,0.93994,0.1853,0.28589,-0.29,-0.473,2.473
2026-05-23 16:22:07.345,1436866801,220345,1,1.01367,0.09424,0.17993,-2.519,1.718,-0.244
2026-05-23 16:22:07.345,1436866801,220345,2,0.95435,0.18726,0.27588,-0.847,0.931,1.916
2026-05-23 16:22:07.545,1436867001,220545,1,1.02148,0.09277,0.1731,-0.885,0.855,0.023
2026-05-23 16:22:07.545,1436867001,220545,2,0.94897,0.18799,0.27881,0.733,0.267,1.55
2026-05-23 16:22:07.745,1436867201,220745,1,1.01074,0.09351,0.16479,-0.656,1.084,-0.16
2026-05-23 16:22:07.745,1436867201,220745,2,0.94531,0.18408,0.28833,-1.137,0.115,1.099
2026-05-23 16:22:07.945,1436867401,220945,1,1.01733,0.09155,0.16846,-0.664,0.496,-0.008
2026-05-23 16:22:07.945,1436867401,220945,2,0.94507,0.19409,0.28125,-0.847,0.817,1.092
2026-05-23 16:22:07.145,1436866601,221145,1,1.01611,0.0957,0.16455,-2.031,-0.511,0.145
2026-05-23 16:22:07.145,1436866601,221145,2,0.93848,0.19385,0.28589,-1.534,0.71,0.756
2026-05-23 16:22:08.345,1436867801,221345,1,1.0144,0.0918,0.15747,-2.069,0.015,0.214
2026-05-23 16:22:08.345,1436867801,221345,2,0.94141,0.19678,0.28857,-1.336,1.214,1.641
2026-05-23 16:22:08.545,1436868001,221545,1,1.01245,0.09692,0.17236,-2.443,-0.008,-0.115
2026-05-23 16:22:08.545,1436868001,221545,2,0.94727,0.19043,0.29663,-1.985,1.557,1.374
2026-05-23 16:22:08.745,1436868201,221745,1,1.02002,0.09375,0.16626,-1.573,0.542,-0.809
2026-05-23 16:22:08.745,1436868201,221745,2,0.94238,0.19482,0.28467,-1.809,1.42,2.237
2026-05-23 16:22:08.945,1436868401,221945,1,1.02002,0.0979,0.16699,-0.565,0.145,-0.931
2026-05-23 16:22:08.945,1436868401,221945,2,0.91626,0.19385,0.29443,-2.313,0.069,1.397
2026-05-23 16:22:08.145,1436867601,222145,1,1.01074,0.10034,0.15747,-1.588,0.969,-0.817
2026-05-23 16:22:08.145,1436867601,222145,2,0.94995,0.19141,0.28467,-1.649,1.779,2.313
2026-05-23 16:22:09.345,1436868801,222345,1,1.01563,0.10815,0.16528,-1.733,0.794,-1.092
2026-05-23 16:22:09.345,1436868801,222345,2,0.94189,0.18799,0.2959,-1.382,1.924,1.969
2026-05-23 16:22:09.545,1436869001,222545,1,1.00708,0.10059,0.18262,-1.511,0.71,-0.443
2026-05-23 16:22:09.545,1436869001,222545,2,0.9436,0.18652,0.29224,-0.794,1.168,1.107
2026-05-23 16:22:09.745,1436869201,222745,1,1.01172,0.10059,0.16382,-1.947,-0.389,-0.817
2026-05-23 16:22:09.745,1436869201,222745,2,0.94702,0.19214,0.29834,0.099,0.626,0.206
2026-05-23 16:22:09.945,1436869401,222945,1,1.00732,0.10791,0.17041,-1.397,-0.229,-0.168
2026-05-23 16:22:09.945,1436869401,222945,2,0.95142,0.1875,0.29761,0.458,0.687,0.756
2026-05-23 16:22:09.145,1436868601,223145,1,1.01099,0.09888,0.16406,-1.366,0.267,0.305
2026-05-23 16:22:09.145,1436868601,223145,2,0.94385,0.19238,0.29883,-1.153,1.275,-0.031
2026-05-23 16:22:10.345,1436869801,223345,1,1.00781,0.10059,0.1687,-2.382,0.26,0.664
2026-05-23 16:22:10.345,1436869801,223345,2,0.95117,0.1958,0.28857,-0.71,1.473,0.679
2026-05-23 16:22:10.545,1436870001,223545,1,1.01147,0.1001,0.16504,-1.298,-0.336,0.099
2026-05-23 16:22:10.545,1436870001,223545,2,0.95313,0.19336,0.29834,-0.863,0.977,0.817
2026-05-23 16:22:10.745,1436870201,223745,1,1.01221,0.08887,0.16357,-1.817,0.405,0.328
2026-05-23 16:22:10.745,1436870201,223745,2,0.95142,0.19995,0.28638,-0.908,0.832,1.237
2026-05-23 16:22:10.945,1436870401,223945,1,1.01514,0.09644,0.16357,-1.901,0.038,0.168
2026-05-23 16:22:10.945,1436870401,223945,2,0.94507,0.20361,0.28345,-1.023,1.183,1.389
2026-05-23 16:22:10.145,1436869601,224145,1,1.01367,0.09351,0.17651,-1.16,1.015,-0.397
2026-05-23 16:22:10.145,1436869601,224145,2,0.94556,0.20068,0.30444,-1.435,0.794,1.504
2026-05-23 16:22:11.345,1436870801,224345,1,1.03149,0.08838,0.1189,-0.954,5.511,1.168
2026-05-23 16:22:11.345,1436870801,224345,2,0.98193,0.18604,0.29346,5.908,-8.893,7.557
2026-05-23 16:22:11.545,1436871001,224545,1,1.09277,0.09839,0.05664,-17.191,33.275,-5.977
2026-05-23 16:22:11.545,1436871001,224545,2,1.0105,0.21948,0.30298,7.359,-49.466,16.412
2026-05-23 16:22:11.745,1436871201,224745,1,0.97095,0.12842,0.33618,-23.42,47.13,-1.641
2026-05-23 16:22:11.745,1436871201,224745,2,1.07861,0.12109,-0.08936,-5.038,-56.214,-7.328
2026-05-23 16:22:11.945,1436871401,224945,1,0.83472,0.04614,0.71997,-2.756,28.137,0.733
2026-05-23 16:22:11.945,1436871401,224945,2,0.8103,0.10278,-0.18359,16.702,-15.588,-4.313
2026-05-23 16:22:11.145,1436870601,225145,1,0.82715,0.04858,0.60718,0.366,-14.382,12.122
2026-05-23 16:22:11.145,1436870601,225145,2,0.73804,0.14966,-0.13843,-16.656,2.305,-13.511
2026-05-23 16:22:12.345,1436871801,225345,1,0.66113,-0.02515,0.38623,7.466,-50.702,1.389
2026-05-23 16:22:12.345,1436871801,225345,2,0.68555,0.20605,0.01563,-14.031,50.718,-2.084
2026-05-23 16:22:12.545,1436872001,225545,1,0.91187,0.05908,0.10669,5.397,-60.802,-9.046
2026-05-23 16:22:12.545,1436872001,225545,2,0.82568,0.23193,0.07739,0.427,45.794,-6.214
2026-05-23 16:22:12.745,1436872201,225745,1,1.01001,0.0686,0.04102,12.137,-27.977,-0.405
2026-05-23 16:22:12.745,1436872201,225745,2,0.94678,0.19116,0.25342,25.435,21.191,4.977
2026-05-23 16:22:12.945,1436872401,225945,1,1.07983,0.12988,-0.05493,-0.321,-4.176,8.588
2026-05-23 16:22:12.945,1436872401,225945,2,0.98169,0.15015,0.26538,-1.84,3.466,-0.496
2026-05-23 16:22:12.145,1436871601,226145,1,1.02637,0.06787,0.01685,-30.954,-1.901,-12.374
2026-05-23 16:22:12.145,1436871601,226145,2,0.90796,0.20581,0.28711,-40.198,8.74,8.931
2026-05-23 16:22:13.345,1436872801,226345,1,1.05396,0.06055,0.02441,-17.282,2.527,-2.092
2026-05-23 16:22:13.345,1436872801,226345,2,0.93677,0.20947,0.33618,30.458,-8.237,-11.58
2026-05-23 16:22:13.545,1436873001,226545,1,1.06128,0.08423,0.01514,4.786,-3.176,-3.603
2026-05-23 16:22:13.545,1436873001,226545,2,0.94043,0.20483,0.29126,11.603,-2.458,3.038
2026-05-23 16:22:13.745,1436873201,226745,1,1.04712,0.11401,0.02783,5.282,2.901,0.908
2026-05-23 16:22:13.745,1436873201,226745,2,0.9375,0.18579,0.31812,6.015,-3.702,-1.252
2026-05-23 16:22:13.945,1436873401,226945,1,1.05273,0.10547,0.01953,-0.931,-0.84,-0.275
2026-05-23 16:22:13.945,1436873401,226945,2,0.95679,0.18774,0.3125,2.443,-0.595,1.901
2026-05-23 16:22:13.145,1436872601,227145,1,1.05396,0.11279,0.0083,-5.176,-2.168,-1.229
2026-05-23 16:22:13.145,1436872601,227145,2,0.94653,0.19214,0.32031,-4.412,3.252,1.298
2026-05-23 16:22:14.345,1436873801,227345,1,1.04932,0.10913,0.0061,-1.656,0.611,-0.267
2026-05-23 16:22:14.345,1436873801,227345,2,0.95264,0.1897,0.31128,-0.718,0.336,1.443
2026-05-23 16:22:14.545,1436874001,227545,1,1.04102,0.11792,0.03223,-1.901,-1.122,-0.809
2026-05-23 16:22:14.545,1436874001,227545,2,0.94824,0.19727,0.30908,-3.267,0.206,0.954
2026-05-23 16:22:14.745,1436874201,227745,1,1.05444,0.10718,0.01001,-4.092,-0.656,-0.641
2026-05-23 16:22:14.745,1436874201,227745,2,0.94043,0.19238,0.30835,-3.74,2.489,1.947
2026-05-23 16:22:14.945,1436874401,227945,1,1.04834,0.10718,0.01953,-3.29,1.977,0.198
2026-05-23 16:22:14.945,1436874401,227945,2,0.9519,0.19897,0.30908,0.321,1.359,1.16
2026-05-23 16:22:14.145,1436873601,228145,1,1.05981,0.11108,0.02637,-0.84,1.313,-0.206
2026-05-23 16:22:14.145,1436873601,228145,2,0.95313,0.20093,0.32935,1.557,1.611,1.55
2026-05-23 16:22:15.345,1436874801,228345,1,1.04443,0.10449,0.02148,-1.885,1.137,1.779
2026-05-23 16:22:15.345,1436874801,228345,2,0.95166,0.18823,0.32446,-1.038,1.229,1.656
2026-05-23 16:22:15.545,1436875001,228545,1,1.05371,0.10742,-0.00732,4.641,-2.183,-1.252
2026-05-23 16:22:15.545,1436875001,228545,2,0.96191,0.20605,0.33032,8.863,-3.229,1.969
2026-05-23 16:22:15.745,1436875201,228745,1,1.04932,0.14404,0.01807,-0.756,3.725,2.504
2026-05-23 16:22:15.745,1436875201,228745,2,0.95752,0.19165,0.29517,0.053,5.305,0.595
2026-05-23 16:22:15.945,1436875401,228945,1,1.05078,0.11011,0.03247,1.817,5.527,1.076
2026-05-23 16:22:15.945,1436875401,228945,2,0.95557,0.18848,0.3208,-0.748,2.969,1.969
2026-05-23 16:22:15.145,1436874601,229145,1,1.05054,0.09375,0.00195,4.489,1.695,-0.863
2026-05-23 16:22:15.145,1436874601,229145,2,0.93896,0.18579,0.31616,5.534,1.985,2.42
2026-05-23 16:22:16.345,1436875801,229345,1,1.04688,0.11011,0.00195,-3.855,2.443,0.282
2026-05-23 16:22:16.345,1436875801,229345,2,0.94922,0.16821,0.30713,-6.458,3.656,1.718
2026-05-23 16:22:16.545,1436876001,229545,1,1.06372,0.1333,0.00024,4.008,3.046,0.794
2026-05-23 16:22:16.545,1436876001,229545,2,0.96387,0.19092,0.31909,3.969,8.244,-0.924
2026-05-23 16:22:16.745,1436876201,229745,1,1.03491,0.10913,0.02026,-2.771,0.366,0.443
2026-05-23 16:22:16.745,1436876201,229745,2,0.94165,0.18115,0.33008,0.809,3.878,0.55
2026-05-23 16:22:16.945,1436876401,229945,1,1.02734,0.11133,0.0144,3.908,-2.885,0.733
2026-05-23 16:22:16.945,1436876401,229945,2,0.96045,0.1897,0.32739,4.565,-3.481,1.008
2026-05-23 16:22:16.145,1436875601,230145,1,1.04541,0.10522,0.03174,-3.008,-1.237,0.42
2026-05-23 16:22:16.145,1436875601,230145,2,0.94653,0.18677,0.3269,-0.779,-0.115,2.0
2026-05-23 16:22:17.345,1436876801,230345,1,1.06226,0.09839,0.00464,-5.023,-0.382,-2.496
2026-05-23 16:22:17.345,1436876801,230345,2,0.9436,0.19507,0.32568,-1.557,-1.237,1.969
2026-05-23 16:22:17.545,1436877001,230545,1,1.05249,0.10889,0.01929,-2.084,-0.244,-0.145
2026-05-23 16:22:17.545,1436877001,230545,2,0.94824,0.1853,0.31763,0.099,-0.023,1.42
2026-05-23 16:22:17.745,1436877201,230745,1,1.03857,0.10034,0.01953,-3.794,0.122,-0.145
2026-05-23 16:22:17.745,1436877201,230745,2,0.95557,0.18213,0.33179,-1.771,0.55,1.672
2026-05-23 16:22:17.945,1436877401,230945,1,1.04126,0.11792,0.02051,-0.931,1.611,-1.031
2026-05-23 16:22:17.945,1436877401,230945,2,0.94629,0.19409,0.3335,-3.931,-0.015,1.855
2026-05-23 16:22:17.145,1436876601,231145,1,1.05273,0.11035,0.01318,-0.527,-3.13,-0.771
2026-05-23 16:22:17.145,1436876601,231145,2,0.94287,0.17163,0.32983,-6.779,-0.916,-0.313
2026-05-23 16:22:18.345,1436877801,231345,1,1.04761,0.09521,0.021,-7.305,1.42,-0.573
2026-05-23 16:22:18.345,1436877801,231345,2,0.95483,0.19482,0.32544,-1.481,-0.702,1.374
2026-05-23 16:22:18.545,1436878001,231545,1,1.04468,0.09741,0.02979,0.092,0.748,-0.802
2026-05-23 16:22:18.545,1436878001,231545,2,0.94897,0.18188,0.35034,3.573,-1.893,0.191
2026-05-23 16:22:18.745,1436878201,231745,1,1.03735,0.11133,0.0415,-1.405,5.626,2.267
2026-05-23 16:22:18.745,1436878201,231745,2,0.948,0.1936,0.33081,2.336,1.023,-1.664
2026-05-23 16:22:18.945,1436878401,231945,1,1.04712,0.09619,0.04419,-5.015,-2.565,-1.962
2026-05-23 16:22:18.945,1436878401,231945,2,0.94946,0.19067,0.33936,-6.198,0.924,2.191
2026-05-23 16:22:18.145,1436877601,232145,1,1.05298,0.10718,0.04224,-3.267,0.412,0.481
2026-05-23 16:22:18.145,1436877601,232145,2,0.95264,0.18677,0.33643,-2.145,1.794,0.656
2026-05-23 16:22:19.345,1436878801,232345,1,1.0498,0.10864,0.01514,2.924,0.847,1.145
2026-05-23 16:22:19.345,1436878801,232345,2,0.948,0.18506,0.33032,-1.321,1.885,0.748
2026-05-23 16:22:19.545,1436879001,232545,1,1.04248,0.1062,0.05127,-2.015,3.366,-3.229
2026-05-23 16:22:19.545,1436879001,232545,2,0.94678,0.18823,0.33691,0.053,0.473,3.092
2026-05-23 16:22:19.745,1436879201,232745,1,1.04419,0.11035,0.05127,-3.664,3.015,-0.489
2026-05-23 16:22:19.745,1436879201,232745,2,0.9436,0.18726,0.32813,-1.405,2.053,1.252
2026-05-23 16:22:19.945,1436879401,232945,1,1.04541,0.10596,0.0481,-0.679,2.275,2.084
2026-05-23 16:22:19.945,1436879401,232945,2,0.95288,0.18774,0.32715,2.214,1.237,2.267
2026-05-23 16:22:19.145,1436878601,233145,1,1.04248,0.09985,0.06274,-3.092,-0.046,1.038
2026-05-23 16:22:19.145,1436878601,233145,2,0.95532,0.17896,0.33301,-0.122,0.908,1.702
2026-05-23 16:22:20.345,1436879801,233345,1,1.04224,0.09521,0.05786,-0.908,0.282,-0.939
2026-05-23 16:22:20.345,1436879801,233345,2,0.94849,0.18311,0.33228,-0.87,2.046,0.992
2026-05-23 16:22:20.545,1436880001,233545,1,1.05005,0.09717,0.0459,-1.336,-1.046,-0.969
2026-05-23 16:22:20.545,1436880001,233545,2,0.95117,0.18335,0.32886,-2.603,1.71,1.565
2026-05-23 16:22:20.745,1436880201,233745,1,1.03931,0.10547,0.05029,-2.389,-0.168,-0.588
2026-05-23 16:22:20.745,1436880201,233745,2,0.95361,0.18848,0.33984,-1.183,1.053,1.443
2026-05-23 16:22:20.945,1436880401,233945,1,1.1189,0.12354,-0.00952,-2.679,5.748,-1.13
2026-05-23 16:22:20.945,1436880401,233945,2,0.96558,0.11108,0.25,8.176,-19.702,5.519
2026-05-23 16:22:20.145,1436879601,234145,1,0.72559,0.01245,-0.0144,-33.023,57.198,-1.916
2026-05-23 16:22:20.145,1436879601,234145,2,0.71851,0.12256,0.20532,-40.412,-79.588,5.466
2026-05-23 16:22:21.345,1436880801,234345,1,0.88403,0.06616,0.45508,6.198,36.137,-0.244
2026-05-23 16:22:21.345,1436880801,234345,2,0.84839,0.13574,-0.11401,-31.359,-37.0,3.71
2026-05-23 16:22:21.545,1436881001,234545,1,0.90381,0.12109,0.61426,8.733,15.092,3.473
2026-05-23 16:22:21.545,1436881001,234545,2,0.8064,0.11841,-0.23022,4.74,13.115,4.954
2026-05-23 16:22:21.745,1436881201,234745,1,0.94214,0.12012,0.43115,8.702,-25.252,5.618
2026-05-23 16:22:21.745,1436881201,234745,2,0.93945,0.21143,0.03296,5.534,36.863,5.45
2026-05-23 16:22:21.945,1436881401,234945,1,1.02051,0.2002,0.26807,29.595,-6.557,14.702
2026-05-23 16:22:21.945,1436881401,234945,2,0.9375,0.14624,0.14282,9.504,28.153,-9.58
2026-05-23 16:22:21.145,1436880601,235145,1,1.06763,0.07495,0.19922,45.588,-17.641,13.763
2026-05-23 16:22:21.145,1436880601,235145,2,0.94897,0.13379,0.22559,26.061,32.366,14.328
2026-05-23 16:22:22.345,1436881801,235345,1,1.09888,0.12231,0.14429,-33.55,-17.115,4.16
2026-05-23 16:22:22.345,1436881801,235345,2,1.00806,0.10669,0.30908,-24.763,16.435,-14.328
2026-05-23 16:22:22.545,1436882001,235545,1,1.06689,0.05005,0.02051,-47.786,-13.931,-11.237
2026-05-23 16:22:22.545,1436882001,235545,2,0.96973,0.25342,0.36377,-40.13,14.634,-21.763
2026-05-23 16:22:22.745,1436882201,235745,1,1.09375,0.02344,0.00098,-13.099,3.74,-3.183
2026-05-23 16:22:22.745,1436882201,235745,2,0.96753,0.24292,0.38379,-2.252,-5.931,8.458
2026-05-23 16:22:22.945,1436882401,235945,1,1.0144,0.10645,0.12061,-0.168,12.634,-5.458
2026-05-23 16:22:22.945,1436882401,235945,2,0.9519,0.20728,0.3667,-7.679,-5.305,-4.557
2026-05-23 16:22:22.145,1436881601,236145,1,1.01514,0.08252,0.11548,-10.656,4.573,-2.305
2026-05-23 16:22:22.145,1436881601,236145,2,0.93628,0.25244,0.31323,-5.023,-4.191,9.206
2026-05-23 16:22:23.345,1436882801,236345,1,1.01953,0.10913,0.17896,5.275,10.595,1.885
2026-05-23 16:22:23.345,1436882801,236345,2,0.93042,0.19238,0.30444,2.916,-4.71,6.267
2026-05-23 16:22:23.545,1436883001,236545,1,1.04517,0.11108,0.16089,8.26,5.45,6.771
2026-05-23 16:22:23.545,1436883001,236545,2,0.97925,0.17285,0.29468,4.122,-1.573,4.351
2026-05-23 16:22:23.745,1436883201,236745,1,1.00757,0.06738,0.18066,0.725,0.328,-0.374
2026-05-23 16:22:23.745,1436883201,236745,2,0.95923,0.19507,0.29419,1.183,-2.794,5.443
2026-05-23 16:22:23.945,1436883401,236945,1,0.99023,0.14673,0.17358,2.0,4.122,1.282
2026-05-23 16:22:23.945,1436883401,236945,2,0.94946,0.1355,0.25513,-2.458,0.71,-2.122
2026-05-23 16:22:23.145,1436882601,237145,1,1.0144,0.08179,0.17407,-8.527,-1.901,-0.458
2026-05-23 16:22:23.145,1436882601,237145,2,0.93994,0.18872,0.27026,-0.71,-0.084,0.817
2026-05-23 16:22:24.345,1436883801,237345,1,1.00317,0.10059,0.18213,4.664,2.282,0.702
2026-05-23 16:22:24.345,1436883801,237345,2,0.94531,0.16748,0.26953,-0.885,2.313,2.099
2026-05-23 16:22:24.545,1436884001,237545,1,1.00684,0.09937,0.17432,-3.443,-0.267,-0.817
2026-05-23 16:22:24.545,1436884001,237545,2,0.948,0.1814,0.27173,-0.901,0.542,1.008
2026-05-23 16:22:24.745,1436884201,237745,1,1.00195,0.09229,0.16699,-2.076,0.985,0.45
2026-05-23 16:22:24.745,1436884201,237745,2,0.9519,0.16895,0.27344,-1.076,1.267,2.74
2026-05-23 16:22:24.945,1436884401,237945,1,1.00244,0.0979,0.18774,-4.771,0.718,-1.855
2026-05-23 16:22:24.945,1436884401,237945,2,0.95044,0.17114,0.27173,-4.229,2.55,0.519
2026-05-23 16:22:24.145,1436883601,238145,1,1.00098,0.10254,0.19067,1.771,1.847,-1.305
2026-05-23 16:22:24.145,1436883601,238145,2,0.95264,0.16382,0.28418,-0.397,0.771,2.794
2026-05-23 16:22:25.345,1436884801,238345,1,1.00439,0.10571,0.18042,-6.061,-1.809,-0.618
2026-05-23 16:22:25.345,1436884801,238345,2,0.94971,0.17456,0.26074,-3.42,1.366,-0.237
2026-05-23 16:22:25.545,1436885001,238545,1,1.00513,0.08716,0.17261,-5.168,0.985,-0.015
2026-05-23 16:22:25.545,1436885001,238545,2,0.95117,0.17554,0.2854,-0.809,2.221,1.618
2026-05-23 16:22:25.745,1436885201,238745,1,1.0061,0.09302,0.18579,1.466,-0.947,-0.992
2026-05-23 16:22:25.745,1436885201,238745,2,0.948,0.1665,0.26465,-0.13,-0.13,1.58
2026-05-23 16:22:25.945,1436885401,238945,1,1.01123,0.10181,0.18433,-1.198,-0.443,0.267
2026-05-23 16:22:25.945,1436885401,238945,2,0.94897,0.17212,0.2749,-1.046,0.977,-0.008
2026-05-23 16:22:25.145,1436884601,239145,1,1.00244,0.08496,0.16431,-1.649,-0.214,1.42
2026-05-23 16:22:25.145,1436884601,239145,2,0.94873,0.17261,0.27563,1.053,0.122,1.832
2026-05-23 16:22:26.345,1436885801,239345,1,1.00513,0.0896,0.16772,0.053,0.168,0.252
2026-05-23 16:22:26.345,1436885801,239345,2,0.94531,0.17944,0.27002,-0.252,1.863,1.725
2026-05-23 16:22:26.545,1436886001,239545,1,0.99658,0.08887,0.1709,3.71,0.282,0.244
2026-05-23 16:22:26.545,1436886001,239545,2,0.97778,0.14648,0.28369,3.595,3.901,2.649
2026-05-23 16:22:26.745,1436886201,239745,1,1.0105,0.10278,0.15771,2.656,1.435,-1.13
2026-05-23 16:22:26.745,1436886201,239745,2,0.95044,0.17163,0.27881,-1.573,2.145,2.183
2026-05-23 16:22:26.945,1436886401,239945,1,1.02954,0.08032,0.14648,-1.26,0.496,-0.176
2026-05-23 16:22:26.945,1436886401,239945,2,0.948,0.17505,0.26978,-0.061,-2.244,5.809
2026-05-23 16:22:26.145,1436885601,240145,1,0.99194,0.09595,0.19263,-1.061,1.557,-3.336
2026-05-23 16:22:26.145,1436885601,240145,2,0.94995,0.16382,0.27197,-3.603,-0.084,2.351
2026-05-23 16:22:27.345,1436886801,240345,1,1.00049,0.10352,0.1709,-6.038,0.885,-0.511
2026-05-23 16:22:27.345,1436886801,240345,2,0.95459,0.15479,0.24683,-1.618,1.473,0.809
2026-05-23 16:22:27.545,1436887001,240545,1,1.01758,0.10986,0.16455,-8.115,-5.519,-2.687
2026-05-23 16:22:27.545,1436887001,240545,2,0.94458,0.15503,0.24927,-5.115,1.786,-3.832
2026-05-23 16:22:27.745,1436887201,240745,1,1.01245,0.10962,0.15771,0.26,0.977,0.466
2026-05-23 16:22:27.745,1436887201,240745,2,0.94336,0.17432,0.2627,-0.336,2.183,2.145
2026-05-23 16:22:27.945,1436887401,240945,1,1.01001,0.1106,0.15039,-3.13,-0.947,-0.076
2026-05-23 16:22:27.945,1436887401,240945,2,0.94995,0.16797,0.24927,-1.137,1.901,0.817
2026-05-23 16:22:27.145,1436886601,241145,1,1.01929,0.10083,0.15479,-1.809,-0.42,-0.305
2026-05-23 16:22:27.145,1436886601,241145,2,0.93555,0.177,0.25415,-1.031,0.992,1.008
2026-05-23 16:22:28.345,1436887801,241345,1,1.01025,0.10229,0.15381,-2.069,-0.267,0.092
2026-05-23 16:22:28.345,1436887801,241345,2,0.96387,0.18018,0.28101,-2.336,2.779,0.786
2026-05-23 16:22:28.545,1436888001,241545,1,1.0083,0.09741,0.15356,-0.443,0.298,0.779
2026-05-23 16:22:28.545,1436888001,241545,2,0.94287,0.17383,0.26611,-0.427,2.382,1.45
2026-05-23 16:22:28.745,1436888201,241745,1,1.01929,0.1062,0.14697,-2.099,0.16,0.26
2026-05-23 16:22:28.745,1436888201,241745,2,0.94531,0.17358,0.27881,-0.183,1.282,0.809
2026-05-23 16:22:28.945,1436888401,241945,1,1.02051,0.10742,0.14478,-2.969,-0.496,0.26
2026-05-23 16:22:28.945,1436888401,241945,2,0.94385,0.18018,0.27466,-2.099,1.962,-1.321
2026-05-23 16:22:28.145,1436887601,242145,1,1.02246,0.08447,0.14014,-3.397,-0.489,0.786
2026-05-23 16:22:28.145,1436887601,242145,2,0.94873,0.18604,0.27783,-0.168,0.817,1.229
2026-05-23 16:22:29.345,1436888801,242345,1,1.01685,0.09326,0.14697,-0.626,0.779,-0.55
2026-05-23 16:22:29.345,1436888801,242345,2,0.94287,0.18384,0.26807,-1.183,0.779,1.733
2026-05-23 16:22:29.545,1436889001,242545,1,1.021,0.09033,0.15112,-2.176,0.634,-0.542
2026-05-23 16:22:29.545,1436889001,242545,2,0.94604,0.18359,0.27832,-1.031,1.206,1.435
2026-05-23 16:22:29.745,1436889201,242745,1,1.01733,0.09326,0.14258,-1.74,0.191,-0.473
2026-05-23 16:22:29.745,1436889201,242745,2,0.9585,0.17822,0.2749,-1.351,0.969,2.214
2026-05-23 16:22:29.945,1436889401,242945,1,1.02222,0.09717,0.14697,-1.26,-0.137,-0.466
2026-05-23 16:22:29.945,1436889401,242945,2,0.9519,0.17798,0.27905,-1.511,0.748,2.214
2026-05-23 16:22:29.145,1436888601,243145,1,1.01807,0.10156,0.14453,-1.817,0.725,-1.359
2026-05-23 16:22:29.145,1436888601,243145,2,0.94238,0.17407,0.26978,-2.321,0.511,1.779
2026-05-23 16:22:30.345,1436889801,243345,1,1.0144,0.10327,0.14453,-1.832,0.382,-0.679
2026-05-23 16:22:30.345,1436889801,243345,2,0.94922,0.16626,0.28516,-1.13,2.061,1.336
2026-05-23 16:22:30.545,1436890001,243545,1,1.0127,0.10596,0.14917,0.328,1.588,-0.458
2026-05-23 16:22:30.545,1436890001,243545,2,0.9502,0.17407,0.27539,0.489,0.901,2.435
2026-05-23 16:22:30.745,1436890201,243745,1,1.03833,0.08521,0.0835,1.42,1.939,-0.206
2026-05-23 16:22:30.745,1436890201,243745,2,0.9856,0.17773,0.30469,-0.71,-2.824,4.328
2026-05-23 16:22:30.945,1436890401,243945,1,1.06152,0.11182,0.09595,-12.634,26.557,-4.534
2026-05-23 16:22:30.945,1436890401,243945,2,1.04468,0.17627,0.28223,8.282,-30.008,8.779
2026-05-23 16:22:30.145,1436889601,244145,1,1.04077,0.10498,0.29932,-16.977,45.405,-2.13
2026-05-23 16:22:30.145,1436889601,244145,2,1.04834,0.10693,0.09937,-11.206,-46.344,3.137
2026-05-23 16:22:31.345,1436890801,244345,1,0.86743,0.06396,0.6228,-6.611,25.763,4.305
2026-05-23 16:22:31.345,1436890801,244345,2,0.81641,0.11841,-0.12524,9.275,-23.794,-5.214
2026-05-23 16:22:31.545,1436891001,244545,1,0.86377,0.02563,0.55176,-6.221,-11.168,4.565
2026-05-23 16:22:31.545,1436891001,244545,2,0.79492,0.15942,-0.10107,-11.939,2.947,-6.542
2026-05-23 16:22:31.745,1436891201,244745,1,0.69849,0.06763,0.38403,3.771,-42.336,-2.817
2026-05-23 16:22:31.745,1436891201,244745,2,0.70825,0.1748,0.07227,-4.29,35.733,5.534
2026-05-23 16:22:31.945,1436891401,244945,1,0.85254,0.09912,0.14648,12.229,-53.71,-11.412
2026-05-23 16:22:31.945,1436891401,244945,2,0.80908,0.22803,0.15454,-8.267,64.122,-9.267
2026-05-23 16:22:31.145,1436890601,245145,1,1.05786,0.10645,-0.03198,10.359,-14.786,7.42
2026-05-23 16:22:31.145,1436890601,245145,2,0.97119,0.08398,0.2561,-9.328,24.588,18.847
2026-05-23 16:22:32.345,1436891801,245345,1,1.09302,0.13525,0.03491,-15.321,-9.992,-2.771
2026-05-23 16:22:32.345,1436891801,245345,2,0.9436,0.15015,0.23438,-12.168,6.328,-1.656
2026-05-23 16:22:32.545,1436892001,245545,1,1.03711,0.09863,-0.00317,-11.771,-5.443,-3.908
2026-05-23 16:22:32.545,1436892001,245545,2,0.96582,0.17383,0.26465,34.16,-5.13,-10.763
2026-05-23 16:22:32.745,1436892201,245745,1,1.05566,0.09644,0.00708,-5.206,-5.16,4.748
2026-05-23 16:22:32.745,1436892201,245745,2,0.9646,0.20898,0.32056,-13.099,14.26,5.405
2026-05-23 16:22:32.945,1436892401,245945,1,1.04321,0.09302,0.0144,1.382,2.947,4.267
2026-05-23 16:22:32.945,1436892401,245945,2,0.95654,0.18384,0.3418,2.718,-2.382,-4.794
2026-05-23 16:22:32.145,1436891601,246145,1,1.05542,0.08203,0.00757,-0.153,0.656,2.962
2026-05-23 16:22:32.145,1436891601,246145,2,0.95581,0.19946,0.34473,-3.0,5.733,2.069
2026-05-23 16:22:33.345,1436892801,246345,1,1.05005,0.06714,0.00049,0.733,0.916,0.542
2026-05-23 16:22:33.345,1436892801,246345,2,0.95679,0.20288,0.34619,0.573,1.031,0.679
2026-05-23 16:22:33.545,1436893001,246545,1,1.05225,0.09497,0.01538,-5.099,2.321,-3.794
2026-05-23 16:22:33.545,1436893001,246545,2,0.95142,0.18652,0.33716,-8.145,1.855,0.237
2026-05-23 16:22:33.745,1436893201,246745,1,1.04712,0.09619,0.0354,-4.176,-1.145,-5.359
2026-05-23 16:22:33.745,1436893201,246745,2,0.93823,0.2168,0.33984,-2.634,-0.87,-0.359
2026-05-23 16:22:33.945,1436893401,246945,1,1.03662,0.11011,0.04492,-3.863,2.832,-0.672
2026-05-23 16:22:33.945,1436893401,246945,2,0.94995,0.21265,0.32959,3.183,1.084,1.916
2026-05-23 16:22:33.145,1436892601,247145,1,1.03418,0.08057,0.03955,1.824,2.038,1.786
2026-05-23 16:22:33.145,1436892601,247145,2,0.95752,0.20557,0.35327,-1.504,2.771,2.29
2026-05-23 16:22:34.345,1436893801,247345,1,1.03662,0.08423,0.05249,-1.557,0.466,-0.466
2026-05-23 16:22:34.345,1436893801,247345,2,0.95044,0.20044,0.35474,-0.412,-1.092,2.733
2026-05-23 16:22:34.545,1436894001,247545,1,1.04443,0.09277,0.03491,4.313,0.313,0.435
2026-05-23 16:22:34.545,1436894001,247545,2,0.95459,0.1853,0.33984,-2.679,6.885,4.168
2026-05-23 16:22:34.745,1436894201,247745,1,1.05908,0.09009,0.02832,-0.206,1.359,0.931
2026-05-23 16:22:34.745,1436894201,247745,2,0.95361,0.18726,0.32837,0.634,0.893,2.481
2026-05-23 16:22:34.945,1436894401,247945,1,1.03711,0.09204,0.04492,-2.534,-0.458,-1.198
2026-05-23 16:22:34.945,1436894401,247945,2,0.94897,0.18579,0.33521,-1.214,1.885,1.824
2026-05-23 16:22:34.145,1436893601,248145,1,1.05249,0.10742,0.06226,-2.42,0.634,0.42
2026-05-23 16:22:34.145,1436893601,248145,2,0.9126,0.19897,0.33667,-4.229,1.092,-1.496
2026-05-23 16:22:35.345,1436894801,248345,1,1.06689,0.08716,0.01514,1.26,-5.931,2.832
2026-05-23 16:22:35.345,1436894801,248345,2,0.96143,0.18799,0.33838,-1.084,0.496,3.053
2026-05-23 16:22:35.545,1436895001,248545,1,1.06201,0.07959,0.00244,-3.435,0.389,-0.977
2026-05-23 16:22:35.545,1436895001,248545,2,0.95508,0.18701,0.34106,2.969,-2.626,0.542
2026-05-23 16:22:35.745,1436895201,248745,1,1.052,0.08691,0.02075,-1.008,0.092,-0.305
2026-05-23 16:22:35.745,1436895201,248745,2,0.96411,0.1875,0.35352,-2.718,2.634,2.824
2026-05-23 16:22:35.945,1436895401,248945,1,1.04883,0.09424,0.02368,-3.695,-0.71,-1.16
2026-05-23 16:22:35.945,1436895401,248945,2,0.95605,0.177,0.33862,2.718,-2.779,0.328
2026-05-23 16:22:35.145,1436894601,249145,1,1.0498,0.08789,0.01367,-2.115,0.87,-1.389
2026-05-23 16:22:35.145,1436894601,249145,2,0.96411,0.18848,0.34082,1.55,-1.031,1.26
2026-05-23 16:22:36.345,1436895801,249345,1,1.05127,0.09351,0.0271,-1.275,0.183,-0.718
2026-05-23 16:22:36.345,1436895801,249345,2,0.9519,0.18604,0.33789,-0.053,2.412,2.382
2026-05-23 16:22:36.545,1436896001,249545,1,1.05176,0.104,0.01733,-2.618,0.298,0.046
2026-05-23 16:22:36.545,1436896001,249545,2,0.9541,0.17822,0.32764,-1.046,-0.275,0.42
2026-05-23 16:22:36.745,1436896201,249745,1,1.05029,0.09692,0.01538,-0.374,1.015,-0.076
2026-05-23 16:22:36.745,1436896201,249745,2,0.95557,0.17773,0.34448,-1.649,0.534,2.573
2026-05-23 16:22:36.945,1436896401,249945,1,1.05371,0.08838,0.00317,-0.527,2.092,-0.466
2026-05-23 16:22:36.945,1436896401,249945,2,0.95874,0.17627,0.33691,-0.397,-0.015,0.359
2026-05-23 16:22:36.145,1436895601,250145,1,1.05078,0.09302,0.00952,-1.649,1.191,0.611
2026-05-23 16:22:36.145,1436895601,250145,2,0.95166,0.18481,0.35913,-0.542,0.969,-0.153
2026-05-23 16:22:37.345,1436896801,250345,1,1.04883,0.09302,0.02808,-2.855,1.916,0.275
2026-05-23 16:22:37.345,1436896801,250345,2,0.96094,0.1814,0.35522,-0.092,1.45,0.824
2026-05-23 16:22:37.545,1436897001,250545,1,1.04761,0.09229,0.02124,-3.489,-0.168,0.145
2026-05-23 16:22:37.545,1436897001,250545,2,0.95435,0.18213,0.33789,-1.557,1.122,1.977
2026-05-23 16:22:37.745,1436897201,250745,1,1.04639,0.09595,0.03418,-1.206,-0.023,0.466
2026-05-23 16:22:37.745,1436897201,250745,2,0.95435,0.17554,0.3396,-0.076,1.198,1.924
2026-05-23 16:22:37.945,1436897401,250945,1,1.05566,0.09644,0.03101,-2.931,0.824,-0.183
2026-05-23 16:22:37.945,1436897401,250945,2,0.95532,0.17383,0.34863,-0.107,0.656,1.443
2026-05-23 16:22:37.145,1436896601,251145,1,1.04712,0.09082,0.03564,-2.695,0.779,-0.344
2026-05-23 16:22:37.145,1436896601,251145,2,0.95093,0.17969,0.33862,-1.031,1.519,1.008
2026-05-23 16:22:38.345,1436897801,251345,1,1.05151,0.09229,0.03369,-1.939,0.802,-0.176
2026-05-23 16:22:38.345,1436897801,251345,2,0.95923,0.18311,0.33936,-2.145,1.916,1.534
2026-05-23 16:22:38.545,1436898001,251545,1,1.0437,0.08813,0.0354,-0.947,-0.794,-0.015
2026-05-23 16:22:38.545,1436898001,251545,2,0.96289,0.18042,0.34741,-3.115,1.427,1.153
2026-05-23 16:22:38.745,1436898201,251745,1,1.05615,0.09058,0.03467,-1.817,0.962,-0.527
2026-05-23 16:22:38.745,1436898201,251745,2,0.9541,0.17578,0.33765,-2.244,1.435,2.038
2026-05-23 16:22:38.945,1436898401,251945,1,1.04492,0.09619,0.03418,-1.443,0.656,-0.687
2026-05-23 16:22:38.945,1436898401,251945,2,0.95117,0.17725,0.34766,-0.977,-0.092,0.992
2026-05-23 16:22:38.145,1436897601,252145,1,1.04492,0.08984,0.04028,-2.588,0.626,-0.069
2026-05-23 16:22:38.145,1436897601,252145,2,0.95825,0.17554,0.33203,-2.55,2.145,1.389
2026-05-23 16:22:39.345,1436898801,252345,1,1.0481,0.0918,0.03442,-0.412,1.481,0.122
2026-05-23 16:22:39.345,1436898801,252345,2,0.95532,0.17725,0.35205,-0.756,1.473,0.947
2026-05-23 16:22:39.545,1436899001,252545,1,1.04199,0.09399,0.05103,0.397,0.084,-0.214
2026-05-23 16:22:39.545,1436899001,252545,2,0.95996,0.17798,0.34863,-1.214,1.962,1.885
2026-05-23 16:22:39.745,1436899201,252745,1,1.04688,0.09546,0.04346,-0.809,0.252,-0.107
2026-05-23 16:22:39.745,1436899201,252745,2,0.9585,0.17505,0.34741,-1.366,1.183,1.191
2026-05-23 16:22:39.945,1436899401,252945,1,1.05127,0.10547,0.03052,-0.855,-1.137,-0.237
2026-05-23 16:22:39.945,1436899401,252945,2,0.95679,0.17969,0.34814,-1.321,0.313,1.145
2026-05-23 16:22:39.145,1436898601,253145,1,1.05005,0.10425,0.03027,-2.29,0.947,0.099
2026-05-23 16:22:39.145,1436898601,253145,2,0.95801,0.18213,0.35376,-0.466,0.947,1.427
2026-05-23 16:22:40.345,1436899801,253345,1,1.04541,0.09131,0.02881,-1.595,1.794,-0.221
2026-05-23 16:22:40.345,1436899801,253345,2,0.99512,0.17212,0.32837,-0.466,4.046,0.321
2026-05-23 16:22:40.545,1436900001,253545,1,0.98389,0.09521,-0.05273,-8.069,29.947,-1.008
2026-05-23 16:22:40.545,1436900001,253545,2,0.88306,0.10864,0.36938,-19.107,-24.786,22.855
2026-05-23 16:22:40.745,1436900201,253745,1,0.90259,0.09961,0.18994,-2.489,68.26,-5.702
2026-05-23 16:22:40.745,1436900201,253745,2,0.66382,0.07495,0.10522,3.282,-100.046,22.924
2026-05-23 16:22:40.945,1436900401,253945,1,0.70117,0.11914,0.3606,-20.229,34.313,-3.763
2026-05-23 16:22:40.945,1436900401,253945,2,0.88354,0.04639,-0.06665,-12.389,-48.473,-12.702
2026-05-23 16:22:40.145,1436899601,254145,1,0.80811,0.13477,0.74365,7.992,5.634,-3.076
2026-05-23 16:22:40.145,1436899601,254145,2,0.86938,0.07593,-0.19775,11.137,19.603,5.748
2026-05-23 16:22:41.345,1436900801,254345,1,0.89233,0.20947,0.51416,10.344,-23.221,6.107
2026-05-23 16:22:41.345,1436900801,254345,2,0.85693,0.08521,-0.00146,-0.366,34.053,-3.359
2026-05-23 16:22:41.545,1436901001,254545,1,0.94971,0.10498,0.38843,12.725,-32.473,9.641
2026-05-23 16:22:41.545,1436901001,254545,2,0.97388,0.12305,0.0813,-3.191,31.145,1.427
2026-05-23 16:22:41.745,1436901201,254745,1,0.96191,0.12476,0.27637,7.328,-24.519,15.695
2026-05-23 16:22:41.745,1436901201,254745,2,0.94727,0.13428,0.21436,1.489,22.504,-8.412
2026-05-23 16:22:41.945,1436901401,254945,1,0.99072,0.08936,0.14111,-15.321,-30.099,7.916
2026-05-23 16:22:41.945,1436901401,254945,2,0.92285,0.12915,0.19922,-14.45,17.473,-4.954
2026-05-23 16:22:41.145,1436900601,255145,1,1.0542,0.04028,0.03101,1.992,-11.191,4.458
2026-05-23 16:22:41.145,1436900601,255145,2,0.95825,0.1626,0.28369,11.183,11.015,8.359
2026-05-23 16:22:42.345,1436901801,255345,1,1.04175,0.08984,0.04688,-0.695,0.656,-6.557
2026-05-23 16:22:42.345,1436901801,255345,2,0.99438,0.13647,0.37866,-26.672,3.26,-9.901
2026-05-23 16:22:42.545,1436902001,255545,1,0.99854,0.07642,0.08301,-10.542,-4.229,-6.656
2026-05-23 16:22:42.545,1436902001,255545,2,0.90088,0.19556,0.32397,-5.748,-2.191,-1.847
2026-05-23 16:22:42.745,1436902201,255745,1,1.07178,0.11255,0.11475,-3.313,1.55,3.496
2026-05-23 16:22:42.745,1436902201,255745,2,0.96167,0.1665,0.33838,12.847,-1.626,5.496
2026-05-23 16:22:42.945,1436902401,255945,1,1.04907,0.09985,0.1145,0.26,12.992,0.336
2026-05-23 16:22:42.945,1436902401,255945,2,0.9519,0.17529,0.27295,14.969,0.13,5.099
2026-05-23 16:22:42.145,1436901601,256145,1,1.00415,0.08643,0.16919,0.038,0.397,-0.115
2026-05-23 16:22:42.145,1436901601,256145,2,0.94897,0.1626,0.27686,5.115,-0.45,3.649
2026-05-23 16:22:43.345,1436902801,256345,1,0.98291,0.09546,0.15723,-20.725,-0.779,-2.802
2026-05-23 16:22:43.345,1436902801,256345,2,0.96313,0.14575,0.27271,-18.466,0.267,-8.489
2026-05-23 16:22:43.545,1436903001,256545,1,1.03101,0.04614,0.10229,17.16,6.427,1.893
2026-05-23 16:22:43.545,1436903001,256545,2,0.94482,0.16382,0.31348,15.061,3.313,13.252
2026-05-23 16:22:43.745,1436903201,256745,1,1.01538,0.12646,0.18384,-11.244,0.519,-4.061
2026-05-23 16:22:43.745,1436903201,256745,2,0.95898,0.15503,0.29028,-13.466,-1.824,-4.466
2026-05-23 16:22:43.945,1436903401,256945,1,1.02271,0.08667,0.1709,-0.916,3.435,0.977
2026-05-23 16:22:43.945,1436903401,256945,2,0.9436,0.14917,0.27686,1.427,4.679,3.611
2026-05-23 16:22:43.145,1436902601,257145,1,1.01978,0.10571,0.17725,0.603,-1.832,-0.74
2026-05-23 16:22:43.145,1436902601,257145,2,0.94678,0.14624,0.2749,0.679,-0.527,1.802
2026-05-23 16:22:44.345,1436903801,257345,1,0.97314,0.09888,0.21191,38.504,4.511,4.595
2026-05-23 16:22:44.345,1436903801,257345,2,0.94019,0.11743,0.27539,21.504,3.191,14.466
2026-05-23 16:22:44.545,1436904001,257545,1,0.9856,0.15063,0.17236,-13.511,-4.336,-3.29
2026-05-23 16:22:44.545,1436904001,257545,2,0.96387,0.12476,0.27808,-20.565,-8.282,-10.618
2026-05-23 16:22:44.745,1436904201,257745,1,1.00146,0.08447,0.17334,-2.053,5.443,1.321
2026-05-23 16:22:44.745,1436904201,257745,2,0.95166,0.13745,0.26758,5.985,2.0,6.076
2026-05-23 16:22:44.945,1436904401,257945,1,0.99756,0.10864,0.2085,-8.031,-0.031,-0.947
2026-05-23 16:22:44.945,1436904401,257945,2,0.94434,0.12573,0.24121,-8.962,-1.832,0.015
2026-05-23 16:22:44.145,1436903601,258145,1,0.99854,0.0918,0.19629,-2.908,1.664,0.916
2026-05-23 16:22:44.145,1436903601,258145,2,0.95239,0.1394,0.26196,-0.626,-0.908,2.847
2026-05-23 16:22:45.345,1436904801,258345,1,0.98926,0.11377,0.2019,-6.389,0.611,-1.87
2026-05-23 16:22:45.345,1436904801,258345,2,0.95264,0.1123,0.25806,-4.214,0.962,1.282
2026-05-23 16:22:45.545,1436905001,258545,1,0.97681,0.09863,0.18994,-5.42,0.489,-1.687
2026-05-23 16:22:45.545,1436905001,258545,2,0.95435,0.13965,0.25854,-4.55,-0.313,1.916
2026-05-23 16:22:45.745,1436905201,258745,1,0.96704,0.12573,0.20239,-14.664,-6.053,-1.26
2026-05-23 16:22:45.745,1436905201,258745,2,0.94751,0.12427,0.29321,-11.252,-6.023,-3.786
2026-05-23 16:22:45.945,1436905401,258945,1,1.01709,0.1123,0.2002,4.153,3.557,0.076
2026-05-23 16:22:45.945,1436905401,258945,2,0.89795,0.11353,0.24658,-3.168,-1.344,4.015
2026-05-23 16:22:45.145,1436904601,259145,1,1.04956,0.11841,0.20239,0.779,3.031,-2.901
2026-05-23 16:22:45.145,1436904601,259145,2,0.96484,0.11597,0.20093,-0.366,1.229,-2.969
2026-05-23 16:22:46.345,1436905801,259345,1,1.04199,0.104,0.20532,4.397,3.947,1.557
2026-05-23 16:22:46.345,1436905801,259345,2,0.9707,0.15991,0.26196,2.885,1.969,-1.168
2026-05-23 16:22:46.545,1436906001,259545,1,1.00586,0.09351,0.17798,2.275,1.214,1.412
2026-05-23 16:22:46.545,1436906001,259545,2,0.948,0.1709,0.24951,-3.855,6.565,-0.756
2026-05-23 16:22:46.745,1436906201,259745,1,0.97632,0.08423,0.19751,1.382,1.122,0.977
2026-05-23 16:22:46.745,1436906201,259745,2,0.96021,0.1416,0.24463,0.29,1.672,2.977
2026-05-23 16:22:46.945,1436906401,259945,1,0.99438,0.1001,0.18555,-0.71,1.794,1.198
2026-05-23 16:22:46.945,1436906401,259945,2,0.95679,0.13818,0.2583,-0.389,0.183,3.435
2026-05-23 16:22:46.145,1436905601,260145,1,0.99951,0.08984,0.18896,-0.992,2.771,-0.023
2026-05-23 16:22:46.145,1436905601,260145,2,0.95654,0.13159,0.24805,-1.115,1.275,1.366
2026-05-23 16:22:47.345,1436906801,260345,1,0.98999,0.09741,0.20679,-2.725,0.641,-0.847
2026-05-23 16:22:47.345,1436906801,260345,2,0.95093,0.12988,0.24585,-0.588,1.847,0.954
2026-05-23 16:22:47.545,1436907001,260545,1,1.00464,0.08887,0.19946,-1.771,1.618,-1.344
2026-05-23 16:22:47.545,1436907001,260545,2,0.96094,0.13477,0.24463,-1.206,4.26,1.443
2026-05-23 16:22:47.745,1436907201,260745,1,0.9939,0.09326,0.20142,-1.809,2.519,-1.832
2026-05-23 16:22:47.745,1436907201,260745,2,0.96875,0.12915,0.25415,-0.527,0.282,3.611
2026-05-23 16:22:47.945,1436907401,260945,1,0.98755,0.1062,0.20044,1.366,2.641,5.053
2026-05-23 16:22:47.945,1436907401,260945,2,0.95898,0.10205,0.2373,3.328,0.779,5.565
2026-05-23 16:22:47.145,1436906601,261145,1,0.98389,0.08716,0.21289,-4.214,0.87,1.443
2026-05-23 16:22:47.145,1436906601,261145,2,0.96436,0.09546,0.24609,-0.786,0.313,2.328
2026-05-23 16:22:48.345,1436907801,261345,1,1.00073,0.04761,0.21729,-22.992,-2.244,-2.153
2026-05-23 16:22:48.345,1436907801,261345,2,0.94385,0.14917,0.23755,-3.053,3.031,8.443
2026-05-23 16:22:48.545,1436908001,261545,1,1.00415,0.12061,0.22876,16.0,9.458,6.26
2026-05-23 16:22:48.545,1436908001,261545,2,0.94702,-0.01611,0.21265,3.229,-0.298,2.573
2026-05-23 16:22:48.745,1436908201,261745,1,0.98193,0.05542,0.2417,-4.878,-0.802,-6.45
2026-05-23 16:22:48.745,1436908201,261745,2,0.95654,0.07153,0.2334,0.985,-1.779,3.962
2026-05-23 16:22:48.945,1436908401,261945,1,0.9751,0.09424,0.23315,0.412,0.84,0.252
2026-05-23 16:22:48.945,1436908401,261945,2,0.95166,0.04077,0.21997,-1.176,1.771,1.595
2026-05-23 16:22:48.145,1436907601,262145,1,0.98071,0.09546,0.24097,-2.443,-1.221,-0.679
2026-05-23 16:22:48.145,1436907601,262145,2,0.95142,0.06421,0.22559,-0.435,0.244,-0.214
2026-05-23 16:22:49.345,1436908801,262345,1,0.9812,0.09009,0.229,-0.374,0.916,0.176
2026-05-23 16:22:49.345,1436908801,262345,2,0.95825,0.05884,0.22974,-0.809,1.611,0.221
2026-05-23 16:22:49.545,1436909001,262545,1,0.98584,0.08301,0.22778,-1.183,0.344,0.611
2026-05-23 16:22:49.545,1436909001,262545,2,0.9502,0.06689,0.23218,-0.634,0.802,-0.031
2026-05-23 16:22:49.745,1436909201,262745,1,0.98193,0.08936,0.23608,-1.916,0.29,-0.603
2026-05-23 16:22:49.745,1436909201,262745,2,0.95337,0.0708,0.21631,-1.573,-0.244,-0.244
2026-05-23 16:22:49.945,1436909401,262945,1,0.97705,0.08008,0.23267,-2.962,0.702,0.924
2026-05-23 16:22:49.945,1436909401,262945,2,0.94604,0.08179,0.2251,-3.099,0.55,0.45
2026-05-23 16:22:49.145,1436908601,263145,1,0.98169,0.08447,0.24927,-2.924,-1.13,-1.863
2026-05-23 16:22:49.145,1436908601,263145,2,0.93457,0.08301,0.22925,-2.603,1.053,-1.221
2026-05-23 16:22:50.345,1436909801,263345,1,0.99316,0.10522,0.23096,0.763,0.527,-2.962
2026-05-23 16:22:50.345,1436909801,263345,2,0.94775,0.09155,0.24878,-3.321,4.786,-0.084
2026-05-23 16:22:50.545,1436910001,263545,1,0.99023,0.11133,0.2229,-2.847,-3.74,-0.924
2026-05-23 16:22:50.545,1436910001,263545,2,0.94702,0.09546,0.23438,-1.779,1.847,-3.679
2026-05-23 16:22:50.745,1436910201,263745,1,1.00464,0.11523,0.21313,-5.969,-4.748,-1.519
2026-05-23 16:22:50.745,1436910201,263745,2,0.92993,0.11816,0.24048,-5.107,2.443,-2.748
2026-05-23 16:22:50.945,1436910401,263945,1,1.00781,0.11353,0.19019,2.802,2.397,0.221
2026-05-23 16:22:50.945,1436910401,263945,2,0.9375,0.11646,0.28076,1.099,3.351,4.046
2026-05-23 16:22:50.145,1436909601,264145,1,1.05518,0.13794,0.09448,16.305,28.13,1.099
2026-05-23 16:22:50.145,1436909601,264145,2,0.97119,0.06177,0.22021,24.84,-19.481,11.519
2026-05-23 16:22:51.345,1436910801,264345,1,0.92041,0.16553,0.29688,-13.046,7.641,-6.405
2026-05-23 16:22:51.345,1436910801,264345,2,0.93091,0.05591,0.05151,6.435,-15.008,4.397
2026-05-23 16:22:51.545,1436911001,264545,1,0.97974,0.15601,0.24609,14.435,19.702,-4.626
2026-05-23 16:22:51.545,1436911001,264545,2,0.91675,0.04028,0.1499,9.695,-19.611,12.435
2026-05-23 16:22:51.745,1436911201,264745,1,1.02026,0.14429,0.34521,-40.198,44.519,-5.153
2026-05-23 16:22:51.745,1436911201,264745,2,0.96167,0.06543,0.0957,-18.366,-42.489,-0.107
2026-05-23 16:22:51.945,1436911401,264945,1,0.83618,0.0708,0.76294,-14.542,37.214,0.863
2026-05-23 16:22:51.945,1436911401,264945,2,0.74487,-0.02026,-0.18848,-3.542,1.763,-6.489
2026-05-23 16:22:51.174,1436910630,265174,1,0.68579,0.07373,0.6731,-5.573,-12.496,3.542
2026-05-23 16:22:51.174,1436910630,265174,2,0.82959,0.0144,-0.17944,-14.969,9.939,-6.58
2026-05-23 16:22:52.374,1436911830,265374,1,0.67822,-0.00586,0.49219,-9.687,-38.992,-1.679
2026-05-23 16:22:52.374,1436911830,265374,2,0.71265,0.08667,0.04419,-24.252,31.695,-2.298
2026-05-23 16:22:52.574,1436912030,265574,1,0.78027,0.00415,0.33765,-0.397,-57.26,-8.779
2026-05-23 16:22:52.574,1436912030,265574,2,0.74951,0.18677,0.04614,10.061,38.282,-11.038
2026-05-23 16:22:52.774,1436912230,265774,1,0.92896,-0.00024,0.09009,19.038,-50.718,1.718
2026-05-23 16:22:52.774,1436912230,265774,2,0.91846,0.17529,0.23608,22.496,55.672,-4.992
2026-05-23 16:22:52.974,1436912430,265974,1,1.08838,0.1145,-0.00732,11.542,-7.435,3.71
2026-05-23 16:22:52.974,1436912430,265974,2,1.02637,0.18994,0.25439,44.374,34.13,-5.198
2026-05-23 16:22:52.174,1436911630,266174,1,1.07349,0.1394,-0.13232,-45.237,-15.168,-0.611
2026-05-23 16:22:52.174,1436911630,266174,2,0.92603,0.2312,0.20605,11.466,29.145,7.038
2026-05-23 16:22:53.374,1436912830,266374,1,1.04541,0.05322,0.01538,0.74,20.824,0.924
2026-05-23 16:22:53.374,1436912830,266374,2,1.03247,0.22144,0.33325,16.702,27.893,3.611
2026-05-23 16:22:53.574,1436913030,266574,1,1.07227,0.07593,0.08496,13.267,10.084,0.679
2026-05-23 16:22:53.574,1436913030,266574,2,0.98096,0.24072,0.30542,12.496,35.069,1.145
2026-05-23 16:22:53.774,1436913230,266774,1,1.09302,0.09253,0.01929,9.832,0.374,-0.878
2026-05-23 16:22:53.774,1436913230,266774,2,1.01758,0.23242,0.35181,1.634,30.298,-0.115
2026-05-23 16:22:53.974,1436913430,266974,1,1.07593,0.0813,0.02222,-10.031,0.504,-1.656
2026-05-23 16:22:53.974,1436913430,266974,2,0.9646,0.20483,0.3335,-2.313,-4.443,3.359
2026-05-23 16:22:53.174,1436912630,267174,1,1.03467,0.08667,0.03296,-3.031,-0.321,-0.588
2026-05-23 16:22:53.174,1436912630,267174,2,0.92236,0.20239,0.32715,1.519,-11.137,2.298
2026-05-23 16:22:54.374,1436913830,267374,1,1.02417,0.09937,0.05713,-12.366,2.519,3.649
2026-05-23 16:22:54.374,1436913830,267374,2,0.89453,0.19409,0.31543,-13.756,-4.26,7.931
2026-05-23 16:22:54.574,1436914030,267574,1,1.05298,0.12988,0.05737,-13.481,3.718,3.534
2026-05-23 16:22:54.574,1436914030,267574,2,0.9668,0.20459,0.31226,-4.405,10.115,0.542
2026-05-23 16:22:54.774,1436914230,267774,1,1.02441,0.14502,0.03687,-26.656,8.626,1.679
2026-05-23 16:22:54.774,1436914230,267774,2,0.97998,0.2063,0.34912,-5.473,11.374,-0.107
2026-05-23 16:22:54.974,1436914430,267974,1,1.03247,0.0979,0.04346,-17.779,6.45,3.389
2026-05-23 16:22:54.974,1436914430,267974,2,0.92285,0.17896,0.30762,1.023,10.412,-1.229
2026-05-23 16:22:54.174,1436913630,268174,1,1.04199,0.07813,-0.00342,2.802,3.786,4.733
2026-05-23 16:22:54.174,1436913630,268174,2,0.96387,0.20068,0.33984,0.725,2.115,-2.557
2026-05-23 16:22:55.374,1436914830,268374,1,1.0188,0.08398,0.03662,-16.916,-2.198,3.275
2026-05-23 16:22:55.374,1436914830,268374,2,0.88818,0.21826,0.35156,-16.802,1.901,5.832
2026-05-23 16:22:55.574,1436915030,268574,1,1.06445,0.08374,0.02881,0.763,-3.0,-2.198
2026-05-23 16:22:55.574,1436915030,268574,2,0.98267,0.21899,0.35522,7.313,-13.336,3.84
2026-05-23 16:22:55.774,1436915230,268774,1,1.05151,0.08618,-0.00366,0.748,-2.374,-1.183
2026-05-23 16:22:55.774,1436915230,268774,2,0.95557,0.17285,0.34155,-2.687,6.924,3.626
2026-05-23 16:22:55.974,1436915430,268974,1,1.05908,0.09888,0.01953,-9.824,3.237,-4.954
2026-05-23 16:22:55.974,1436915430,268974,2,0.96045,0.18701,0.34814,-5.374,2.221,-0.977
2026-05-23 16:22:55.174,1436914630,269174,1,1.03784,0.09912,0.01929,0.496,-4.618,-5.55
2026-05-23 16:22:55.174,1436914630,269174,2,0.96924,0.16821,0.34717,-11.702,14.527,6.931
2026-05-23 16:22:56.374,1436915830,269374,1,1.08496,0.17236,-0.03833,10.748,7.542,2.244
2026-05-23 16:22:56.374,1436915830,269374,2,0.91577,0.21729,0.38037,3.794,-17.053,0.008
2026-05-23 16:22:56.574,1436916030,269574,1,1.02563,0.06494,0.05811,8.351,6.26,5.832
2026-05-23 16:22:56.574,1436916030,269574,2,0.94727,0.21606,0.38135,21.412,1.023,4.809
2026-05-23 16:22:56.774,1436916230,269774,1,1.07837,0.06616,0.00366,-1.061,-5.527,2.466
2026-05-23 16:22:56.774,1436916230,269774,2,0.96606,0.18579,0.36963,-3.466,1.435,-0.122
2026-05-23 16:22:56.974,1436916430,269974,1,1.05176,0.09766,0.02783,-6.832,2.656,-1.107
2026-05-23 16:22:56.974,1436916430,269974,2,0.9541,0.18848,0.37354,-7.802,0.557,-0.802
2026-05-23 16:22:56.174,1436915630,270174,1,1.05298,0.06689,0.0249,-18.176,2.176,-5.725
2026-05-23 16:22:56.174,1436915630,270174,2,0.92822,0.19849,0.34692,4.168,5.176,2.244
2026-05-23 16:22:57.374,1436916830,270374,1,1.0542,0.09644,0.02417,-1.534,-3.031,-1.74
2026-05-23 16:22:57.374,1436916830,270374,2,0.96094,0.1875,0.37598,-1.901,-2.916,1.71
2026-05-23 16:22:57.574,1436917030,270574,1,1.04712,0.10132,0.03052,-10.397,-0.985,-2.573
2026-05-23 16:22:57.574,1436917030,270574,2,0.96362,0.19482,0.35913,-8.687,-2.061,0.267
2026-05-23 16:22:57.774,1436917230,270774,1,1.05664,0.08252,0.0188,-3.901,-1.427,0.481
2026-05-23 16:22:57.774,1436917230,270774,2,0.96216,0.21045,0.36914,5.313,0.031,0.412
2026-05-23 16:22:57.974,1436917430,270974,1,1.05078,0.0957,0.02954,6.305,2.069,1.733
2026-05-23 16:22:57.974,1436917430,270974,2,0.94873,0.19409,0.36279,1.13,2.893,4.0
2026-05-23 16:22:57.174,1436916630,271174,1,1.05347,0.0979,0.01807,-2.092,-0.13,-0.427
2026-05-23 16:22:57.174,1436916630,271174,2,0.9502,0.19751,0.35742,-0.809,-2.679,1.458
2026-05-23 16:22:58.374,1436917830,271374,1,1.05859,0.07935,0.02148,-2.519,-2.13,-0.58
2026-05-23 16:22:58.374,1436917830,271374,2,0.95947,0.19995,0.35742,-3.687,2.802,1.634
2026-05-23 16:22:58.574,1436918030,271574,1,1.05835,0.08398,0.01855,-9.695,15.863,-3.885
2026-05-23 16:22:58.574,1436918030,271574,2,0.93018,0.19556,0.37354,6.656,-10.573,4.053
2026-05-23 16:22:58.774,1436918230,271774,1,1.04907,0.10376,0.04248,-2.069,1.435,0.099
2026-05-23 16:22:58.774,1436918230,271774,2,0.94922,0.20703,0.34888,1.87,0.489,0.687
2026-05-23 16:22:58.974,1436918430,271974,1,1.02905,0.09009,0.01929,-13.282,-1.046,-0.427
2026-05-23 16:22:58.974,1436918430,271974,2,0.96265,0.19946,0.37231,-7.237,-0.656,3.405
2026-05-23 16:22:58.174,1436917630,272174,1,1.06445,0.08374,0.00464,4.794,5.084,3.305
2026-05-23 16:22:58.174,1436917630,272174,2,0.94995,0.1814,0.3374,6.481,-0.863,4.595
2026-05-23 16:22:59.374,1436918830,272374,1,1.0498,0.09766,0.06152,14.435,6.641,0.275
2026-05-23 16:22:59.374,1436918830,272374,2,0.98511,0.18848,0.36963,3.115,-2.061,-0.198
2026-05-23 16:22:59.574,1436919030,272574,1,1.00928,0.08081,0.11572,-17.87,3.718,-3.237
2026-05-23 16:22:59.574,1436919030,272574,2,0.95093,0.20532,0.3208,-5.656,3.336,-2.565
2026-05-23 16:22:59.774,1436919230,272774,1,1.0625,0.07471,0.04541,-8.244,0.053,-0.725
2026-05-23 16:22:59.774,1436919230,272774,2,0.95825,0.20581,0.33667,1.374,-1.26,4.336
2026-05-23 16:22:59.974,1436919430,272974,1,1.02319,0.23071,0.0686,-13.985,-1.878,-1.176
2026-05-23 16:22:59.974,1436919430,272974,2,0.96313,0.28149,0.34863,-23.198,9.191,-35.046
2026-05-23 16:22:59.174,1436918630,273174,1,1.05225,0.01563,0.02246,16.786,0.321,11.641
2026-05-23 16:22:59.174,1436918630,273174,2,0.94336,0.22656,0.32495,-6.427,-1.809,13.962
2026-05-23 16:23:00.374,1436919830,273374,1,1.04077,0.02124,-0.08179,-4.55,18.786,2.901
2026-05-23 16:23:00.374,1436919830,273374,2,0.8877,0.21851,0.30762,-18.969,-7.832,30.115
2026-05-23 16:23:00.574,1436920030,273574,1,0.7522,0.14258,0.14697,19.0,98.122,-6.305
2026-05-23 16:23:00.574,1436920030,273574,2,0.77441,0.17822,0.05347,-11.382,-96.084,10.481
2026-05-23 16:23:00.774,1436920230,273774,1,0.77197,0.11719,0.53638,-19.443,29.107,-12.115
2026-05-23 16:23:00.774,1436920230,273774,2,0.73193,0.08252,-0.14526,-19.42,-51.947,-13.763
2026-05-23 16:23:00.974,1436920430,273974,1,0.78418,0.09766,0.83716,2.733,-3.511,-6.718
2026-05-23 16:23:00.974,1436920430,273974,2,0.73145,0.22046,-0.28149,15.725,8.206,2.466
2026-05-23 16:23:00.174,1436919630,274174,1,0.97998,0.13452,0.49585,-0.908,-22.847,2.008
2026-05-23 16:23:00.174,1436919630,274174,2,0.86548,0.25757,-0.08423,-25.664,60.244,4.282
2026-05-23 16:23:01.374,1436920830,274374,1,0.94092,0.12354,0.39819,38.198,-29.168,20.71
2026-05-23 16:23:01.374,1436920830,274374,2,0.82373,0.198,-0.0625,30.321,25.069,-2.061
2026-05-23 16:23:01.647,1436921103,274647,1,1.1023,0.1333,0.1167,22.099,-11.267,23.664
2026-05-23 16:23:01.647,1436921103,274647,2,0.98389,0.17871,0.24854,15.183,33.267,10.656
2026-05-23 16:23:01.847,1436921303,274847,1,1.02271,0.052,0.14087,-16.29,-19.794,3.282
2026-05-23 16:23:01.847,1436921303,274847,2,0.92676,0.17041,0.24976,-6.611,8.809,-5.855
2026-05-23 16:23:01.047,1436920503,275047,1,1.05469,0.08179,0.07568,-8.588,-4.153,-3.763
2026-05-23 16:23:01.047,1436920503,275047,2,0.91602,0.19531,0.2771,-7.153,0.779,0.397
2026-05-23 16:23:01.247,1436920703,275247,1,1.03564,0.09229,0.14429,25.992,10.351,0.344
2026-05-23 16:23:01.247,1436920703,275247,2,0.91895,0.22363,0.28735,13.939,5.824,13.588
2026-05-23 16:23:02.447,1436921903,275447,1,1.01196,0.10278,0.13257,-10.046,-2.786,-6.718
2026-05-23 16:23:02.447,1436921903,275447,2,0.94263,0.17163,0.29126,-15.153,-1.473,-8.725
2026-05-23 16:23:02.647,1436922103,275647,1,1.0564,0.08765,0.1062,-20.237,-2.191,-4.015
2026-05-23 16:23:02.647,1436922103,275647,2,0.93823,0.24609,0.30811,-6.305,4.168,-4.908
2026-05-23 16:23:02.847,1436922303,275847,1,1.0332,0.05347,0.11572,-13.779,7.0,8.176
2026-05-23 16:23:02.847,1436922303,275847,2,0.93359,0.21973,0.30127,3.916,2.74,7.924
2026-05-23 16:23:02.047,1436921503,276047,1,1.02881,0.05347,0.14185,-6.496,-4.29,-2.939
2026-05-23 16:23:02.047,1436921503,276047,2,0.94995,0.20532,0.33179,-6.458,1.985,-1.26
2026-05-23 16:23:02.247,1436921703,276247,1,1.02612,0.0708,0.12305,1.656,2.863,-2.145
2026-05-23 16:23:02.247,1436921703,276247,2,0.95361,0.23462,0.33057,-0.13,3.542,-0.443
2026-05-23 16:23:03.447,1436922903,276447,1,1.03442,0.05786,0.12573,-1.672,-0.198,1.038
2026-05-23 16:23:03.447,1436922903,276447,2,0.94141,0.24121,0.30688,-0.183,0.038,0.573
2026-05-23 16:23:03.647,1436923103,276647,1,1.02441,0.05859,0.1377,-1.626,0.878,0.45
2026-05-23 16:23:03.647,1436923103,276647,2,0.93579,0.23291,0.32153,-1.511,1.038,0.954
2026-05-23 16:23:03.847,1436923303,276847,1,1.02124,0.05664,0.13867,-0.557,0.573,-0.519
2026-05-23 16:23:03.847,1436923303,276847,2,0.9458,0.23267,0.32031,-0.786,0.092,1.489
2026-05-23 16:23:03.047,1436922503,277047,1,1.01636,0.05298,0.13989,-3.489,-0.267,-1.267
2026-05-23 16:23:03.047,1436922503,277047,2,0.94751,0.23535,0.3208,-2.328,1.664,1.939
2026-05-23 16:23:03.247,1436922703,277247,1,1.02271,0.07227,0.13379,-1.985,0.695,-0.809
2026-05-23 16:23:03.247,1436922703,277247,2,0.94189,0.22778,0.32227,-1.16,0.359,1.359
2026-05-23 16:23:04.447,1436923903,277447,1,1.01465,0.07373,0.13208,-0.725,1.321,-1.145
2026-05-23 16:23:04.447,1436923903,277447,2,0.94897,0.2251,0.32397,-0.374,0.962,1.359
2026-05-23 16:23:04.647,1436924103,277647,1,1.02588,0.07935,0.14429,-7.374,-4.298,-7.832
2026-05-23 16:23:04.647,1436924103,277647,2,0.92236,0.2439,0.33032,-10.817,0.237,-5.305
2026-05-23 16:23:04.847,1436924303,277847,1,1.02368,0.08594,0.13306,-1.916,2.504,-0.397
2026-05-23 16:23:04.847,1436924303,277847,2,0.93335,0.25537,0.32495,0.366,-0.305,3.656
2026-05-23 16:23:04.047,1436923503,278047,1,1.02026,0.09326,0.14282,-2.092,0.672,-0.061
2026-05-23 16:23:04.047,1436923503,278047,2,0.9458,0.24976,0.33154,0.198,-0.023,2.282
2026-05-23 16:23:04.247,1436923703,278247,1,0.99951,0.09888,0.14697,-1.305,0.405,-1.672
2026-05-23 16:23:04.247,1436923703,278247,2,0.93677,0.24365,0.31787,1.046,-2.237,3.023
2026-05-23 16:23:05.447,1436924903,278447,1,1.01294,0.10107,0.13892,0.29,1.55,-0.924
2026-05-23 16:23:05.447,1436924903,278447,2,0.95337,0.22778,0.31226,1.771,0.26,3.076
2026-05-23 16:23:05.647,1436925103,278647,1,0.9978,0.10742,0.13062,-1.847,-0.656,-0.099
2026-05-23 16:23:05.647,1436925103,278647,2,0.94116,0.23682,0.31177,2.786,0.305,2.473
2026-05-23 16:23:05.847,1436925303,278847,1,1.01831,0.12085,0.13452,-1.275,0.221,0.962
2026-05-23 16:23:05.847,1436925303,278847,2,0.92065,0.1897,0.2771,0.817,-2.298,4.664
2026-05-23 16:23:05.047,1436924503,279047,1,1.04395,0.11401,0.15088,-0.366,2.397,0.412
2026-05-23 16:23:05.047,1436924503,279047,2,0.96509,0.22388,0.29883,-1.16,2.504,-1.321
2026-05-23 16:23:05.247,1436924703,279247,1,1.01685,0.10059,0.14551,-1.481,-0.321,1.84
2026-05-23 16:23:05.247,1436924703,279247,2,0.94995,0.23242,0.29346,-1.275,0.847,1.641
2026-05-23 16:23:06.447,1436925903,279447,1,0.99731,0.09253,0.15308,-1.527,0.321,0.595
2026-05-23 16:23:06.447,1436925903,279447,2,0.93237,0.22437,0.31543,-1.916,1.45,-1.092
2026-05-23 16:23:06.647,1436926103,279647,1,1.01294,0.0874,0.14917,-2.191,0.847,0.42
2026-05-23 16:23:06.647,1436926103,279647,2,0.94873,0.22559,0.31885,-1.191,0.397,1.74
2026-05-23 16:23:06.847,1436926303,279847,1,1.02026,0.08667,0.14478,-1.962,-0.099,0.122
2026-05-23 16:23:06.847,1436926303,279847,2,0.94409,0.22974,0.30786,-0.13,1.053,1.45
2026-05-23 16:23:06.074,1436925530,280074,1,1.02246,0.09082,0.15381,-0.382,0.405,-0.366
2026-05-23 16:23:06.074,1436925530,280074,2,0.93945,0.23462,0.30737,0.153,1.534,1.305
2026-05-23 16:23:07.274,1436926730,280274,1,1.00415,0.0918,0.15552,4.092,3.122,1.069
2026-05-23 16:23:07.274,1436926730,280274,2,0.95093,0.20996,0.30469,6.16,0.282,5.74
2026-05-23 16:23:07.474,1436926930,280474,1,1.0105,0.10571,0.16382,0.901,2.962,0.55
2026-05-23 16:23:07.474,1436926930,280474,2,0.94067,0.20923,0.30298,,-0.786,1.931
2026-05-23 16:23:07.674,1436927130,280674,1,1.01465,0.09155,0.17554,-0.092,1.145,-0.053
2026-05-23 16:23:07.674,1436927130,280674,2,0.9397,0.19849,0.2876,1.519,-1.504,2.069
2026-05-23 16:23:07.874,1436927330,280874,1,1.00806,0.09473,0.17847,-3.427,-0.183,-0.58
2026-05-23 16:23:07.874,1436927330,280874,2,0.93872,0.21533,0.29395,0.198,0.298,1.344
2026-05-23 16:23:07.074,1436926530,281074,1,1.00732,0.09619,0.16675,-2.496,-1.947,-2.221
2026-05-23 16:23:07.074,1436926530,281074,2,0.9502,0.20337,0.2959,-1.115,2.099,0.298
2026-05-23 16:23:08.274,1436927730,281274,1,1.0144,0.09595,0.16821,-0.916,-2.008,-0.756
2026-05-23 16:23:08.274,1436927730,281274,2,0.94653,0.20142,0.28369,0.565,0.893,2.466
2026-05-23 16:23:08.474,1436927930,281474,1,1.00952,0.10767,0.16992,-4.038,0.725,-0.069
2026-05-23 16:23:08.474,1436927930,281474,2,0.94336,0.20361,0.29053,-2.847,2.099,0.649
2026-05-23 16:23:08.674,1436928130,281674,1,1.00879,0.10229,0.16602,-5.847,-0.809,-0.55
2026-05-23 16:23:08.674,1436928130,281674,2,0.94043,0.22119,0.29492,-1.397,2.511,0.282
2026-05-23 16:23:08.874,1436928330,281874,1,1.00732,0.09985,0.1582,-1.641,1.763,0.305
2026-05-23 16:23:08.874,1436928330,281874,2,0.93896,0.21558,0.2981,-1.008,1.573,1.344
2026-05-23 16:23:08.074,1436927530,282074,1,1.00342,0.0979,0.15942,-2.679,-0.931,0.725
2026-05-23 16:23:08.074,1436927530,282074,2,0.93945,0.21191,0.30957,0.023,-1.656,1.145
2026-05-23 16:23:09.274,1436928730,282274,1,1.01904,0.09399,0.146,-8.0,-0.855,-1.817
2026-05-23 16:23:09.274,1436928730,282274,2,0.93945,0.22656,0.30029,-3.718,1.191,-0.756
2026-05-23 16:23:09.474,1436928930,282474,1,1.01343,0.09033,0.16675,-2.122,2.099,-0.794
2026-05-23 16:23:09.474,1436928930,282474,2,0.94971,0.23315,0.29077,-3.389,0.374,2.328
2026-05-23 16:23:09.674,1436929130,282674,1,1.00708,0.09277,0.16357,-1.634,0.183,-0.092
2026-05-23 16:23:09.674,1436929130,282674,2,0.9436,0.21484,0.29712,-0.863,1.771,2.611
2026-05-23 16:23:09.874,1436929330,282874,1,1.01099,0.10352,0.16187,-1.168,0.26,-0.908
2026-05-23 16:23:09.874,1436929330,282874,2,0.94141,0.22412,0.28369,-1.649,1.221,1.847
2026-05-23 16:23:09.074,1436928530,283074,1,1.01074,0.09155,0.16528,-1.756,0.374,-0.115
2026-05-23 16:23:09.074,1436928530,283074,2,0.94751,0.21387,0.29761,-0.053,1.344,1.748
2026-05-23 16:23:10.274,1436929730,283274,1,1.01196,0.10083,0.16528,-1.573,0.038,-0.053
2026-05-23 16:23:10.274,1436929730,283274,2,0.93237,0.21289,0.30127,-1.534,0.786,1.511
2026-05-23 16:23:10.474,1436929930,283474,1,1.01416,0.104,0.15161,-2.092,0.313,-0.115
2026-05-23 16:23:10.474,1436929930,283474,2,0.94189,0.22363,0.30225,-1.527,1.313,1.847
2026-05-23 16:23:10.674,1436930130,283674,1,1.01245,0.10034,0.15186,-1.328,0.687,-0.366
2026-05-23 16:23:10.674,1436930130,283674,2,0.9458,0.21289,0.30469,0.275,-0.74,2.626
2026-05-23 16:23:10.874,1436930330,283874,1,1.04053,0.09814,0.06763,-9.473,13.481,-2.282
2026-05-23 16:23:10.874,1436930330,283874,2,0.96826,0.19775,0.31738,2.389,-12.649,3.626
2026-05-23 16:23:10.074,1436929530,284074,1,1.05591,0.07373,0.08325,-11.931,39.863,-8.183
2026-05-23 16:23:10.074,1436929530,284074,2,1.00684,0.20752,0.23364,5.16,-56.137,18.198
2026-05-23 16:23:11.274,1436930730,284274,1,0.94556,0.07202,0.46069,1.214,66.87,-5.519
2026-05-23 16:23:11.274,1436930730,284274,2,1.01807,0.11768,-0.11108,0.008,-62.573,1.267
2026-05-23 16:23:11.474,1436930930,284474,1,0.68896,0.14868,0.78052,-4.137,36.748,-12.298
2026-05-23 16:23:11.474,1436930930,284474,2,0.67236,0.07495,-0.30322,12.885,-22.779,0.183
2026-05-23 16:23:11.674,1436931130,284674,1,0.62598,0.09082,0.72852,-14.145,-12.55,1.863
2026-05-23 16:23:11.674,1436931130,284674,2,0.66455,0.10498,-0.23535,-14.672,16.824,2.908
2026-05-23 16:23:11.874,1436931330,284874,1,0.65747,0.08984,0.57446,1.908,-49.687,0.534
2026-05-23 16:23:11.874,1436931330,284874,2,0.66431,0.10522,-0.09009,-27.763,36.817,7.534
2026-05-23 16:23:11.074,1436930530,285074,1,0.74414,0.08984,0.29883,7.489,-70.115,8.069
2026-05-23 16:23:11.074,1436930530,285074,2,0.78589,0.08813,0.01709,-12.458,37.298,0.504
2026-05-23 16:23:12.274,1436931730,285274,1,1.10132,0.04248,0.0708,-46.221,-47.794,-21.473
2026-05-23 16:23:12.274,1436931730,285274,2,0.97852,0.21021,0.11475,-1.763,28.786,-26.824
2026-05-23 16:23:12.474,1436931930,285474,1,1.04663,0.07715,-0.03369,-0.939,-8.863,5.649
2026-05-23 16:23:12.474,1436931930,285474,2,0.93213,0.24951,0.19507,43.427,2.084,0.107
2026-05-23 16:23:12.674,1436932130,285674,1,1.03979,0.03906,0.01099,52.756,5.641,22.824
2026-05-23 16:23:12.674,1436932130,285674,2,1.00928,0.18652,0.29736,18.87,30.099,11.771
2026-05-23 16:23:12.874,1436932330,285874,1,1.05054,0.11621,-0.01685,-9.275,-2.29,-0.817
2026-05-23 16:23:12.874,1436932330,285874,2,0.93091,0.15112,0.27246,-19.344,8.405,-0.458
2026-05-23 16:23:12.074,1436931530,286074,1,1.03467,0.09521,0.00806,-23.519,-4.214,-2.794
2026-05-23 16:23:12.074,1436931530,286074,2,0.94336,0.21216,0.32935,-21.992,0.763,0.397
2026-05-23 16:23:13.274,1436932730,286274,1,1.0376,0.06104,0.02344,-1.412,-0.328,1.328
2026-05-23 16:23:13.274,1436932730,286274,2,0.95972,0.2146,0.32544,0.031,-0.122,-0.359
2026-05-23 16:23:13.474,1436932930,286474,1,1.07373,0.08398,0.00171,11.061,3.42,0.053
2026-05-23 16:23:13.474,1436932930,286474,2,0.94922,0.19702,0.3042,4.183,9.809,4.901
2026-05-23 16:23:13.674,1436933130,286674,1,1.05933,0.0957,-0.01465,-2.168,3.344,0.931
2026-05-23 16:23:13.674,1436933130,286674,2,0.927,0.21533,0.3335,5.733,-0.504,1.015
2026-05-23 16:23:13.874,1436933330,286874,1,1.04932,0.06836,0.01147,0.802,3.481,1.305
2026-05-23 16:23:13.874,1436933330,286874,2,0.9458,0.18945,0.34009,9.748,3.237,2.786
2026-05-23 16:23:13.074,1436932530,287074,1,1.03711,0.09912,0.03247,-4.748,0.038,-0.908
2026-05-23 16:23:13.074,1436932530,287074,2,0.96338,0.18237,0.30493,0.924,-1.435,-1.611
2026-05-23 16:23:14.274,1436933730,287274,1,1.05713,0.07983,0.00269,-3.328,-1.504,-0.244
2026-05-23 16:23:14.274,1436933730,287274,2,0.9519,0.17334,0.32104,-1.634,-1.924,2.908
2026-05-23 16:23:14.474,1436933930,287474,1,1.03931,0.10132,0.01733,-4.099,-0.908,-1.908
2026-05-23 16:23:14.474,1436933930,287474,2,0.98413,0.16284,0.3252,1.053,5.229,2.366
2026-05-23 16:23:14.674,1436934130,287674,1,1.04443,0.09912,0.0332,-1.382,-3.794,-3.527
2026-05-23 16:23:14.674,1436934130,287674,2,0.91211,0.19653,0.33521,0.176,-3.359,-3.725
2026-05-23 16:23:14.874,1436934330,287874,1,1.03662,0.10449,0.05371,-0.366,1.748,-2.565
2026-05-23 16:23:14.874,1436934330,287874,2,0.98169,0.18677,0.31372,0.595,12.008,4.198
2026-05-23 16:23:14.074,1436933530,288074,1,1.05688,0.09912,0.03687,8.863,-1.489,2.0
2026-05-23 16:23:14.074,1436933530,288074,2,0.93652,0.17017,0.35474,-14.748,-12.641,0.763
2026-05-23 16:23:15.274,1436934730,288274,1,1.04907,0.10596,0.03076,-0.405,4.008,-0.557
2026-05-23 16:23:15.274,1436934730,288274,2,0.98096,0.17944,0.33105,13.878,13.634,2.252
2026-05-23 16:23:15.474,1436934930,288474,1,1.02734,0.10693,0.06055,4.992,-8.878,0.756
2026-05-23 16:23:15.474,1436934930,288474,2,0.93652,0.16724,0.28931,2.359,-5.267,-2.0
2026-05-23 16:23:15.674,1436935130,288674,1,1.04346,0.09644,0.04297,-4.374,-0.634,-0.412
2026-05-23 16:23:15.674,1436935130,288674,2,0.97778,0.17407,0.34375,3.763,10.351,2.069
2026-05-23 16:23:15.874,1436935330,288874,1,1.03296,0.1062,0.05444,1.977,-8.466,-2.015
2026-05-23 16:23:15.874,1436935330,288874,2,0.95459,0.17188,0.30981,-4.275,-1.763,-1.244
2026-05-23 16:23:15.074,1436934530,289074,1,1.05347,0.10889,0.04004,-9.099,-1.275,1.794
2026-05-23 16:23:15.074,1436934530,289074,2,0.95557,0.17993,0.32544,-3.214,-1.168,0.74
2026-05-23 16:23:16.274,1436935730,289274,1,1.06812,0.08203,0.01636,1.092,2.244,-0.183
2026-05-23 16:23:16.274,1436935730,289274,2,0.95923,0.18213,0.34082,4.336,1.771,0.947
2026-05-23 16:23:16.474,1436935930,289474,1,1.0459,0.09912,0.03589,0.702,2.542,0.229
2026-05-23 16:23:16.474,1436935930,289474,2,0.95361,0.17285,0.33203,4.13,0.374,1.214
2026-05-23 16:23:16.674,1436936130,289674,1,1.05493,0.09814,0.05347,-2.824,-0.061,0.145
2026-05-23 16:23:16.674,1436936130,289674,2,0.9541,0.18677,0.32617,-6.534,-0.229,-2.191
2026-05-23 16:23:16.874,1436936330,289874,1,1.04297,0.08594,0.04443,-3.389,0.969,-0.053
2026-05-23 16:23:16.874,1436936330,289874,2,0.95239,0.19312,0.33276,-2.137,2.092,1.87
2026-05-23 16:23:16.074,1436935530,290074,1,1.03906,0.09473,0.04492,0.153,0.634,0.878
2026-05-23 16:23:16.074,1436935530,290074,2,0.96582,0.17358,0.32642,7.481,3.107,2.542
2026-05-23 16:23:17.276,1436936732,290276,1,1.03687,0.0979,0.04565,2.794,2.817,1.061
2026-05-23 16:23:17.276,1436936732,290276,2,0.95679,0.17285,0.33569,1.534,0.779,2.481
2026-05-23 16:23:17.476,1436936932,290476,1,1.0376,0.10498,0.04907,-4.168,-0.267,-2.015
2026-05-23 16:23:17.476,1436936932,290476,2,0.94336,0.18945,0.31909,-1.931,2.206,3.183
2026-05-23 16:23:19.189,1436938645,293189,1,1.04297,0.10059,0.07593,0.275,-1.863,0.779
2026-05-23 16:23:19.189,1436938645,293189,2,0.94995,0.18237,0.34229,-2.824,1.023,5.252
2026-05-23 16:23:20.389,1436939845,293389,1,1.03052,0.08594,0.06055,-3.031,-1.038,-0.336
2026-05-23 16:23:20.389,1436939845,293389,2,0.95703,0.17554,0.33643,-3.397,2.168,1.45
2026-05-23 16:23:20.589,1436940045,293589,1,1.04492,0.09546,0.04712,-1.008,-1.565,-2.183
2026-05-23 16:23:20.589,1436940045,293589,2,0.95947,0.177,0.34473,-0.099,-0.099,2.084
2026-05-23 16:23:20.789,1436940245,293789,1,1.04004,0.10474,0.0603,-5.252,-1.748,-1.481
2026-05-23 16:23:20.789,1436940245,293789,2,0.95093,0.18335,0.31787,-6.634,0.473,0.71
2026-05-23 16:23:20.989,1436940445,293989,1,1.11182,0.11743,0.01831,0.954,3.908,0.13
2026-05-23 16:23:20.989,1436940445,293989,2,0.98926,0.14233,0.26978,2.015,-16.931,5.374
2026-05-23 16:23:20.189,1436939645,294189,1,0.83643,0.07349,-0.13843,-2.954,47.053,-0.214
2026-05-23 16:23:20.189,1436939645,294189,2,0.78345,0.07837,0.21533,6.634,-49.282,20.634
2026-05-23 16:23:21.389,1436940845,294389,1,0.83472,0.0498,0.33887,-10.977,59.015,-1.229
2026-05-23 16:23:21.389,1436940845,294389,2,0.90967,0.07666,0.0376,-37.939,-70.863,20.267
2026-05-23 16:23:21.589,1436941045,294589,1,0.79468,0.18262,0.66846,20.084,24.137,-8.046
2026-05-23 16:23:21.589,1436941045,294589,2,0.71289,-0.00195,-0.28003,32.046,-9.885,-5.42
2026-05-23 16:23:21.789,1436941245,294789,1,0.83252,0.16064,0.65234,10.748,-19.664,6.939
2026-05-23 16:23:21.789,1436941245,294789,2,0.85986,0.04272,-0.10962,6.901,55.504,-10.015
2026-05-23 16:23:21.989,1436941445,294989,1,0.95703,0.1228,0.3667,10.534,-34.275,14.084
2026-05-23 16:23:21.989,1436941445,294989,2,0.97046,0.13354,0.03638,0.763,40.534,0.687
2026-05-23 16:23:21.189,1436940645,295189,1,0.99756,0.05859,0.23755,10.847,-34.305,11.908
2026-05-23 16:23:21.189,1436940645,295189,2,0.96265,0.18506,0.19214,5.206,38.679,6.809
2026-05-23 16:23:22.389,1436941845,295389,1,1.01099,0.07324,0.12793,4.679,-23.206,5.595
2026-05-23 16:23:22.389,1436941845,295389,2,1.00171,0.12988,0.28003,-1.26,29.053,-2.405
2026-05-23 16:23:22.589,1436942045,295589,1,1.05396,0.09497,0.06299,-2.29,-9.176,1.176
2026-05-23 16:23:22.589,1436942045,295589,2,0.97607,0.17041,0.37256,3.008,12.076,-0.718
2026-05-23 16:23:22.789,1436942245,295789,1,1.05029,0.08911,0.03809,-29.84,1.641,3.321
2026-05-23 16:23:22.789,1436942245,295789,2,0.97119,0.17139,0.34521,-13.198,3.061,-7.901
2026-05-23 16:23:22.989,1436942445,295989,1,1.0144,0.02197,0.13745,-6.458,7.794,-1.847
2026-05-23 16:23:22.989,1436942445,295989,2,0.94043,0.20264,0.37231,-5.382,-6.122,-3.794
2026-05-23 16:23:22.189,1436941645,296189,1,1.01782,0.05396,0.1521,5.863,2.878,-3.198
2026-05-23 16:23:22.189,1436941645,296189,2,0.92969,0.21484,0.29028,3.366,-5.58,2.115
2026-05-23 16:23:23.389,1436942845,296389,1,1.01074,0.06982,0.1748,8.672,4.908,-0.885
2026-05-23 16:23:23.389,1436942845,296389,2,0.95288,0.19238,0.31958,1.603,-1.519,1.069
2026-05-23 16:23:23.589,1436943045,296589,1,1.01929,0.06323,0.16821,-7.099,-1.359,-0.031
2026-05-23 16:23:23.589,1436943045,296589,2,0.94922,0.21704,0.29224,-3.275,2.038,-0.534
2026-05-23 16:23:23.789,1436943245,296789,1,1.01685,0.06909,0.16187,-3.656,-0.679,0.435
2026-05-23 16:23:23.789,1436943245,296789,2,0.94385,0.21045,0.30103,-1.557,2.031,0.718
