datetime,epoch_ms,ts_millis,mpu_id,ax,ay,az,gx,gy,gz
2026-05-21 17:47:01.279,1269160735,7279,1,0.82861,0.14331,0.47363,1.115,-3.115,-6.985
2026-05-21 17:47:01.279,1269160735,7279,2,0.91846,0.16357,0.71729,-4.809,-2.313,-5.031
2026-05-21 17:47:02.479,1269161935,7479,1,0.82764,0.13281,0.48755,-1.626,-0.695,0.489
2026-05-21 17:47:02.479,1269161935,7479,2,0.92236,0.17358,0.72241,2.725,-1.412,-0.573
2026-05-21 17:47:02.679,1269162135,7679,1,0.84448,0.13965,0.48096,1.237,-0.656,6.107
2026-05-21 17:47:02.679,1269162135,7679,2,0.9209,0.17847,0.69995,2.198,0.397,-0.076
2026-05-21 17:47:02.879,1269162335,7879,1,0.83936,0.1167,0.46924,-5.443,-4.389,7.74
2026-05-21 17:47:02.879,1269162335,7879,2,0.92627,0.18823,0.6814,-0.718,-0.702,10.519
2026-05-21 17:47:02.079,1269161535,8079,1,0.83618,0.07275,0.46167,-4.847,-5.084,-0.84
2026-05-21 17:47:02.079,1269161535,8079,2,0.92383,0.12378,0.69702,-6.435,-6.115,6.466
2026-05-21 17:47:02.279,1269161735,8279,1,0.86353,0.05811,0.46045,-2.969,3.504,1.924
2026-05-21 17:47:02.279,1269161735,8279,2,0.93384,0.09424,0.68042,-0.42,5.389,4.771
2026-05-21 17:47:03.479,1269162935,8479,1,0.86206,0.06738,0.45728,-2.977,-0.954,2.344
2026-05-21 17:47:03.479,1269162935,8479,2,0.94116,0.11743,0.6731,-3.58,-2.87,2.344
2026-05-21 17:47:03.679,1269163135,8679,1,0.86304,0.05518,0.44116,-7.496,1.168,-1.794
2026-05-21 17:47:03.679,1269163135,8679,2,0.92969,0.0979,0.68066,-2.565,0.565,2.557
2026-05-21 17:47:03.879,1269163335,8879,1,0.87256,0.0061,0.44189,-3.977,-1.122,2.244
2026-05-21 17:47:03.879,1269163335,8879,2,0.94043,0.11304,0.67798,-0.29,1.305,0.885
2026-05-21 17:47:03.079,1269162535,9079,1,0.85034,0.06689,0.46631,-6.214,-0.076,-1.519
2026-05-21 17:47:03.079,1269162535,9079,2,0.94116,0.10693,0.67896,-1.931,-0.122,0.229
2026-05-21 17:47:03.279,1269162735,9279,1,0.84888,0.04932,0.46362,-1.985,0.947,1.542
2026-05-21 17:47:03.279,1269162735,9279,2,0.93726,0.11694,0.67725,-1.115,0.695,1.366
2026-05-21 17:47:04.479,1269163935,9479,1,0.88477,0.04346,0.43726,-2.626,-0.275,0.237
2026-05-21 17:47:04.479,1269163935,9479,2,0.94287,0.10254,0.64819,-1.168,0.832,0.122
2026-05-21 17:47:04.679,1269164135,9679,1,0.86938,-0.0061,0.42529,-28.458,-18.183,12.809
2026-05-21 17:47:04.679,1269164135,9679,2,0.95508,0.11328,0.6709,-16.527,-33.824,13.122
2026-05-21 17:47:04.879,1269164335,9879,1,0.9292,-0.07886,0.3811,-15.603,-15.634,3.84
2026-05-21 17:47:04.879,1269164335,9879,2,0.95264,0.0083,0.61914,0.198,-8.809,8.779
2026-05-21 17:47:04.079,1269163535,10079,1,0.94678,-0.10522,0.34937,-0.137,-1.42,-2.153
2026-05-21 17:47:04.079,1269163535,10079,2,0.95239,0.00684,0.58643,-10.092,-6.351,7.046
2026-05-21 17:47:04.279,1269163735,10279,1,0.93774,-0.13232,0.37622,2.321,7.015,-6.489
2026-05-21 17:47:04.279,1269163735,10279,2,0.94531,-0.00708,0.60181,-3.0,0.252,0.656
2026-05-21 17:47:05.479,1269164935,10479,1,0.98071,-0.08887,0.29834,12.374,7.985,0.557
2026-05-21 17:47:05.479,1269164935,10479,2,0.97144,0.00171,0.59497,13.031,16.275,-4.084
2026-05-21 17:47:05.679,1269165135,10679,1,0.92725,-0.03003,0.42773,5.786,6.42,-9.84
2026-05-21 17:47:05.679,1269165135,10679,2,0.96899,0.04883,0.58325,-4.16,0.641,-8.863
2026-05-21 17:47:05.879,1269165335,10879,1,0.8999,-0.00391,0.41919,10.031,6.763,-3.489
2026-05-21 17:47:05.879,1269165335,10879,2,0.95337,0.09106,0.63623,8.847,5.649,-3.603
2026-05-21 17:47:05.079,1269164535,11079,1,0.87891,0.06079,0.42871,-2.069,10.13,1.221
2026-05-21 17:47:05.079,1269164535,11079,2,0.92188,0.12256,0.66455,-3.031,11.412,-0.626
2026-05-21 17:47:05.279,1269164735,11279,1,0.84326,0.03101,0.4668,6.496,5.977,-2.252
2026-05-21 17:47:05.279,1269164735,11279,2,0.92651,0.09692,0.68408,2.046,5.031,0.061
2026-05-21 17:47:06.479,1269165935,11479,1,0.84863,0.04785,0.47339,-1.664,4.305,0.702
2026-05-21 17:47:06.479,1269165935,11479,2,0.91772,0.09961,0.6814,-3.939,5.092,3.344
2026-05-21 17:47:06.679,1269166135,11679,1,0.84766,0.03369,0.46777,-2.542,2.687,-0.908
2026-05-21 17:47:06.679,1269166135,11679,2,0.92285,0.06738,0.68896,1.481,2.603,0.779
2026-05-21 17:47:06.879,1269166335,11879,1,0.84619,0.05737,0.48999,3.046,0.244,-0.618
2026-05-21 17:47:06.879,1269166335,11879,2,0.95874,0.10181,0.67896,0.366,-2.183,1.16
2026-05-21 17:47:06.079,1269165535,12079,1,0.84546,0.06372,0.46265,-6.389,-0.031,2.55
2026-05-21 17:47:06.079,1269165535,12079,2,0.9353,0.09277,0.69287,-7.298,2.588,3.481
2026-05-21 17:47:06.279,1269165735,12279,1,0.83594,0.02197,0.47803,-2.145,3.069,0.321
2026-05-21 17:47:06.279,1269165735,12279,2,0.93677,0.09277,0.67188,2.58,3.626,0.595
2026-05-21 17:47:07.479,1269166935,12479,1,0.83618,0.052,0.48779,-1.626,2.779,-1.076
2026-05-21 17:47:07.479,1269166935,12479,2,0.92725,0.09106,0.69604,-4.641,2.74,1.466
2026-05-21 17:47:07.679,1269167135,12679,1,0.82007,0.02222,0.50537,-2.107,1.412,0.992
2026-05-21 17:47:07.679,1269167135,12679,2,0.93115,0.09106,0.70581,3.634,3.481,0.763
2026-05-21 17:47:07.879,1269167335,12879,1,0.81592,0.06006,0.49902,-1.641,1.328,-0.565
2026-05-21 17:47:07.879,1269167335,12879,2,0.927,0.10425,0.69751,-2.229,1.473,0.817
2026-05-21 17:47:07.079,1269166535,13079,1,0.80371,0.03711,0.49341,-2.313,0.176,-0.038
2026-05-21 17:47:07.079,1269166535,13079,2,0.93237,0.09839,0.71021,-0.252,1.275,1.137
2026-05-21 17:47:07.279,1269166735,13279,1,0.82495,0.04907,0.48413,-1.985,-0.145,-0.282
2026-05-21 17:47:07.279,1269166735,13279,2,0.93457,0.0957,0.70508,-2.466,-0.427,1.573
2026-05-21 17:47:08.479,1269167935,13479,1,0.82031,0.0415,0.49438,-1.481,-0.122,0.366
2026-05-21 17:47:08.479,1269167935,13479,2,0.93726,0.09277,0.69482,-0.817,0.863,1.588
2026-05-21 17:47:08.679,1269168135,13679,1,0.8269,0.03271,0.49536,-2.45,-0.29,0.099
2026-05-21 17:47:08.679,1269168135,13679,2,0.93457,0.09595,0.69409,-0.901,1.206,1.336
2026-05-21 17:47:08.879,1269168335,13879,1,0.823,0.0376,0.49731,-1.221,1.489,0.237
2026-05-21 17:47:08.879,1269168335,13879,2,0.92896,0.09033,0.70239,0.16,2.221,1.252
2026-05-21 17:47:08.079,1269167535,14079,1,0.8208,0.03687,0.49316,-1.389,-0.176,-0.237
2026-05-21 17:47:08.079,1269167535,14079,2,0.92822,0.09058,0.70068,-0.351,2.229,1.191
2026-05-21 17:47:08.279,1269167735,14279,1,0.82544,0.0415,0.5022,-1.954,-1.748,0.351
2026-05-21 17:47:08.279,1269167735,14279,2,0.92578,0.09497,0.70313,0.038,1.252,1.466
2026-05-21 17:47:09.479,1269168935,14479,1,0.83594,0.03906,0.49023,-1.969,-0.603,-0.183
2026-05-21 17:47:09.479,1269168935,14479,2,0.93188,0.08862,0.70361,-1.321,0.58,1.42
2026-05-21 17:47:09.679,1269169135,14679,1,0.83301,0.03442,0.49561,-2.015,-0.092,-0.145
2026-05-21 17:47:09.679,1269169135,14679,2,0.93604,0.09399,0.70288,-1.641,0.748,1.206
2026-05-21 17:47:09.879,1269169335,14879,1,0.83032,0.0376,0.49463,-1.588,-0.038,-0.16
2026-05-21 17:47:09.879,1269169335,14879,2,0.93042,0.09619,0.69702,-0.641,1.695,0.687
2026-05-21 17:47:09.079,1269168535,15079,1,0.94629,0.04858,0.48853,-7.481,-33.16,9.992
2026-05-21 17:47:09.079,1269168535,15079,2,0.9624,0.07593,0.71069,-1.954,-14.015,6.13
2026-05-21 17:47:09.279,1269168735,15279,1,0.8855,-0.01685,0.32544,1.504,-33.779,7.649
2026-05-21 17:47:09.279,1269168735,15279,2,0.96631,0.11255,0.7168,5.42,-34.84,7.481
2026-05-21 17:47:10.479,1269169935,15479,1,0.91406,-0.00342,0.34131,3.053,8.893,-1.405
2026-05-21 17:47:10.479,1269169935,15479,2,0.90991,0.0835,0.60156,-1.061,15.313,-3.267
2026-05-21 17:47:10.679,1269170135,15679,1,0.94165,-0.01099,0.34326,-6.0,-4.466,-2.496
2026-05-21 17:47:10.679,1269170135,15679,2,0.95435,0.0481,0.57983,-6.878,-4.137,1.069
2026-05-21 17:47:10.879,1269170335,15879,1,0.94824,,0.3374,2.405,0.84,0.557
2026-05-21 17:47:10.879,1269170335,15879,2,0.95386,0.07397,0.5896,2.282,3.702,-0.435
2026-05-21 17:47:10.079,1269169535,16079,1,0.93701,0.00146,0.32666,-3.771,0.099,-0.969
2026-05-21 17:47:10.079,1269169535,16079,2,0.95459,0.05786,0.58447,-3.489,-3.145,1.809
2026-05-21 17:47:10.279,1269169735,16279,1,0.94653,-0.00415,0.32861,-0.931,-1.397,0.443
2026-05-21 17:47:10.279,1269169735,16279,2,0.96387,0.06689,0.57617,-0.084,-0.542,0.985
2026-05-21 17:47:11.479,1269170935,16479,1,0.95386,0.00098,0.31445,-3.038,-1.176,-0.992
2026-05-21 17:47:11.479,1269170935,16479,2,0.95605,0.06567,0.56616,-3.099,-2.412,1.718
2026-05-21 17:47:11.679,1269171135,16679,1,0.96118,0.00879,0.30713,0.023,3.878,-0.626
2026-05-21 17:47:11.679,1269171135,16679,2,0.96094,0.07104,0.55322,0.313,2.603,1.802
2026-05-21 17:47:11.879,1269171335,16879,1,0.9187,0.01294,0.3833,-10.588,-1.786,-9.977
2026-05-21 17:47:11.879,1269171335,16879,2,0.95923,0.01196,0.573,-22.183,-3.718,-4.473
2026-05-21 17:47:11.079,1269170535,17079,1,0.96606,-0.06274,0.30737,22.382,-11.504,20.305
2026-05-21 17:47:11.079,1269170535,17079,2,0.9873,0.06494,0.5752,34.847,2.328,-0.74
2026-05-21 17:47:11.279,1269170735,17279,1,0.96899,0.02026,0.28198,24.45,-3.214,8.275
2026-05-21 17:47:11.279,1269170735,17279,2,0.95313,0.18726,0.53955,16.382,4.435,0.237
2026-05-21 17:47:12.479,1269171935,17479,1,0.96997,-0.01758,0.29688,-19.206,3.771,-7.786
2026-05-21 17:47:12.479,1269171935,17479,2,0.95898,0.09058,0.57886,-16.725,1.427,4.542
2026-05-21 17:47:12.679,1269172135,17679,1,0.96216,-0.04541,0.31445,-8.656,2.198,-1.771
2026-05-21 17:47:12.679,1269172135,17679,2,0.95361,0.07568,0.57813,-5.74,-0.29,3.55
2026-05-21 17:47:12.879,1269172335,17879,1,0.95996,-0.01855,0.29053,-0.023,-1.511,0.053
2026-05-21 17:47:12.879,1269172335,17879,2,0.96582,0.08936,0.56519,-2.099,-0.336,3.015
2026-05-21 17:47:12.079,1269171535,18079,1,0.9646,-0.0293,0.30225,-4.901,-0.924,-0.351
2026-05-21 17:47:12.079,1269171535,18079,2,0.96484,0.07251,0.57446,-5.58,,2.557
2026-05-21 17:47:12.279,1269171735,18279,1,0.95752,-0.03052,0.3064,-2.893,0.321,-1.183
2026-05-21 17:47:12.279,1269171735,18279,2,0.96851,0.07349,0.53979,-1.443,0.618,2.084
2026-05-21 17:47:13.479,1269172935,18479,1,0.96021,-0.021,0.30054,-2.504,-0.489,-1.473
2026-05-21 17:47:13.479,1269172935,18479,2,0.9563,0.06396,0.55957,-0.626,1.015,2.534
2026-05-21 17:47:13.679,1269173135,18679,1,0.96704,-0.01782,0.26587,-3.519,1.344,2.107
2026-05-21 17:47:13.679,1269173135,18679,2,0.94263,0.08447,0.5603,6.069,6.611,4.206
2026-05-21 17:47:13.879,1269173335,18879,1,0.96265,0.01953,0.32568,-12.374,10.053,-15.527
2026-05-21 17:47:13.879,1269173335,18879,2,0.96997,0.10254,0.58569,-17.511,10.336,-3.527
2026-05-21 17:47:13.079,1269172535,19079,1,0.92603,-0.03442,0.35547,-4.924,2.87,2.336
2026-05-21 17:47:13.079,1269172535,19079,2,0.94165,-0.0022,0.56738,15.046,6.87,0.519
2026-05-21 17:47:13.279,1269172735,19279,1,0.99365,-0.03784,0.28491,16.183,-1.718,10.336
2026-05-21 17:47:13.279,1269172735,19279,2,0.97754,0.10303,0.58325,26.664,10.618,-5.038
2026-05-21 17:47:14.479,1269173935,19479,1,0.93384,,0.34888,14.244,7.542,-18.008
2026-05-21 17:47:14.479,1269173935,19479,2,0.93945,0.11987,0.59766,-14.733,-5.298,-15.275
2026-05-21 17:47:14.679,1269174135,19679,1,0.92383,0.03857,0.36572,7.802,1.45,-24.153
2026-05-21 17:47:14.679,1269174135,19679,2,0.94897,0.12305,0.62158,9.397,7.901,-26.847
2026-05-21 17:47:14.879,1269174335,19879,1,0.89478,0.26514,0.35693,24.267,-10.122,-12.122
2026-05-21 17:47:14.879,1269174335,19879,2,0.8916,0.3457,0.5957,17.366,-6.893,-10.733
2026-05-21 17:47:14.079,1269173535,20079,1,0.90845,0.31787,0.27588,-1.206,-7.145,-6.603
2026-05-21 17:47:14.079,1269173535,20079,2,0.88965,0.37646,0.63965,-9.565,8.794,-11.031
2026-05-21 17:47:14.279,1269173735,20279,1,0.88574,0.26294,0.30615,7.13,-0.71,-0.611
2026-05-21 17:47:14.279,1269173735,20279,2,0.88086,0.35718,0.63184,10.191,5.748,-7.183
2026-05-21 17:47:15.479,1269174935,20479,1,0.88599,0.34009,0.25269,4.145,1.527,-4.832
2026-05-21 17:47:15.479,1269174935,20479,2,0.89307,0.43433,0.61865,-0.191,3.733,-0.924
2026-05-21 17:47:15.679,1269175135,20679,1,0.91406,0.33765,0.25146,1.298,0.221,0.298
2026-05-21 17:47:15.679,1269175135,20679,2,0.85376,0.35474,0.63501,-0.145,-3.443,2.702
2026-05-21 17:47:15.879,1269175335,20879,1,0.86426,0.33789,0.26904,-4.153,-0.267,-0.763
2026-05-21 17:47:15.879,1269175335,20879,2,0.85913,0.35498,0.66846,-16.351,-13.038,-0.389
2026-05-21 17:47:15.079,1269174535,21079,1,0.90747,0.34375,0.26709,11.557,-1.115,3.466
2026-05-21 17:47:15.079,1269174535,21079,2,0.87207,0.41016,0.60938,6.237,7.809,6.29
2026-05-21 17:47:15.279,1269174735,21279,1,0.93335,0.35645,0.25732,-17.252,-0.885,-0.046
2026-05-21 17:47:15.279,1269174735,21279,2,0.91138,0.35107,0.57837,-2.687,9.74,4.328
2026-05-21 17:47:16.479,1269175935,21479,1,0.93164,0.27734,0.24316,-17.382,-14.695,7.45
2026-05-21 17:47:16.479,1269175935,21479,2,0.89063,0.32764,0.59912,-8.534,-15.733,6.87
2026-05-21 17:47:16.679,1269176135,21679,1,0.96021,0.24731,0.21582,-0.611,-1.901,9.389
2026-05-21 17:47:16.679,1269176135,21679,2,0.89673,0.35376,0.61206,7.931,3.489,6.031
2026-05-21 17:47:16.879,1269176335,21879,1,0.94116,0.23901,0.26929,-11.015,8.076,-0.313
2026-05-21 17:47:16.879,1269176335,21879,2,0.9126,0.34106,0.58447,-1.336,3.557,5.214
2026-05-21 17:47:16.079,1269175535,22079,1,0.92847,0.22656,0.27515,-0.344,-1.557,1.214
2026-05-21 17:47:16.079,1269175535,22079,2,0.88745,0.31299,0.59277,0.756,-1.298,2.412
2026-05-21 17:47:16.279,1269175735,22279,1,0.96045,0.20557,0.2522,-10.847,-7.0,-0.015
2026-05-21 17:47:16.279,1269175735,22279,2,0.92896,0.30859,0.60059,-10.817,-3.847,2.092
2026-05-21 17:47:17.479,1269176935,22479,1,0.95117,0.19653,0.23267,-4.527,-4.954,-0.458
2026-05-21 17:47:17.479,1269176935,22479,2,0.91919,0.31348,0.57959,9.534,-0.641,4.076
2026-05-21 17:47:17.679,1269177135,22679,1,0.93359,0.25415,0.24609,-9.351,-0.718,-1.29
2026-05-21 17:47:17.679,1269177135,22679,2,0.90576,0.30591,0.58252,-9.084,-2.015,2.405
2026-05-21 17:47:17.879,1269177335,22879,1,0.94897,0.20996,0.24829,-6.573,-0.275,0.863
2026-05-21 17:47:17.879,1269177335,22879,2,0.93945,0.30469,0.56299,-1.252,-4.328,6.206
2026-05-21 17:47:17.079,1269176535,23079,1,0.97461,0.20605,0.21338,-19.252,-1.924,-3.641
2026-05-21 17:47:17.079,1269176535,23079,2,0.94189,0.25635,0.56104,-22.504,-4.847,2.374
2026-05-21 17:47:17.279,1269176735,23279,1,0.97119,0.18311,0.23657,-3.176,-1.244,0.672
2026-05-21 17:47:17.279,1269176735,23279,2,0.93188,0.23364,0.54858,-6.832,-2.29,0.641
2026-05-21 17:47:18.479,1269177935,23479,1,0.96631,0.21167,0.24097,4.977,3.939,3.405
2026-05-21 17:47:18.479,1269177935,23479,2,0.93237,0.26929,0.5481,-6.351,1.855,2.053
2026-05-21 17:47:18.679,1269178135,23679,1,0.97119,0.21436,0.22119,-6.824,1.374,-2.534
2026-05-21 17:47:18.679,1269178135,23679,2,0.93506,0.24805,0.57617,-11.336,2.557,0.031
2026-05-21 17:47:18.879,1269178335,23879,1,0.95044,0.1875,0.28687,-4.099,4.244,6.901
2026-05-21 17:47:18.879,1269178335,23879,2,0.92676,0.27612,0.57642,7.74,7.076,4.267
2026-05-21 17:47:18.079,1269177535,24079,1,0.9436,0.17896,0.29028,-2.382,3.58,2.046
2026-05-21 17:47:18.079,1269177535,24079,2,0.92212,0.25195,0.58887,0.809,3.656,4.038
2026-05-21 17:47:18.279,1269177735,24279,1,0.95581,0.1582,0.29053,-4.023,1.107,2.527
2026-05-21 17:47:18.279,1269177735,24279,2,0.93872,0.23413,0.59375,-0.71,1.534,5.115
2026-05-21 17:47:19.479,1269178935,24479,1,0.95093,0.15015,0.2981,-2.557,2.076,-0.534
2026-05-21 17:47:19.479,1269178935,24479,2,0.94043,0.22192,0.58081,-4.29,0.008,3.641
2026-05-21 17:47:19.679,1269179135,24679,1,0.95459,0.14429,0.29639,-3.13,0.557,1.084
2026-05-21 17:47:19.679,1269179135,24679,2,0.93628,0.20947,0.60107,-2.053,1.58,2.168
2026-05-21 17:47:19.879,1269179335,24879,1,0.94604,0.14355,0.29077,-2.069,-0.71,2.115
2026-05-21 17:47:19.879,1269179335,24879,2,0.92822,0.21655,0.57788,-0.221,0.695,1.557
2026-05-21 17:47:19.079,1269178535,25079,1,0.94556,0.14453,0.28955,0.748,-1.344,0.672
2026-05-21 17:47:19.079,1269178535,25079,2,0.94092,0.21729,0.60132,1.069,0.435,1.466
2026-05-21 17:47:19.279,1269178735,25279,1,0.96533,0.1394,0.26953,-1.053,-0.702,1.55
2026-05-21 17:47:19.279,1269178735,25279,2,0.93555,0.22339,0.58252,0.618,0.84,2.13
2026-05-21 17:47:20.479,1269179935,25479,1,0.9585,0.13818,0.27441,-1.214,-1.298,0.267
2026-05-21 17:47:20.479,1269179935,25479,2,0.93701,0.2251,0.57837,-0.534,0.084,2.687
2026-05-21 17:47:20.679,1269180135,25679,1,0.95801,0.14893,0.27612,3.885,1.275,-1.947
2026-05-21 17:47:20.679,1269180135,25679,2,0.94287,0.20996,0.5791,0.794,1.771,1.382
2026-05-21 17:47:20.879,1269180335,25879,1,0.96802,0.14771,0.2605,-0.58,5.427,-4.42
2026-05-21 17:47:20.879,1269180335,25879,2,0.92847,0.18823,0.59668,-3.496,3.519,-0.405
2026-05-21 17:47:20.079,1269179535,26079,1,0.94043,0.18433,0.30298,-3.031,3.641,-1.176
2026-05-21 17:47:20.079,1269179535,26079,2,0.93848,0.21191,0.55493,-1.817,1.397,2.863
2026-05-21 17:47:20.279,1269179735,26279,1,0.94434,0.15918,0.28662,0.412,-2.168,1.137
2026-05-21 17:47:20.279,1269179735,26279,2,0.93896,0.22266,0.58545,1.855,3.748,0.931
2026-05-21 17:47:21.479,1269180935,26479,1,0.94507,0.17065,0.29883,-2.672,-0.092,-0.122
2026-05-21 17:47:21.479,1269180935,26479,2,0.94409,0.21387,0.57983,-1.328,0.466,1.282
2026-05-21 17:47:21.679,1269181135,26679,1,0.94507,0.16577,0.29932,-2.008,0.008,0.328
2026-05-21 17:47:21.679,1269181135,26679,2,0.93848,0.2124,0.58911,-0.863,1.565,1.321
2026-05-21 17:47:21.879,1269181335,26879,1,0.94531,0.1626,0.30029,-3.107,0.45,1.229
2026-05-21 17:47:21.879,1269181335,26879,2,0.93457,0.21509,0.59033,-1.031,1.412,1.779
2026-05-21 17:47:21.079,1269180535,27079,1,0.94385,0.16553,0.29736,-1.985,-0.489,0.382
2026-05-21 17:47:21.079,1269180535,27079,2,0.93188,0.20483,0.5769,-1.0,1.115,1.649
2026-05-21 17:47:21.279,1269180735,27279,1,0.948,0.14819,0.29907,-2.16,0.008,-0.145
2026-05-21 17:47:21.279,1269180735,27279,2,0.94189,0.20239,0.58105,-1.191,0.557,1.687
2026-05-21 17:47:22.479,1269181935,27479,1,0.9519,0.15527,0.29419,-1.168,-0.718,1.779
2026-05-21 17:47:22.479,1269181935,27479,2,0.94043,0.20679,0.59692,1.405,1.237,1.771
2026-05-21 17:47:22.679,1269182135,27679,1,0.94336,0.16211,0.29688,-2.229,1.076,-1.603
2026-05-21 17:47:22.679,1269182135,27679,2,0.93896,0.20532,0.58008,-1.626,0.947,0.687
2026-05-21 17:47:22.879,1269182335,27879,1,0.9502,0.16357,0.29102,-1.634,-0.237,-1.87
2026-05-21 17:47:22.879,1269182335,27879,2,0.93945,0.20801,0.57129,-1.55,-0.038,0.74
2026-05-21 17:47:22.079,1269181535,28079,1,0.95068,0.16382,0.28516,-2.718,-0.87,0.802
2026-05-21 17:47:22.079,1269181535,28079,2,0.94434,0.20215,0.57471,0.779,1.863,1.015
2026-05-21 17:47:22.279,1269181735,28279,1,0.93799,0.15308,0.28101,-1.008,2.985,1.45
2026-05-21 17:47:22.279,1269181735,28279,2,0.92383,0.20532,0.57153,-2.573,2.176,1.13
2026-05-21 17:47:23.479,1269182935,28479,1,0.94922,0.16528,0.29614,-4.603,2.214,1.389
2026-05-21 17:47:23.479,1269182935,28479,2,0.93872,0.21069,0.5791,-4.26,0.252,2.725
2026-05-21 17:47:23.679,1269183135,28679,1,0.95923,0.14526,0.28394,-0.595,-2.809,0.794
2026-05-21 17:47:23.679,1269183135,28679,2,0.94604,0.20898,0.60254,0.885,0.473,2.832
2026-05-21 17:47:23.879,1269183335,28879,1,0.95361,0.14453,0.30103,-4.595,1.466,-1.893
2026-05-21 17:47:23.879,1269183335,28879,2,0.94556,0.19458,0.58374,-2.824,1.916,2.42
2026-05-21 17:47:23.079,1269182535,29079,1,0.93872,0.13916,0.31592,-0.756,-0.313,1.733
2026-05-21 17:47:23.079,1269182535,29079,2,0.94238,0.20776,0.60327,3.084,3.802,1.107
2026-05-21 17:47:23.279,1269182735,29279,1,0.93823,0.13672,0.302,-1.908,1.534,-0.061
2026-05-21 17:47:23.279,1269182735,29279,2,0.93237,0.21484,0.59399,-0.725,1.046,0.573
2026-05-21 17:47:24.479,1269183935,29479,1,0.93237,0.14185,0.30493,-3.061,0.405,0.405
2026-05-21 17:47:24.479,1269183935,29479,2,0.93774,0.20117,0.59595,-3.511,-1.397,1.374
2026-05-21 17:47:24.679,1269184135,29679,1,0.94043,0.14014,0.30933,-0.023,-0.183,-1.137
2026-05-21 17:47:24.679,1269184135,29679,2,0.93994,0.19849,0.57422,-1.977,-1.679,1.702
2026-05-21 17:47:24.879,1269184335,29879,1,0.95068,0.15332,0.27734,-0.122,-2.198,-0.832
2026-05-21 17:47:24.879,1269184335,29879,2,0.95093,0.19214,0.56787,0.931,-1.527,0.939
2026-05-21 17:47:24.079,1269183535,30079,1,0.94971,0.15356,0.29395,-1.198,-0.985,0.168
2026-05-21 17:47:24.079,1269183535,30079,2,0.94287,0.21631,0.58008,0.298,2.466,2.16
2026-05-21 17:47:24.279,1269183735,30279,1,0.94556,0.15918,0.29688,-3.901,-0.229,-0.435
2026-05-21 17:47:24.279,1269183735,30279,2,0.94702,0.19873,0.55591,-1.947,-0.183,1.664
2026-05-21 17:47:25.479,1269184935,30479,1,0.9563,0.15942,0.28735,-2.344,1.466,-0.702
2026-05-21 17:47:25.479,1269184935,30479,2,0.94604,0.19678,0.56421,-1.267,-0.206,1.802
2026-05-21 17:47:25.679,1269185135,30679,1,0.95166,0.16284,0.29028,-1.153,-1.282,-0.603
2026-05-21 17:47:25.679,1269185135,30679,2,0.94897,0.20142,0.55054,1.214,-0.252,1.557
2026-05-21 17:47:25.879,1269185335,30879,1,0.95337,0.16382,0.27979,-6.618,2.565,-1.649
2026-05-21 17:47:25.879,1269185335,30879,2,0.95215,0.19897,0.55298,-3.74,2.511,2.71
2026-05-21 17:47:25.079,1269184535,31079,1,0.94141,0.15356,0.30298,-4.252,2.122,1.298
2026-05-21 17:47:25.079,1269184535,31079,2,0.94214,0.19336,0.57056,-2.031,0.893,2.13
2026-05-21 17:47:25.279,1269184735,31279,1,0.93701,0.14502,0.29956,-0.023,1.672,0.504
2026-05-21 17:47:25.279,1269184735,31279,2,0.94092,0.17969,0.55371,2.107,1.992,1.84
2026-05-21 17:47:26.479,1269185935,31479,1,0.95068,0.14722,0.29077,0.023,-0.931,0.916
2026-05-21 17:47:26.479,1269185935,31479,2,0.9541,0.18164,0.54858,0.466,0.656,1.718
2026-05-21 17:47:26.679,1269186135,31679,1,0.96289,0.15356,0.28076,-1.542,-0.397,1.053
2026-05-21 17:47:26.679,1269186135,31679,2,0.95288,0.18359,0.55396,-0.893,1.237,2.115
2026-05-21 17:47:26.879,1269186335,31879,1,0.96191,0.14917,0.28711,-2.656,3.374,0.977
2026-05-21 17:47:26.879,1269186335,31879,2,0.94141,0.1709,0.5498,-0.847,3.771,1.267
2026-05-21 17:47:26.079,1269185535,32079,1,0.94409,0.14185,0.30151,-4.183,2.427,0.328
2026-05-21 17:47:26.079,1269185535,32079,2,0.95386,0.18091,0.5481,-2.573,1.298,1.992
2026-05-21 17:47:26.279,1269185735,32279,1,0.94775,0.14624,0.30737,0.87,1.076,0.824
2026-05-21 17:47:26.279,1269185735,32279,2,0.9458,0.17432,0.57178,1.366,3.427,0.718
2026-05-21 17:47:27.479,1269186935,32479,1,0.93848,0.10645,0.34131,4.901,1.206,5.542
2026-05-21 17:47:27.479,1269186935,32479,2,0.95093,0.18555,0.58276,12.237,11.0,-3.626
2026-05-21 17:47:27.679,1269187135,32679,1,0.94531,0.05835,0.31567,-0.336,-2.198,18.13
2026-05-21 17:47:27.679,1269187135,32679,2,0.9375,0.17505,0.61743,11.534,-2.947,-13.015
2026-05-21 17:47:27.879,1269187335,32879,1,0.97241,0.0376,0.30029,-0.664,0.389,11.962
2026-05-21 17:47:27.879,1269187335,32879,2,0.9729,0.30396,0.51001,-10.725,-8.168,4.389
2026-05-21 17:47:27.079,1269186535,33079,1,0.93042,0.09839,0.32959,2.122,5.809,-7.962
2026-05-21 17:47:27.079,1269186535,33079,2,0.91919,0.26538,0.58008,-13.87,-18.618,-5.42
2026-05-21 17:47:27.279,1269186735,33279,1,0.93481,0.0564,0.32568,3.672,-4.74,-3.351
2026-05-21 17:47:27.279,1269186735,33279,2,0.92944,0.27832,0.56323,8.374,1.695,-2.084
2026-05-21 17:47:28.479,1269187935,33479,1,0.97046,0.11914,0.25464,9.008,1.313,-4.183
2026-05-21 17:47:28.479,1269187935,33479,2,0.91724,0.31128,0.57104,5.71,18.588,-2.55
2026-05-21 17:47:28.679,1269188135,33679,1,0.96387,0.1189,0.28613,-0.344,-0.611,1.328
2026-05-21 17:47:28.679,1269188135,33679,2,0.92822,0.2876,0.57349,10.496,-2.466,0.962
2026-05-21 17:47:28.879,1269188335,33879,1,0.96802,0.14551,0.27051,-3.679,-1.115,3.336
2026-05-21 17:47:28.879,1269188335,33879,2,0.91821,0.32129,0.56641,2.771,7.763,3.855
2026-05-21 17:47:28.079,1269187535,34079,1,0.96631,0.12549,0.27393,-6.588,-1.069,-3.885
2026-05-21 17:47:28.079,1269187535,34079,2,0.91333,0.30591,0.57129,-10.351,-9.252,0.649
2026-05-21 17:47:28.279,1269187735,34279,1,0.96313,0.12207,0.27588,-2.221,3.061,5.16
2026-05-21 17:47:28.279,1269187735,34279,2,0.94482,0.29565,0.54175,2.206,7.374,5.649
2026-05-21 17:47:29.479,1269188935,34479,1,0.96069,0.09717,0.27637,-4.267,4.099,2.641
2026-05-21 17:47:29.479,1269188935,34479,2,0.93018,0.31128,0.57275,7.542,8.786,8.603
2026-05-21 17:47:29.679,1269189135,34679,1,0.95947,0.10596,0.28076,-3.351,-0.779,-1.649
2026-05-21 17:47:29.679,1269189135,34679,2,0.93506,0.28027,0.57739,-0.504,5.931,6.695
2026-05-21 17:47:29.879,1269189335,34879,1,0.94019,0.0752,0.31348,-10.359,0.42,-2.229
2026-05-21 17:47:29.879,1269189335,34879,2,0.92163,0.24927,0.60522,-9.969,0.771,6.756
2026-05-21 17:47:29.079,1269188535,35079,1,0.97217,0.08887,0.28979,1.344,3.496,-2.275
2026-05-21 17:47:29.079,1269188535,35079,2,0.94873,0.24243,0.57935,-1.153,1.366,1.863
2026-05-21 17:47:29.279,1269188735,35279,1,0.92896,0.06885,0.23364,-18.29,-10.931,4.237
2026-05-21 17:47:29.279,1269188735,35279,2,0.93579,0.22339,0.58374,-9.725,0.565,7.122
2026-05-21 17:47:30.479,1269189935,35479,1,0.97314,0.07007,0.27783,-6.427,2.725,-5.847
2026-05-21 17:47:30.479,1269189935,35479,2,0.92798,0.21118,0.59009,-18.702,-11.328,-2.13
2026-05-21 17:47:30.679,1269190135,35679,1,0.948,0.06445,0.31714,-7.786,1.672,-3.511
2026-05-21 17:47:30.679,1269190135,35679,2,0.94873,0.18237,0.59204,-3.137,9.74,3.702
2026-05-21 17:47:30.879,1269190335,35879,1,0.92163,0.07251,0.33203,2.924,5.962,0.893
2026-05-21 17:47:30.879,1269190335,35879,2,0.93506,0.20117,0.58813,6.412,1.603,-2.145
2026-05-21 17:47:30.079,1269189535,36079,1,0.93188,0.09424,0.32056,2.687,-0.908,2.45
2026-05-21 17:47:30.079,1269189535,36079,2,0.94312,0.23462,0.58008,4.672,2.008,2.282
2026-05-21 17:47:30.279,1269189735,36279,1,0.94751,0.09351,0.29834,-1.847,-0.855,-1.55
2026-05-21 17:47:30.279,1269189735,36279,2,0.93384,0.20703,0.58252,-2.214,0.412,0.832
2026-05-21 17:47:31.479,1269190935,36479,1,0.96118,0.10864,0.26733,-5.702,-6.641,-3.809
2026-05-21 17:47:31.479,1269190935,36479,2,0.95752,0.2251,0.59375,-18.496,-13.748,0.916
2026-05-21 17:47:31.679,1269191135,36679,1,0.95337,0.08594,0.29565,-0.359,0.756,-1.137
2026-05-21 17:47:31.679,1269191135,36679,2,0.93311,0.22144,0.5647,2.618,4.603,1.374
2026-05-21 17:47:31.879,1269191335,36879,1,0.95313,0.0918,0.29956,1.382,-0.573,0.985
2026-05-21 17:47:31.879,1269191335,36879,2,0.93628,0.2312,0.56641,6.382,1.366,1.885
2026-05-21 17:47:31.079,1269190535,37079,1,0.95654,0.10156,0.28809,-4.382,0.069,-0.55
2026-05-21 17:47:31.079,1269190535,37079,2,0.93555,0.22925,0.56885,-1.443,5.603,2.954
2026-05-21 17:47:31.279,1269190735,37279,1,0.9563,0.09717,0.28711,-2.076,0.099,-3.214
2026-05-21 17:47:31.279,1269190735,37279,2,0.93945,0.21509,0.58252,-3.42,0.832,1.542
2026-05-21 17:47:32.479,1269191935,37479,1,0.96411,0.10425,0.28857,-2.802,0.947,3.931
2026-05-21 17:47:32.479,1269191935,37479,2,0.948,0.21631,0.5752,1.954,6.168,4.183
2026-05-21 17:47:32.679,1269192135,37679,1,0.96216,0.10059,0.29199,-2.954,2.947,3.779
2026-05-21 17:47:32.679,1269192135,37679,2,0.93994,0.21777,0.57153,0.282,3.031,5.389
2026-05-21 17:47:32.879,1269192335,37879,1,0.91357,0.0293,0.26001,-5.282,-0.931,-0.466
2026-05-21 17:47:32.879,1269192335,37879,2,0.90283,0.20288,0.55322,1.809,0.824,-3.046
2026-05-21 17:47:32.079,1269191535,38079,1,0.95361,0.09961,0.2937,-8.588,0.473,-5.427
2026-05-21 17:47:32.079,1269191535,38079,2,0.93628,0.17041,0.54956,-14.313,-3.305,4.603
2026-05-21 17:47:32.279,1269191735,38279,1,0.95654,0.09473,0.31934,-0.214,-0.252,3.351
2026-05-21 17:47:32.279,1269191735,38279,2,0.91479,0.18091,0.60449,-12.702,-5.214,2.863
2026-05-21 17:47:33.479,1269192935,38479,1,0.94458,0.06787,0.3186,-1.137,2.0,-0.542
2026-05-21 17:47:33.479,1269192935,38479,2,0.93286,0.18677,0.57373,-0.313,3.756,0.779
2026-05-21 17:47:33.679,1269193135,38679,1,0.94629,0.08765,0.31128,-1.397,-1.092,-5.588
2026-05-21 17:47:33.679,1269193135,38679,2,0.9397,0.25171,0.56519,-3.267,-2.626,-1.45
2026-05-21 17:47:33.879,1269193335,38879,1,0.9502,0.09229,0.30225,-7.267,0.412,-3.198
2026-05-21 17:47:33.879,1269193335,38879,2,0.95044,0.17554,0.58667,-1.824,-0.779,2.092
2026-05-21 17:47:33.079,1269192535,39079,1,0.94702,0.09814,0.31836,-1.954,0.733,0.275
2026-05-21 17:47:33.079,1269192535,39079,2,0.94653,0.18213,0.57056,-0.672,2.092,0.992
2026-05-21 17:47:33.279,1269192735,39279,1,0.93921,0.09326,0.31934,-0.718,-0.046,0.725
2026-05-21 17:47:33.279,1269192735,39279,2,0.94482,0.18384,0.57397,-0.008,2.359,1.496
2026-05-21 17:47:34.479,1269193935,39479,1,0.94141,0.09424,0.32251,-2.015,0.985,0.267
2026-05-21 17:47:34.479,1269193935,39479,2,0.95068,0.18042,0.59473,-2.855,0.038,2.092
2026-05-21 17:47:34.679,1269194135,39679,1,0.94214,0.08618,0.32666,-1.71,0.084,0.931
2026-05-21 17:47:34.679,1269194135,39679,2,0.94702,0.18018,0.58179,0.412,2.153,0.954
2026-05-21 17:47:34.879,1269194335,39879,1,0.95215,0.08813,0.31934,-0.046,4.573,-0.206
2026-05-21 17:47:34.879,1269194335,39879,2,1.29834,0.229,0.40259,7.198,-6.771,18.634
2026-05-21 17:47:34.079,1269193535,40079,1,0.93433,0.08911,0.3186,-2.023,0.336,0.099
2026-05-21 17:47:34.079,1269193535,40079,2,0.95703,0.17676,0.60327,1.87,2.977,1.435
2026-05-21 17:47:34.279,1269193735,40279,1,0.90894,0.0957,0.33618,-10.519,6.611,-1.298
2026-05-21 17:47:34.279,1269193735,40279,2,0.98511,0.25684,0.45239,-9.076,-13.13,0.832
2026-05-21 17:47:35.479,1269194935,40479,1,0.94702,0.09692,0.32007,-1.939,0.641,-0.191
2026-05-21 17:47:35.479,1269194935,40479,2,0.94141,0.18018,0.58325,-0.229,1.901,1.298
2026-05-21 17:47:35.679,1269195135,40679,1,0.94702,0.08496,0.32153,-1.55,0.687,-0.405
2026-05-21 17:47:35.679,1269195135,40679,2,0.9353,0.18506,0.58887,0.55,2.13,1.985
2026-05-21 17:47:35.879,1269195335,40879,1,0.948,0.07935,0.31958,-3.519,0.718,-0.435
2026-05-21 17:47:35.879,1269195335,40879,2,0.94556,0.1792,0.57983,-4.718,-1.427,1.0
2026-05-21 17:47:35.079,1269194535,41079,1,0.94678,0.09131,0.30884,-1.29,-0.252,0.298
2026-05-21 17:47:35.079,1269194535,41079,2,0.95093,0.18652,0.58179,-3.74,-1.046,0.908
2026-05-21 17:47:35.279,1269194735,41279,1,0.94604,0.08569,0.30859,-1.313,0.374,-0.321
2026-05-21 17:47:35.279,1269194735,41279,2,0.94385,0.18433,0.57446,-1.695,0.618,1.244
2026-05-21 17:47:36.479,1269195935,41479,1,0.95532,0.09326,0.30835,-1.0,-0.046,-0.435
2026-05-21 17:47:36.479,1269195935,41479,2,0.94751,0.18921,0.58862,-5.053,3.298,-0.756
2026-05-21 17:47:36.679,1269196135,41679,1,0.94702,0.08447,0.31519,-2.802,0.817,-0.481
2026-05-21 17:47:36.679,1269196135,41679,2,0.93042,0.17603,0.60083,-2.802,3.244,1.076
2026-05-21 17:47:36.879,1269196335,41879,1,0.94116,0.09082,0.31689,-1.87,-0.748,0.008
2026-05-21 17:47:36.879,1269196335,41879,2,0.94067,0.17944,0.59839,2.481,-3.481,2.863
2026-05-21 17:47:36.079,1269195535,42079,1,0.93677,0.08667,0.33691,1.244,0.969,0.115
2026-05-21 17:47:36.079,1269195535,42079,2,0.95532,0.21191,0.57373,-11.13,0.802,0.405
2026-05-21 17:47:36.279,1269195735,42279,1,0.98877,0.10181,0.30298,-0.298,-0.115,-1.763
2026-05-21 17:47:36.279,1269195735,42279,2,0.92725,0.17871,0.60303,-0.687,4.282,0.099
2026-05-21 17:47:37.479,1269196935,42479,1,0.94434,0.0896,0.32153,-2.092,0.374,0.298
2026-05-21 17:47:37.479,1269196935,42479,2,0.9436,0.18604,0.5769,-1.298,0.893,2.122
2026-05-21 17:47:37.679,1269197135,42679,1,0.94043,0.09277,0.32471,-1.802,0.275,0.405
2026-05-21 17:47:37.679,1269197135,42679,2,0.9353,0.18726,0.58423,0.588,3.214,1.458
2026-05-21 17:47:37.879,1269197335,42879,1,0.95117,0.11108,0.31494,-0.702,-0.046,1.061
2026-05-21 17:47:37.879,1269197335,42879,2,0.95435,0.19409,0.58594,1.45,6.382,-1.29
2026-05-21 17:47:37.079,1269196535,43079,1,0.94556,0.12329,0.29956,4.305,3.702,6.359
2026-05-21 17:47:37.079,1269196535,43079,2,0.91284,0.22314,0.5752,4.344,16.939,1.0
2026-05-21 17:47:37.279,1269196735,43279,1,0.94482,0.04541,0.35522,-9.061,-6.702,-0.771
2026-05-21 17:47:37.279,1269196735,43279,2,0.98364,0.16284,0.63599,0.634,-6.16,6.374
2026-05-21 17:47:38.479,1269197935,43479,1,0.92603,0.03174,0.34717,1.26,7.389,-1.962
2026-05-21 17:47:38.479,1269197935,43479,2,0.95215,0.12524,0.5564,-2.855,7.832,-1.527
2026-05-21 17:47:38.679,1269198135,43679,1,0.86182,0.06543,0.3396,1.496,-14.504,0.626
2026-05-21 17:47:38.679,1269198135,43679,2,0.94556,0.18408,0.57666,0.351,-0.198,0.74
2026-05-21 17:47:38.879,1269198335,43879,1,0.92871,0.08374,0.34546,3.733,1.931,0.229
2026-05-21 17:47:38.879,1269198335,43879,2,0.92529,0.198,0.55737,7.153,8.076,2.939
2026-05-21 17:47:38.079,1269197535,44079,1,0.97314,0.07861,0.29883,-2.344,-3.901,-2.183
2026-05-21 17:47:38.079,1269197535,44079,2,0.89331,-0.03711,0.66675,-11.489,6.092,15.26
2026-05-21 17:47:38.279,1269197735,44279,1,0.92236,0.06982,0.33447,-0.74,-3.069,0.305
2026-05-21 17:47:38.279,1269197735,44279,2,0.93652,0.16357,0.61035,-2.771,-1.42,2.687
2026-05-21 17:47:39.479,1269198935,44479,1,0.94263,0.07837,0.3252,0.275,1.435,0.046
2026-05-21 17:47:39.479,1269198935,44479,2,0.93164,0.17407,0.5708,-3.802,-1.634,-0.183
2026-05-21 17:47:39.765,1269199221,44765,1,0.94824,0.07983,0.31104,-0.588,0.634,-0.687
2026-05-21 17:47:39.765,1269199221,44765,2,0.9668,0.23242,0.57886,-5.16,-0.992,-0.992
2026-05-21 17:47:39.965,1269199421,44965,1,0.92529,0.0769,0.34131,-3.29,0.504,0.046
2026-05-21 17:47:39.965,1269199421,44965,2,0.88843,0.18994,0.58203,-4.458,12.924,-7.779
2026-05-21 17:47:39.165,1269198621,45165,1,0.93848,0.0752,0.33228,-2.863,2.168,0.405
2026-05-21 17:47:39.165,1269198621,45165,2,0.95679,0.1377,0.52808,-18.397,5.015,-3.382
2026-05-21 17:47:39.365,1269198821,45365,1,0.93115,0.06152,0.34131,-2.443,0.374,-0.176
2026-05-21 17:47:39.365,1269198821,45365,2,0.95142,0.16895,0.60059,-4.076,-4.977,0.519
2026-05-21 17:47:40.565,1269200021,45565,1,0.93335,0.04053,0.34497,4.244,-4.962,-1.023
2026-05-21 17:47:40.565,1269200021,45565,2,0.94092,0.16821,0.60498,0.672,-4.87,-0.542
2026-05-21 17:47:40.765,1269200221,45765,1,0.95215,0.10718,0.30664,1.573,-1.229,-2.603
2026-05-21 17:47:40.765,1269200221,45765,2,0.94629,0.19702,0.53394,-3.366,-3.122,1.168
2026-05-21 17:47:40.965,1269200421,45965,1,0.9519,0.10034,0.30054,0.374,-1.71,1.954
2026-05-21 17:47:40.965,1269200421,45965,2,0.96021,0.19971,0.57251,3.206,4.603,2.183
2026-05-21 17:47:40.165,1269199621,46165,1,0.95117,0.09229,0.30396,-0.458,-0.626,-1.198
2026-05-21 17:47:40.165,1269199621,46165,2,0.97314,0.146,0.57813,-2.275,-3.802,1.275
2026-05-21 17:47:40.365,1269199821,46365,1,0.96338,0.09619,0.28857,-1.137,1.198,0.45
2026-05-21 17:47:40.365,1269199821,46365,2,0.95264,0.1875,0.57397,-3.191,0.74,1.802
2026-05-21 17:47:41.565,1269201021,46565,1,0.95752,0.10034,0.30078,-1.985,0.847,-0.786
2026-05-21 17:47:41.565,1269201021,46565,2,0.95044,0.18311,0.58765,-0.557,0.13,1.443
2026-05-21 17:47:41.765,1269201221,46765,1,0.95776,0.10229,0.3042,-3.229,-0.031,-2.42
2026-05-21 17:47:41.765,1269201221,46765,2,0.94873,0.18799,0.58813,-3.221,-1.015,0.817
2026-05-21 17:47:41.965,1269201421,46965,1,0.94507,0.10522,0.30981,0.137,2.084,-1.061
2026-05-21 17:47:41.965,1269201421,46965,2,0.93237,0.18555,0.57056,-1.031,-0.557,-1.16
2026-05-21 17:47:41.165,1269200621,47165,1,0.94385,0.07373,0.31128,13.275,-7.099,-1.916
2026-05-21 17:47:41.165,1269200621,47165,2,0.93579,0.16504,0.5791,5.252,-3.649,-10.656
2026-05-21 17:47:41.365,1269200821,47365,1,0.95459,0.19751,0.26172,19.603,9.084,8.382
2026-05-21 17:47:41.365,1269200821,47365,2,0.91846,0.26953,0.53467,11.611,10.519,-1.618
2026-05-21 17:47:42.565,1269202021,47565,1,0.98608,0.13477,0.27222,5.221,-4.519,-4.053
2026-05-21 17:47:42.565,1269202021,47565,2,0.95044,0.25806,0.55933,3.252,1.962,-6.023
2026-05-21 17:47:42.765,1269202221,47765,1,0.93896,0.18628,0.30786,21.573,-3.344,3.466
2026-05-21 17:47:42.765,1269202221,47765,2,0.92017,0.25195,0.57983,18.618,13.206,-3.435
2026-05-21 17:47:42.965,1269202421,47965,1,0.93579,0.22119,0.27759,7.908,-2.382,0.496
2026-05-21 17:47:42.965,1269202421,47965,2,0.91138,0.31445,0.63501,2.817,1.26,-2.046
2026-05-21 17:47:42.165,1269201621,48165,1,0.95068,0.20459,0.27051,-15.214,-3.588,-2.382
2026-05-21 17:47:42.165,1269201621,48165,2,0.91357,0.2937,0.59741,-12.046,-14.328,-1.664
2026-05-21 17:47:42.365,1269201821,48365,1,0.9502,0.19702,0.21411,-1.84,7.252,3.618
2026-05-21 17:47:42.365,1269201821,48365,2,0.92212,0.31274,0.55249,-0.344,12.511,2.58
2026-05-21 17:47:43.565,1269203021,48565,1,0.94482,0.17749,0.25879,-2.832,-0.618,-0.16
2026-05-21 17:47:43.565,1269203021,48565,2,0.91797,0.29297,0.5918,-1.695,-2.855,2.023
2026-05-21 17:47:43.765,1269203221,48765,1,0.95728,0.19043,0.24268,-7.809,-0.733,1.718
2026-05-21 17:47:43.765,1269203221,48765,2,0.92334,0.29224,0.57617,-0.015,3.885,3.687
2026-05-21 17:47:43.965,1269203421,48965,1,0.94336,0.17749,0.27295,-3.359,-1.519,1.763
2026-05-21 17:47:43.965,1269203421,48965,2,0.9209,0.29297,0.6001,-1.908,-2.779,2.206
2026-05-21 17:47:43.165,1269202621,49165,1,0.94727,0.17114,0.25879,-3.145,1.298,1.305
2026-05-21 17:47:43.165,1269202621,49165,2,0.92236,0.2915,0.58667,-0.351,1.176,1.817
2026-05-21 17:47:43.365,1269202821,49365,1,0.9668,0.17334,0.27002,-1.313,-1.076,0.794
2026-05-21 17:47:43.365,1269202821,49365,2,0.91919,0.29297,0.58228,-0.382,0.618,1.855
2026-05-21 17:47:44.565,1269204021,49565,1,0.95947,0.16748,0.26953,-3.473,0.031,-1.107
2026-05-21 17:47:44.565,1269204021,49565,2,0.9458,0.28418,0.55518,-1.824,0.924,0.809
2026-05-21 17:47:44.765,1269204221,49765,1,0.95313,0.16821,0.271,-1.611,0.695,0.504
2026-05-21 17:47:44.765,1269204221,49765,2,0.94702,0.30322,0.58252,1.359,0.038,2.672
2026-05-21 17:47:44.965,1269204421,49965,1,0.95752,0.17236,0.27637,-2.405,1.366,-0.198
2026-05-21 17:47:44.965,1269204421,49965,2,0.92065,0.28149,0.58716,-1.405,1.527,1.901
2026-05-21 17:47:44.165,1269203621,50165,1,0.94775,0.16602,0.26807,1.74,1.046,1.374
2026-05-21 17:47:44.165,1269203621,50165,2,0.92236,0.27417,0.5752,-1.282,3.534,0.55
2026-05-21 17:47:44.365,1269203821,50365,1,0.94116,0.16211,0.29443,6.511,4.527,5.466
2026-05-21 17:47:44.365,1269203821,50365,2,0.9248,0.28076,0.5918,4.969,2.84,-0.214
2026-05-21 17:47:45.565,1269205021,50565,1,0.94116,0.16675,0.27881,-3.931,2.588,3.672
2026-05-21 17:47:45.565,1269205021,50565,2,0.90112,0.28491,0.61157,-3.031,0.076,1.656
2026-05-21 17:47:45.765,1269205221,50765,1,0.95532,0.14697,0.27588,-1.855,3.29,1.71
2026-05-21 17:47:45.765,1269205221,50765,2,0.91675,0.27783,0.60571,0.42,3.344,2.168
2026-05-21 17:47:45.965,1269205421,50965,1,0.95142,0.13745,0.29028,-2.824,1.031,0.527
2026-05-21 17:47:45.965,1269205421,50965,2,0.90137,0.29419,0.64282,-2.42,-2.893,2.763
2026-05-21 17:47:45.165,1269204621,51165,1,0.94775,0.13037,0.29468,-2.053,1.84,0.931
2026-05-21 17:47:45.165,1269204621,51165,2,0.91089,0.2832,0.61182,-1.351,1.794,1.26
2026-05-21 17:47:45.365,1269204821,51365,1,0.94751,0.13208,0.30591,-2.351,0.611,-0.527
2026-05-21 17:47:45.365,1269204821,51365,2,0.91895,0.28369,0.62549,-1.947,0.908,0.809
2026-05-21 17:47:46.565,1269206021,51565,1,0.94531,0.14233,0.2959,-2.099,0.534,-0.351
2026-05-21 17:47:46.565,1269206021,51565,2,0.92114,0.28906,0.61719,-0.939,1.534,0.786
2026-05-21 17:47:46.765,1269206221,51765,1,0.9436,0.14478,0.29858,-2.412,0.511,-0.382
2026-05-21 17:47:46.765,1269206221,51765,2,0.9165,0.28125,0.60669,-1.771,1.084,1.0
2026-05-21 17:47:46.965,1269206421,51965,1,0.94092,0.13965,0.3103,0.298,2.412,1.42
2026-05-21 17:47:46.965,1269206421,51965,2,0.92017,0.28491,0.61035,-0.718,2.275,1.015
2026-05-21 17:47:46.165,1269205621,52165,1,0.94019,0.12866,0.31445,3.504,4.382,3.702
2026-05-21 17:47:46.165,1269205621,52165,2,0.90942,0.28833,0.62915,1.779,3.557,0.962
2026-05-21 17:47:46.365,1269205821,52365,1,0.94019,0.14478,0.31396,-0.893,5.42,0.061
2026-05-21 17:47:46.365,1269205821,52365,2,0.91919,0.29395,0.61426,-4.656,3.679,0.328
2026-05-21 17:47:47.565,1269207021,52565,1,0.92993,0.13403,0.34375,-0.229,3.718,1.595
2026-05-21 17:47:47.565,1269207021,52565,2,0.93555,0.2749,0.65259,8.183,1.374,1.84
2026-05-21 17:47:47.765,1269207221,52765,1,0.9187,0.13159,0.34155,-1.405,2.076,0.977
2026-05-21 17:47:47.765,1269207221,52765,2,0.91089,0.28296,0.6521,-1.481,2.992,1.954
2026-05-21 17:47:47.965,1269207421,52965,1,0.92139,0.12988,0.3562,-2.519,0.473,-0.603
2026-05-21 17:47:47.965,1269207421,52965,2,0.90186,0.271,0.67871,-0.954,-1.817,3.45
2026-05-21 17:47:47.165,1269206621,53165,1,0.91895,0.12256,0.34644,-2.786,-1.641,-1.885
2026-05-21 17:47:47.165,1269206621,53165,2,0.91089,0.28467,0.65161,-2.107,-0.855,1.435
2026-05-21 17:47:47.365,1269206821,53365,1,0.92285,0.12988,0.32959,-1.809,-1.336,-1.496
2026-05-21 17:47:47.365,1269206821,53365,2,0.90918,0.28687,0.63745,-2.115,-0.985,1.863
2026-05-21 17:47:48.565,1269208021,53565,1,0.93481,0.13965,0.31689,-1.748,-2.573,-2.702
2026-05-21 17:47:48.565,1269208021,53565,2,0.91797,0.27686,0.63086,-0.695,-2.076,0.718
2026-05-21 17:47:48.765,1269208221,53765,1,0.93286,0.14136,0.32031,-1.947,0.832,0.366
2026-05-21 17:47:48.765,1269208221,53765,2,0.9248,0.26782,0.62451,1.008,1.954,1.794
2026-05-21 17:47:48.965,1269208421,53965,1,0.92383,0.12964,0.33423,-4.221,-2.542,-1.046
2026-05-21 17:47:48.965,1269208421,53965,2,0.91553,0.28906,0.61426,-0.786,-1.16,2.046
2026-05-21 17:47:48.165,1269207621,54165,1,0.93213,0.12158,0.32056,-0.695,-2.573,0.351
2026-05-21 17:47:48.165,1269207621,54165,2,0.85522,0.24487,0.60645,2.763,3.42,-0.382
2026-05-21 17:47:48.365,1269207821,54365,1,0.94092,0.15503,0.29517,-1.061,-2.29,-5.015
2026-05-21 17:47:48.365,1269207821,54365,2,0.90869,0.29834,0.59595,-2.191,-0.534,1.099
2026-05-21 17:47:49.565,1269209021,54565,1,0.94189,0.17798,0.27197,-2.504,-3.038,-3.733
2026-05-21 17:47:49.565,1269209021,54565,2,0.92114,0.28589,0.60083,-4.733,-1.275,4.321
2026-05-21 17:47:49.765,1269209221,54765,1,0.93579,0.1792,0.27515,-9.863,-0.679,-1.664
2026-05-21 17:47:49.765,1269209221,54765,2,0.91577,0.27832,0.60229,-13.397,-3.458,5.389
2026-05-21 17:47:49.965,1269209421,54965,1,0.93164,0.15234,0.32642,1.023,-7.198,1.015
2026-05-21 17:47:49.965,1269209421,54965,2,0.91821,0.26025,0.625,0.947,-0.496,11.603
2026-05-21 17:47:49.165,1269208621,55165,1,0.92505,0.16235,0.32544,-12.29,-15.969,-2.763
2026-05-21 17:47:49.165,1269208621,55165,2,0.92725,0.20728,0.59424,-5.023,-19.42,8.198
2026-05-21 17:47:49.365,1269208821,55365,1,0.99829,0.1001,0.22095,-17.389,0.061,6.313
2026-05-21 17:47:49.365,1269208821,55365,2,0.95557,0.18579,0.52466,7.015,8.962,3.664
2026-05-21 17:47:50.565,1269210021,55565,1,0.96582,0.12866,0.23218,3.649,-8.26,-7.672
2026-05-21 17:47:50.565,1269210021,55565,2,0.94116,0.1709,0.50586,-3.122,-16.412,0.725
2026-05-21 17:47:50.765,1269210221,55765,1,1.03833,0.11865,0.16382,5.214,-7.542,-0.267
2026-05-21 17:47:50.765,1269210221,55765,2,0.9751,0.22461,0.46924,-2.603,4.344,-6.855
2026-05-21 17:47:50.965,1269210421,55965,1,0.96729,0.2124,0.17603,3.748,-3.84,-2.008
2026-05-21 17:47:50.965,1269210421,55965,2,0.93652,0.22534,0.46216,-3.855,0.366,-1.084
2026-05-21 17:47:50.165,1269209621,56165,1,1.00171,0.16797,0.18335,-6.504,3.466,1.542
2026-05-21 17:47:50.165,1269209621,56165,2,0.95117,0.21533,0.52466,4.527,13.557,-0.244
2026-05-21 17:47:50.365,1269209821,56365,1,0.98511,0.21704,0.19409,-13.382,9.458,6.931
2026-05-21 17:47:50.365,1269209821,56365,2,0.95264,0.26563,0.54419,-10.794,-1.885,11.366
2026-05-21 17:47:51.565,1269211021,56565,1,1.0127,0.10767,0.22461,-31.405,21.756,4.0
2026-05-21 17:47:51.565,1269211021,56565,2,0.97827,0.11646,0.48853,-24.16,24.817,2.214
2026-05-21 17:47:51.765,1269211221,56765,1,0.93286,0.021,0.31641,-8.641,-2.687,10.702
2026-05-21 17:47:51.765,1269211221,56765,2,0.95703,0.17554,0.59473,-2.664,-10.649,13.076
2026-05-21 17:47:51.965,1269211421,56965,1,0.93091,0.0293,0.32764,-6.008,17.473,-0.947
2026-05-21 17:47:51.965,1269211421,56965,2,0.93945,0.07642,0.60693,-9.878,1.42,11.573
2026-05-21 17:47:51.165,1269210621,57165,1,0.92505,-0.04297,0.37598,-8.511,1.092,8.473
2026-05-21 17:47:51.165,1269210621,57165,2,0.94604,-0.00073,0.63062,2.595,1.573,8.687
2026-05-21 17:47:51.365,1269210821,57365,1,0.93506,-0.05688,0.35425,-5.809,-3.855,3.267
2026-05-21 17:47:51.365,1269210821,57365,2,0.95801,0.08032,0.61963,-10.74,-6.626,0.435
2026-05-21 17:47:52.565,1269212021,57565,1,0.98291,0.01074,0.32129,11.702,-10.489,-5.42
2026-05-21 17:47:52.565,1269212021,57565,2,0.94458,0.06201,0.5813,-3.16,-7.29,-2.656
2026-05-21 17:47:52.765,1269212221,57765,1,0.9707,-0.00366,0.30591,-11.756,0.924,-4.42
2026-05-21 17:47:52.765,1269212221,57765,2,0.96753,0.05518,0.60083,1.321,12.939,-0.336
2026-05-21 17:47:52.965,1269212421,57965,1,0.94189,0.00537,0.33447,-2.824,2.542,2.061
2026-05-21 17:47:52.965,1269212421,57965,2,0.94019,0.07056,0.60156,-10.198,-7.664,-0.16
2026-05-21 17:47:52.165,1269211621,58165,1,0.92554,-0.02075,0.35205,-2.901,-2.626,2.878
2026-05-21 17:47:52.165,1269211621,58165,2,0.96973,0.0708,0.63818,-1.962,-1.725,-5.26
2026-05-21 17:47:52.365,1269211821,58365,1,0.94263,-0.00781,0.3374,0.214,-2.809,-0.832
2026-05-21 17:47:52.365,1269211821,58365,2,0.94214,0.13232,0.60132,-3.603,-3.847,-1.427
2026-05-21 17:47:53.565,1269213021,58565,1,0.95044,0.05005,0.28369,1.092,-2.855,-9.969
2026-05-21 17:47:53.565,1269213021,58565,2,0.96802,0.12378,0.59863,1.901,-2.725,7.092
2026-05-21 17:47:53.765,1269213221,58765,1,0.94971,0.03467,0.30835,-3.58,-1.015,-2.099
2026-05-21 17:47:53.765,1269213221,58765,2,0.97412,0.05078,0.60522,4.145,3.916,1.84
2026-05-21 17:47:53.965,1269213421,58965,1,0.93896,0.00684,0.31787,-6.336,4.053,4.634
2026-05-21 17:47:53.965,1269213421,58965,2,0.94995,0.08081,0.59155,0.985,1.435,-0.237
2026-05-21 17:47:53.165,1269212621,59165,1,0.9563,0.02783,0.31958,0.015,2.641,0.786
2026-05-21 17:47:53.165,1269212621,59165,2,0.97168,0.11914,0.61499,-1.389,3.84,-0.557
2026-05-21 17:47:53.365,1269212821,59365,1,0.94189,0.03687,0.33228,-2.321,3.153,-1.008
2026-05-21 17:47:53.365,1269212821,59365,2,0.95288,0.07739,0.60547,-2.16,2.992,3.099
2026-05-21 17:47:54.565,1269214021,59565,1,0.95361,0.00781,0.33691,-2.198,1.153,2.053
2026-05-21 17:47:54.565,1269214021,59565,2,0.95532,0.07813,0.60474,-0.397,1.489,1.137
2026-05-21 17:47:54.765,1269214221,59765,1,0.94897,-0.01172,0.35034,-2.901,1.076,1.992
2026-05-21 17:47:54.765,1269214221,59765,2,0.96338,0.08105,0.59717,2.656,3.267,-2.511
2026-05-21 17:47:54.965,1269214421,59965,1,0.94531,-0.00391,0.33154,1.58,-0.206,-3.191
2026-05-21 17:47:54.965,1269214421,59965,2,0.94653,0.12305,0.61157,-0.137,1.092,-3.679
2026-05-21 17:47:54.165,1269213621,60165,1,0.92773,0.05054,0.33179,-0.061,0.748,-5.901
2026-05-21 17:47:54.165,1269213621,60165,2,0.94019,0.11914,0.60962,-1.649,-0.29,-2.496
2026-05-21 17:47:54.365,1269213821,60365,1,0.93799,0.04858,0.3479,-1.282,-0.824,-1.374
2026-05-21 17:47:54.365,1269213821,60365,2,0.95435,0.13086,0.60986,1.115,0.481,0.595
2026-05-21 17:47:55.565,1269215021,60565,1,0.94482,0.04834,0.33838,-4.153,3.26,1.038
2026-05-21 17:47:55.565,1269215021,60565,2,0.94702,0.13501,0.60938,0.13,2.366,1.969
2026-05-21 17:47:55.765,1269215221,60765,1,0.94482,0.04492,0.33228,-1.786,-0.893,1.74
2026-05-21 17:47:55.765,1269215221,60765,2,0.95435,0.13379,0.60278,-1.412,-0.229,2.962
2026-05-21 17:47:55.965,1269215421,60965,1,0.94238,0.01855,0.31982,-2.26,8.725,-2.885
2026-05-21 17:47:55.965,1269215421,60965,2,0.92603,0.11426,0.66626,-7.038,-0.87,-0.321
2026-05-21 17:47:55.165,1269214621,61165,1,0.94238,0.01172,0.34424,-1.794,-2.305,4.733
2026-05-21 17:47:55.165,1269214621,61165,2,0.98999,0.1543,0.60083,2.252,1.298,-0.443
2026-05-21 17:47:55.365,1269214821,61365,1,0.93042,0.01685,0.33252,0.626,-0.748,-0.252
2026-05-21 17:47:55.365,1269214821,61365,2,0.93823,0.13428,0.61816,0.84,0.168,7.626
2026-05-21 17:47:56.565,1269216021,61565,1,0.948,0.01489,0.32349,-0.939,4.763,1.313
2026-05-21 17:47:56.565,1269216021,61565,2,0.76221,0.15332,0.74072,-5.634,6.626,3.527
2026-05-21 17:47:56.765,1269216221,61765,1,0.89673,0.01465,0.40381,-1.908,0.214,0.046
2026-05-21 17:47:56.765,1269216221,61765,2,0.93506,0.11646,0.65283,0.244,-1.763,1.863
2026-05-21 17:47:56.965,1269216421,61965,1,0.92847,0.02075,0.35791,-3.74,0.832,0.794
2026-05-21 17:47:56.965,1269216421,61965,2,0.94238,0.12378,0.64502,-2.458,0.427,2.542
2026-05-21 17:47:56.165,1269215621,62165,1,0.91138,0.02002,0.34351,-5.969,-3.893,-0.389
2026-05-21 17:47:56.165,1269215621,62165,2,0.94507,0.11206,0.63599,-6.885,-4.794,3.893
2026-05-21 17:47:56.365,1269215821,62365,1,0.93872,-0.00732,0.33569,-2.153,2.672,-0.771
2026-05-21 17:47:56.365,1269215821,62365,2,0.94409,0.11475,0.67065,-1.824,9.282,-3.817
2026-05-21 17:47:57.565,1269217021,62565,1,0.9353,-0.00464,0.36426,-4.046,-1.153,0.954
2026-05-21 17:47:57.565,1269217021,62565,2,0.96118,0.09473,0.61426,0.183,0.023,3.176
2026-05-21 17:47:57.765,1269217221,62765,1,0.95142,-0.01172,0.34473,-13.458,-0.916,7.122
2026-05-21 17:47:57.765,1269217221,62765,2,0.96387,0.07617,0.6084,-3.656,0.588,4.748
2026-05-21 17:47:57.965,1269217421,62965,1,0.92285,-0.07935,0.34619,-4.389,-5.13,6.229
2026-05-21 17:47:57.965,1269217421,62965,2,0.94238,0.09229,0.62769,0.55,-5.618,6.588
2026-05-21 17:47:57.165,1269216621,63165,1,0.94629,-0.06787,0.32153,,3.672,-5.672
2026-05-21 17:47:57.165,1269216621,63165,2,0.96875,0.02734,0.61572,-4.771,3.573,4.275
2026-05-21 17:47:57.365,1269216821,63365,1,0.93237,-0.06885,0.3562,-0.863,3.786,-2.344
2026-05-21 17:47:57.365,1269216821,63365,2,0.95996,0.02637,0.57764,-1.588,-2.611,-2.824
2026-05-21 17:47:58.565,1269218021,63565,1,0.90479,-0.08594,0.37012,10.42,-13.626,-10.0
2026-05-21 17:47:58.565,1269218021,63565,2,0.9519,0.06836,0.56372,2.466,-12.702,-9.511
2026-05-21 17:47:58.765,1269218221,63765,1,0.96802,0.03979,0.21509,10.053,5.053,0.267
2026-05-21 17:47:58.765,1269218221,63765,2,0.97412,0.09595,0.59448,28.817,25.092,-8.344
2026-05-21 17:47:58.965,1269218421,63965,1,0.9519,0.05249,0.30688,0.504,1.221,-8.511
2026-05-21 17:47:58.965,1269218421,63965,2,0.93945,0.16699,0.58496,-11.053,-4.565,-6.473
2026-05-21 17:47:58.165,1269217621,64165,1,0.9502,0.09961,0.31665,3.664,4.664,-3.786
2026-05-21 17:47:58.165,1269217621,64165,2,0.89233,0.20581,0.61914,8.649,7.687,1.634
2026-05-21 17:47:58.365,1269217821,64365,1,0.90894,0.1062,0.34082,2.664,1.237,-0.298
2026-05-21 17:47:58.365,1269217821,64365,2,0.9248,0.22046,0.6189,-0.832,3.954,-4.29
2026-05-21 17:47:59.565,1269219021,64565,1,0.94897,0.09863,0.30981,-1.076,-5.099,-0.924
2026-05-21 17:47:59.565,1269219021,64565,2,0.93188,0.22754,0.61133,-2.885,-2.069,1.931
2026-05-21 17:47:59.765,1269219221,64765,1,0.98584,0.12744,0.28271,-3.244,-2.626,-1.153
2026-05-21 17:47:59.765,1269219221,64765,2,0.94946,0.21387,0.57471,-3.908,5.565,1.885
2026-05-21 17:47:59.965,1269219421,64965,1,0.97144,0.09473,0.26709,-6.893,-3.069,0.626
2026-05-21 17:47:59.965,1269219421,64965,2,0.93677,0.20508,0.58691,-2.313,4.252,8.015
2026-05-21 17:47:59.165,1269218621,65165,1,0.96606,0.07471,0.29004,-12.519,-0.847,-0.015
2026-05-21 17:47:59.165,1269218621,65165,2,0.92383,0.16333,0.60254,-0.267,4.145,9.458
2026-05-21 17:47:59.365,1269218821,65365,1,0.94336,0.07642,0.31689,-10.939,-1.695,-0.076
2026-05-21 17:47:59.365,1269218821,65365,2,0.92969,0.12158,0.6394,-20.771,-16.191,4.71
2026-05-21 17:48:00.565,1269220021,65565,1,0.96045,0.14453,0.27002,-6.771,1.664,1.908
2026-05-21 17:48:00.565,1269220021,65565,2,0.97485,0.17383,0.56836,-5.382,-10.603,5.534
2026-05-21 17:48:00.765,1269220221,65765,1,0.9646,0.11353,0.23901,6.031,-7.099,7.382
2026-05-21 17:48:00.765,1269220221,65765,2,0.97803,0.16016,0.54956,10.611,1.405,4.954
2026-05-21 17:48:00.965,1269220421,65965,1,1.00781,0.02563,0.2583,-10.641,2.847,7.817
2026-05-21 17:48:00.965,1269220421,65965,2,0.96997,0.08374,0.56201,-0.229,2.267,12.534
2026-05-21 17:48:00.165,1269219621,66165,1,0.98608,0.01343,0.24438,-11.313,2.214,3.45
2026-05-21 17:48:00.165,1269219621,66165,2,0.95703,0.1062,0.5083,-11.053,-8.481,10.756
2026-05-21 17:48:00.365,1269219821,66365,1,0.96948,-0.05737,0.29126,4.634,2.931,5.954
2026-05-21 17:48:00.365,1269219821,66365,2,0.9707,0.04565,0.56152,11.931,11.771,7.679
2026-05-21 17:48:01.565,1269221021,66565,1,0.95068,-0.06592,0.302,-9.45,6.939,2.29
2026-05-21 17:48:01.565,1269221021,66565,2,0.96973,0.01221,0.58105,-7.435,0.252,4.557
2026-05-21 17:48:01.765,1269221221,66765,1,0.96216,-0.09888,0.33813,-1.748,3.313,-5.58
2026-05-21 17:48:01.765,1269221221,66765,2,0.96021,-0.02759,0.56689,-9.038,-4.435,1.878
2026-05-21 17:48:01.965,1269221421,66965,1,0.96948,-0.02222,0.28809,2.947,-2.588,-1.695
2026-05-21 17:48:01.965,1269221421,66965,2,0.96167,0.05688,0.55737,5.817,-2.382,0.412
2026-05-21 17:48:01.165,1269220621,67165,1,0.94165,-0.03735,0.33228,-4.046,4.756,-4.687
2026-05-21 17:48:01.165,1269220621,67165,2,0.96509,0.03296,0.57593,-0.45,11.649,-0.359
2026-05-21 17:48:01.365,1269220821,67365,1,0.93628,-0.03809,0.31836,-7.107,0.618,-0.13
2026-05-21 17:48:01.365,1269220821,67365,2,0.95605,0.0437,0.58594,1.511,-2.206,-2.092
2026-05-21 17:48:02.565,1269222021,67565,1,0.94873,-0.01929,0.33032,2.115,0.389,-0.26
2026-05-21 17:48:02.565,1269222021,67565,2,0.96826,0.07861,0.56836,0.687,1.74,0.603
2026-05-21 17:48:02.765,1269222221,67765,1,0.93872,-0.01147,0.3335,-5.412,1.511,-3.511
2026-05-21 17:48:02.765,1269222221,67765,2,0.95654,0.03198,0.56958,-5.244,-1.588,1.855
2026-05-21 17:48:02.965,1269222421,67965,1,0.94971,-0.02637,0.32178,-0.137,-0.412,0.824
2026-05-21 17:48:02.965,1269222421,67965,2,0.96631,0.05542,0.5813,2.802,1.84,0.786
2026-05-21 17:48:02.165,1269221621,68165,1,0.95679,-0.01416,0.32593,-1.565,-1.168,-1.481
2026-05-21 17:48:02.165,1269221621,68165,2,0.96729,0.04614,0.57666,-2.305,-0.504,1.115
2026-05-21 17:48:02.365,1269221821,68365,1,0.94727,-0.00586,0.32227,-1.695,0.466,0.115
2026-05-21 17:48:02.365,1269221821,68365,2,0.95703,0.05542,0.573,-1.786,1.176,1.511
2026-05-21 17:48:03.565,1269223021,68565,1,0.95068,-0.02661,0.3313,-1.847,0.695,0.046
2026-05-21 17:48:03.565,1269223021,68565,2,0.96045,0.05566,0.58789,-3.336,1.122,1.763
2026-05-21 17:48:03.765,1269223221,68765,1,0.9458,-0.01465,0.32837,-1.45,0.802,1.13
2026-05-21 17:48:03.765,1269223221,68765,2,0.96069,0.05371,0.57764,-0.137,2.702,2.542
2026-05-21 17:48:03.965,1269223421,68965,1,0.94775,-0.02905,0.33057,-3.595,0.702,0.183
2026-05-21 17:48:03.965,1269223421,68965,2,0.95996,0.03882,0.58081,-0.954,0.863,2.191
2026-05-21 17:48:03.165,1269222621,69165,1,0.95142,-0.01904,0.31763,-2.55,0.214,-0.053
2026-05-21 17:48:03.165,1269222621,69165,2,0.96411,0.04102,0.58813,-2.344,-1.076,1.489
2026-05-21 17:48:03.365,1269222821,69365,1,0.95605,-0.02124,0.31689,0.519,0.374,0.992
2026-05-21 17:48:03.365,1269222821,69365,2,0.95825,0.04883,0.57031,-0.031,1.198,2.191
2026-05-21 17:48:04.565,1269224021,69565,1,0.94849,-0.03052,0.31714,-3.031,0.13,0.641
2026-05-21 17:48:04.565,1269224021,69565,2,0.9563,0.03369,0.57666,-1.603,1.191,2.13
2026-05-21 17:48:04.765,1269224221,69765,1,0.93457,-0.02441,0.31543,2.473,2.015,0.481
2026-05-21 17:48:04.765,1269224221,69765,2,0.96338,0.05151,0.57617,0.985,1.664,2.809
2026-05-21 17:48:04.965,1269224421,69965,1,0.94556,-0.03687,0.32422,-2.198,2.305,2.366
2026-05-21 17:48:04.965,1269224421,69965,2,0.95264,0.02075,0.59326,-0.626,1.443,2.618
2026-05-21 17:48:04.165,1269223621,70165,1,0.92334,-0.04907,0.35596,-2.237,2.214,1.916
2026-05-21 17:48:04.165,1269223621,70165,2,0.94434,0.02856,0.60278,-1.992,1.374,1.305
2026-05-21 17:48:04.365,1269223821,70365,1,0.93042,-0.05347,0.33838,-1.794,-2.26,-1.557
2026-05-21 17:48:04.365,1269223821,70365,2,0.95703,0.03149,0.58765,-1.092,-1.099,-1.015
2026-05-21 17:48:05.565,1269225021,70565,1,0.94336,-0.02905,0.323,-2.466,-3.588,-3.176
2026-05-21 17:48:05.565,1269225021,70565,2,0.96094,0.04663,0.59009,-2.817,-1.008,-1.275
2026-05-21 17:48:05.765,1269225221,70765,1,0.94727,0.03101,0.29883,-11.893,1.679,4.985
2026-05-21 17:48:05.765,1269225221,70765,2,0.95923,0.09717,0.57422,-1.031,10.656,2.786
2026-05-21 17:48:05.965,1269225421,70965,1,0.94385,-0.08105,0.37598,-21.985,1.809,-17.786
2026-05-21 17:48:05.965,1269225421,70965,2,0.95386,-0.04517,0.57397,-13.908,-10.893,-4.115
2026-05-21 17:48:05.165,1269224621,71165,1,0.94727,-0.02954,0.31348,20.237,-4.893,7.061
2026-05-21 17:48:05.165,1269224621,71165,2,0.95801,0.073,0.5686,16.687,0.183,-0.313
2026-05-21 17:48:05.365,1269224821,71365,1,0.96094,0.00195,0.31494,7.763,1.634,-1.397
2026-05-21 17:48:05.365,1269224821,71365,2,0.96826,0.08008,0.55151,4.817,5.855,-2.458
2026-05-21 17:48:06.565,1269226021,71565,1,0.95898,-0.00342,0.30615,-2.519,2.282,1.252
2026-05-21 17:48:06.565,1269226021,71565,2,0.96655,0.09204,0.5752,-1.221,2.107,-0.588
2026-05-21 17:48:06.765,1269226221,71765,1,0.94116,0.00293,0.32715,-1.092,0.382,-0.588
2026-05-21 17:48:06.765,1269226221,71765,2,0.9646,0.08301,0.5647,0.061,0.931,2.55
2026-05-21 17:48:06.965,1269226421,71965,1,0.9519,-0.00488,0.31519,-3.939,-0.397,-0.26
2026-05-21 17:48:06.965,1269226421,71965,2,0.95679,0.06445,0.58276,-4.115,0.099,3.336
2026-05-21 17:48:06.165,1269225621,72165,1,0.93774,-0.03149,0.33081,-1.458,0.87,3.473
2026-05-21 17:48:06.165,1269225621,72165,2,0.95972,0.06152,0.56519,-1.198,0.947,1.901
2026-05-21 17:48:06.365,1269225821,72365,1,0.94458,-0.02002,0.32153,-1.458,-0.221,-0.656
2026-05-21 17:48:06.365,1269225821,72365,2,0.96191,0.07739,0.59204,-2.26,-0.405,0.458
2026-05-21 17:48:07.565,1269227021,72565,1,0.94629,-0.01416,0.32227,1.893,-1.389,-0.84
2026-05-21 17:48:07.565,1269227021,72565,2,0.9624,0.07104,0.5769,1.282,0.496,1.618
2026-05-21 17:48:07.765,1269227221,72765,1,0.97876,-0.01929,0.32861,12.069,-16.015,5.87
2026-05-21 17:48:07.765,1269227221,72765,2,0.95532,0.07788,0.60986,25.191,29.466,2.672
2026-05-21 17:48:07.965,1269227421,72965,1,0.97119,-0.0271,0.32373,-12.954,8.305,-2.817
2026-05-21 17:48:07.965,1269227421,72965,2,0.95728,0.0603,0.58105,-25.595,-13.794,3.695
2026-05-21 17:48:07.165,1269226621,73165,1,0.95166,-0.03662,0.32349,-4.321,1.344,0.557
2026-05-21 17:48:07.165,1269226621,73165,2,0.9585,0.04712,0.59204,-24.489,-13.038,2.443
2026-05-21 17:48:07.365,1269226821,73365,1,0.94824,-0.04517,0.3313,3.145,2.336,-0.74
2026-05-21 17:48:07.365,1269226821,73365,2,0.96704,0.06006,0.62427,-9.664,-0.374,0.29
2026-05-21 17:48:08.565,1269228021,73565,1,0.92285,-0.02246,0.3418,4.84,3.366,-5.344
2026-05-21 17:48:08.565,1269228021,73565,2,0.96509,0.0481,0.60132,-1.611,5.374,-3.519
2026-05-21 17:48:08.765,1269228221,73765,1,0.91748,0.00684,0.36182,-4.916,2.992,-1.687
2026-05-21 17:48:08.765,1269228221,73765,2,0.96704,0.06641,0.58472,2.321,0.595,1.076
2026-05-21 17:48:08.965,1269228421,73965,1,0.90942,,0.34912,-11.221,7.107,-7.206
2026-05-21 17:48:08.965,1269228421,73965,2,0.92749,0.08447,0.60938,5.817,9.84,-0.26
2026-05-21 17:48:08.165,1269227621,74165,1,0.93091,0.02515,0.38159,5.603,-1.076,0.191
2026-05-21 17:48:08.165,1269227621,74165,2,0.97827,0.10596,0.62671,8.29,9.382,2.412
2026-05-21 17:48:08.365,1269227821,74365,1,0.89307,0.021,0.36572,-13.924,2.649,0.832
2026-05-21 17:48:08.365,1269227821,74365,2,0.95605,0.05908,0.63843,-5.824,4.802,3.58
2026-05-21 17:48:09.565,1269229021,74565,1,0.93262,0.00562,0.36841,6.725,-0.305,-0.176
2026-05-21 17:48:09.565,1269229021,74565,2,0.95239,0.09521,0.62231,10.718,4.931,2.206
2026-05-21 17:48:09.765,1269229221,74765,1,0.91333,0.04102,0.38257,0.679,2.115,-1.382
2026-05-21 17:48:09.765,1269229221,74765,2,0.96094,0.1062,0.62305,-10.214,1.382,-1.802
2026-05-21 17:48:09.965,1269229421,74965,1,0.90576,0.00513,0.37915,-13.947,4.344,0.908
2026-05-21 17:48:09.965,1269229421,74965,2,0.94482,0.09937,0.61475,0.74,5.824,2.046
2026-05-21 17:48:09.165,1269228621,75165,1,0.91553,0.01245,0.39185,-0.42,-1.962,-2.16
2026-05-21 17:48:09.165,1269228621,75165,2,0.95898,0.09375,0.62085,9.305,2.069,2.954
2026-05-21 17:48:09.365,1269228821,75365,1,0.90625,0.02637,0.38574,0.061,-2.687,-2.221
2026-05-21 17:48:09.365,1269228821,75365,2,0.95483,0.09863,0.61426,-5.336,-4.924,1.794
2026-05-21 17:48:10.565,1269230021,75565,1,0.91113,0.00024,0.37476,-7.443,-0.298,0.672
2026-05-21 17:48:10.565,1269230021,75565,2,0.9436,0.06763,0.62646,-6.42,3.695,-0.496
2026-05-21 17:48:10.765,1269230221,75765,1,0.93115,0.01025,0.3833,5.542,-0.695,1.962
2026-05-21 17:48:10.765,1269230221,75765,2,0.96777,0.10791,0.59814,3.756,-4.42,0.183
2026-05-21 17:48:10.965,1269230421,75965,1,0.92847,0.0293,0.35889,2.137,-1.695,-1.687
2026-05-21 17:48:10.965,1269230421,75965,2,0.96021,0.10815,0.60083,-6.229,-0.466,-0.527
2026-05-21 17:48:10.165,1269229621,76165,1,0.92578,0.01929,0.3606,-4.282,2.336,0.458
2026-05-21 17:48:10.165,1269229621,76165,2,0.93921,0.09204,0.59814,1.771,4.282,0.626
2026-05-21 17:48:10.365,1269229821,76365,1,0.91919,0.02612,0.38062,0.954,-0.191,0.504
2026-05-21 17:48:10.365,1269229821,76365,2,0.95605,0.11377,0.61914,1.443,0.603,0.863
2026-05-21 17:48:11.565,1269231021,76565,1,0.91577,0.02466,0.38257,-4.107,1.45,0.145
2026-05-21 17:48:11.565,1269231021,76565,2,0.94165,0.09839,0.62183,-2.412,1.931,2.275
2026-05-21 17:48:11.765,1269231221,76765,1,0.9187,0.00928,0.37573,-1.344,0.282,1.244
2026-05-21 17:48:11.765,1269231221,76765,2,0.94946,0.10742,0.61572,1.901,0.832,1.626
2026-05-21 17:48:11.965,1269231421,76965,1,0.91772,0.02661,0.36426,-2.542,-0.496,1.229
2026-05-21 17:48:11.965,1269231421,76965,2,0.94702,0.10962,0.60938,-0.588,1.985,2.695
2026-05-21 17:48:11.165,1269230621,77165,1,0.9231,-0.00708,0.37622,-3.924,-0.45,-1.176
2026-05-21 17:48:11.165,1269230621,77165,2,0.94824,0.09448,0.5918,-0.145,1.779,1.313
2026-05-21 17:48:11.365,1269230821,77365,1,0.91895,0.0188,0.35791,-2.13,-6.344,2.282
2026-05-21 17:48:11.365,1269230821,77365,2,0.948,0.0979,0.61719,-3.237,-3.893,4.26
2026-05-21 17:48:12.565,1269232021,77565,1,0.9209,0.03125,0.35938,-1.321,0.405,0.954
2026-05-21 17:48:12.565,1269232021,77565,2,0.95142,0.10571,0.60303,-8.496,-2.611,6.412
2026-05-21 17:48:12.765,1269232221,77765,1,0.91504,0.01587,0.35059,6.496,-0.626,1.832
2026-05-21 17:48:12.765,1269232221,77765,2,0.94775,0.08105,0.61108,5.275,-2.443,0.962
2026-05-21 17:48:12.965,1269232421,77965,1,0.94141,0.02417,0.29321,-2.901,-2.626,-2.71
2026-05-21 17:48:12.965,1269232421,77965,2,0.98389,-0.03076,0.51489,-11.641,-9.023,13.557
2026-05-21 17:48:12.165,1269231621,78165,1,0.95654,-0.05103,0.30347,11.542,-7.038,16.802
2026-05-21 17:48:12.165,1269231621,78165,2,0.92725,-0.0144,0.55127,25.481,-1.664,6.786
2026-05-21 17:48:12.365,1269231821,78365,1,0.97168,-0.10571,0.28467,-2.733,-19.16,1.687
2026-05-21 17:48:12.365,1269231821,78365,2,0.92798,-0.08154,0.51392,6.0,-11.885,-3.504
2026-05-21 17:48:13.565,1269233021,78565,1,0.96631,-0.04126,0.28101,-8.863,2.618,1.313
2026-05-21 17:48:13.565,1269233021,78565,2,0.97461,0.06445,0.43115,-5.916,14.13,-2.847
2026-05-21 17:48:13.765,1269233221,78765,1,0.98438,-0.02734,0.16504,8.282,-18.374,3.458
2026-05-21 17:48:13.765,1269233221,78765,2,0.90698,0.09253,0.46509,20.099,-1.84,-3.16
2026-05-21 17:48:13.965,1269233421,78965,1,1.0249,-0.0061,0.15747,10.527,12.802,1.84
2026-05-21 17:48:13.965,1269233421,78965,2,0.9397,0.10938,0.50415,-12.305,-0.237,-3.55
2026-05-21 17:48:13.165,1269232621,79165,1,0.979,-0.00366,0.2417,-8.573,19.893,-8.344
2026-05-21 17:48:13.165,1269232621,79165,2,0.9436,0.05273,0.50854,-6.031,4.588,4.397
2026-05-21 17:48:13.365,1269232821,79365,1,0.98462,0.02124,0.2959,-14.397,3.336,-1.214
2026-05-21 17:48:13.365,1269232821,79365,2,1.0061,0.0686,0.49976,-20.588,4.092,1.45
2026-05-21 17:48:14.565,1269234021,79565,1,0.96436,-0.06934,0.26514,11.122,1.107,1.527
2026-05-21 17:48:14.565,1269234021,79565,2,0.91968,-0.02979,0.49634,18.031,11.137,1.305
2026-05-21 17:48:14.765,1269234221,79765,1,0.93237,0.01196,0.26807,36.481,-10.756,9.573
2026-05-21 17:48:14.765,1269234221,79765,2,0.91943,0.15576,0.55688,25.122,-3.481,8.695
2026-05-21 17:48:14.965,1269234421,79965,1,0.85034,0.0769,0.28076,-27.473,45.969,-23.099
2026-05-21 17:48:14.965,1269234421,79965,2,0.87036,0.20923,0.55762,-30.977,53.817,-10.122
2026-05-21 17:48:14.165,1269233621,80165,1,0.97192,0.05469,0.49097,-23.695,10.344,-18.252
2026-05-21 17:48:14.165,1269233621,80165,2,0.95776,0.04492,0.61206,-30.771,2.244,-13.718
2026-05-21 17:48:14.365,1269233821,80365,1,0.90576,-0.01025,0.36963,-9.137,-13.771,3.29
2026-05-21 17:48:14.365,1269233821,80365,2,0.96777,0.09326,0.7168,11.779,-10.74,9.626
2026-05-21 17:48:15.565,1269235021,80565,1,0.85107,0.01099,0.43604,11.802,25.13,2.824
2026-05-21 17:48:15.565,1269235021,80565,2,0.95215,0.02637,0.67236,23.26,15.969,6.763
2026-05-21 17:48:15.765,1269235221,80765,1,0.86768,0.07202,0.46436,17.198,-0.298,7.977
2026-05-21 17:48:15.765,1269235221,80765,2,0.93604,0.08789,0.65381,5.817,-1.672,0.519
2026-05-21 17:48:15.965,1269235421,80965,1,0.84473,0.05884,0.46094,-12.229,-0.725,4.061
2026-05-21 17:48:15.965,1269235421,80965,2,0.94702,0.10327,0.66016,-4.176,-3.847,-0.573
2026-05-21 17:48:15.165,1269234621,81165,1,0.88892,0.03906,0.50562,3.229,-24.282,5.214
2026-05-21 17:48:15.165,1269234621,81165,2,0.98071,0.09326,0.58154,0.695,-10.443,-0.588
2026-05-21 17:48:15.365,1269234821,81365,1,0.87183,0.04346,0.32593,-6.718,-18.046,4.328
2026-05-21 17:48:15.365,1269234821,81365,2,0.92212,0.11816,0.62817,-3.504,-24.023,9.84
2026-05-21 17:48:16.565,1269236021,81565,1,0.92334,-0.0376,0.33423,-24.527,27.679,-7.878
2026-05-21 17:48:16.565,1269236021,81565,2,0.99927,0.04541,0.56519,-19.137,29.237,-6.153
2026-05-21 17:48:16.765,1269236221,81765,1,0.85913,-0.02734,0.48364,-4.947,-5.221,-10.26
2026-05-21 17:48:16.765,1269236221,81765,2,0.96948,0.05298,0.58862,6.389,-21.191,1.527
2026-05-21 17:48:16.965,1269236421,81965,1,0.90039,0.02637,0.38184,-5.969,-5.115,-16.183
2026-05-21 17:48:16.965,1269236421,81965,2,0.94019,0.09521,0.62305,-12.076,3.053,-3.618
2026-05-21 17:48:16.165,1269235621,82165,1,0.87427,0.06738,0.44751,-5.031,3.359,-0.863
2026-05-21 17:48:16.165,1269235621,82165,2,0.9502,0.09229,0.62744,1.748,1.382,0.084
2026-05-21 17:48:16.365,1269235821,82365,1,0.87231,0.03931,0.42676,3.901,3.656,12.336
2026-05-21 17:48:16.365,1269235821,82365,2,0.96362,0.12109,0.60498,19.84,9.679,5.229
2026-05-21 17:48:17.565,1269237021,82565,1,0.90137,0.05176,0.42212,0.771,-0.038,1.992
2026-05-21 17:48:17.565,1269237021,82565,2,0.96436,0.10474,0.6189,-9.748,-4.122,1.565
2026-05-21 17:48:17.765,1269237221,82765,1,0.86475,0.00146,0.42188,-11.565,2.702,-0.672
2026-05-21 17:48:17.765,1269237221,82765,2,0.93896,0.06909,0.61157,-7.229,-2.29,2.855
2026-05-21 17:48:17.965,1269237421,82965,1,0.90674,-0.00977,0.42114,5.824,-4.885,1.145
2026-05-21 17:48:17.965,1269237421,82965,2,0.95264,0.05737,0.6355,0.992,0.031,-2.519
2026-05-21 17:48:17.165,1269236621,83165,1,0.87695,0.04736,0.4209,0.71,3.107,8.298
2026-05-21 17:48:17.165,1269236621,83165,2,0.95508,0.11743,0.60132,4.534,-3.916,3.763
2026-05-21 17:48:17.365,1269236821,83365,1,0.90601,0.0271,0.40601,5.534,-1.031,1.725
2026-05-21 17:48:17.365,1269236821,83365,2,0.9458,0.11304,0.61743,-4.695,1.901,2.611
2026-05-21 17:48:18.565,1269238021,83565,1,0.89624,0.01147,0.41333,-3.16,1.0,-0.748
2026-05-21 17:48:18.565,1269238021,83565,2,0.95264,0.06543,0.62964,2.137,0.031,3.641
2026-05-21 17:48:18.765,1269238221,83765,1,0.88159,0.01392,0.40918,-3.489,0.031,2.443
2026-05-21 17:48:18.765,1269238221,83765,2,0.96069,0.0791,0.61011,-3.748,1.756,2.84
2026-05-21 17:48:18.965,1269238421,83965,1,0.88916,-0.00171,0.4231,-4.328,1.252,1.221
2026-05-21 17:48:18.965,1269238421,83965,2,0.95483,0.07739,0.59863,-0.977,3.779,2.511
2026-05-21 17:48:18.165,1269237621,84165,1,0.88965,0.00171,0.43604,-1.771,1.847,-0.664
2026-05-21 17:48:18.165,1269237621,84165,2,0.96265,0.07178,0.62549,-2.26,2.519,1.198
2026-05-21 17:48:18.365,1269237821,84365,1,0.88086,0.00317,0.42798,-0.16,-0.458,1.321
2026-05-21 17:48:18.365,1269237821,84365,2,0.94482,0.08276,0.61157,2.008,0.489,1.908
2026-05-21 17:48:19.565,1269239021,84565,1,0.87939,-0.00317,0.39673,-1.435,0.916,-0.45
2026-05-21 17:48:19.565,1269239021,84565,2,0.95728,0.07397,0.63379,0.618,2.412,2.053
2026-05-21 17:48:19.765,1269239221,84765,1,0.8855,-0.00366,0.427,-0.397,-0.954,-0.893
2026-05-21 17:48:19.765,1269239221,84765,2,0.95142,0.07642,0.61719,1.824,0.664,0.321
2026-05-21 17:48:19.965,1269239421,84965,1,0.88257,0.00562,0.41162,-2.237,-0.458,-1.183
2026-05-21 17:48:19.965,1269239421,84965,2,0.95752,0.0708,0.61938,-0.389,0.542,0.336
2026-05-21 17:48:19.165,1269238621,85165,1,0.89307,0.00513,0.41895,-0.359,0.115,-1.084
2026-05-21 17:48:19.165,1269238621,85165,2,0.95703,0.08203,0.62354,-0.015,1.351,-0.595
2026-05-21 17:48:19.365,1269238821,85365,1,0.88965,0.00513,0.40894,-7.305,1.092,-1.618
2026-05-21 17:48:19.365,1269238821,85365,2,0.95044,0.07666,0.62207,-8.466,-1.618,0.771
2026-05-21 17:48:20.565,1269240021,85565,1,0.88574,0.0105,0.42651,0.275,-1.053,-1.443
2026-05-21 17:48:20.565,1269240021,85565,2,0.94604,0.08838,0.62646,-3.053,0.26,0.58
2026-05-21 17:48:20.765,1269240221,85765,1,0.88818,0.01929,0.42822,-0.809,0.351,-0.023
2026-05-21 17:48:20.765,1269240221,85765,2,0.94678,0.08691,0.6062,0.603,1.336,0.794
2026-05-21 17:48:20.965,1269240421,85965,1,0.89453,0.01636,0.41675,-1.328,0.229,0.122
2026-05-21 17:48:20.965,1269240421,85965,2,0.95337,0.08667,0.61572,0.939,1.489,1.595
2026-05-21 17:48:20.165,1269239621,86165,1,0.88647,0.01318,0.40698,-2.038,0.252,0.137
2026-05-21 17:48:20.165,1269239621,86165,2,0.95435,0.07935,0.61304,0.855,1.664,1.489
2026-05-21 17:48:20.365,1269239821,86365,1,0.88965,0.01733,0.41626,-1.878,0.366,0.458
2026-05-21 17:48:20.365,1269239821,86365,2,0.94751,0.09106,0.61206,-0.351,2.557,1.275
2026-05-21 17:48:21.565,1269241021,86565,1,0.89331,0.01904,0.41626,-1.771,1.122,-0.214
2026-05-21 17:48:21.565,1269241021,86565,2,0.94873,0.0835,0.61401,-0.863,2.496,0.893
2026-05-21 17:48:21.765,1269241221,86765,1,0.87866,0.00439,0.42603,-0.573,-0.481,-1.947
2026-05-21 17:48:21.765,1269241221,86765,2,0.94922,0.08179,0.61523,-0.534,-1.16,-0.305
2026-05-21 17:48:21.965,1269241421,86965,1,0.89307,0.02979,0.40161,-1.038,1.405,0.763
2026-05-21 17:48:21.965,1269241421,86965,2,0.94458,0.10278,0.61328,-2.366,0.84,1.359
2026-05-21 17:48:21.165,1269240621,87165,1,0.88745,0.03027,0.41211,-1.183,0.725,-0.656
2026-05-21 17:48:21.165,1269240621,87165,2,0.96997,0.07568,0.6145,-0.939,-4.183,0.069
2026-05-21 17:48:22.528,1269241984,87528,1,0.88525,0.01392,0.40747,-1.298,-6.038,2.473
2026-05-21 17:48:22.528,1269241984,87528,2,0.93945,0.08374,0.59473,0.84,-0.107,3.718
2026-05-21 17:48:22.728,1269242184,87728,1,0.95581,0.02271,0.39917,-8.664,-7.313,7.687
2026-05-21 17:48:22.728,1269242184,87728,2,0.92871,0.07397,0.60474,-2.29,5.046,1.802
2026-05-21 17:48:22.928,1269242384,87928,1,0.91162,-0.02295,0.34546,3.969,15.435,-1.977
2026-05-21 17:48:22.928,1269242384,87928,2,0.94287,0.09961,0.66772,3.679,18.786,0.542
2026-05-21 17:48:22.128,1269241584,88128,1,0.84399,0.01685,0.48438,2.214,25.29,-9.046
2026-05-21 17:48:22.128,1269241584,88128,2,0.93604,0.04028,0.56909,-2.427,27.29,-8.794
2026-05-21 17:48:22.328,1269241784,88328,1,0.9021,0.04028,0.50317,-5.786,-41.519,16.122
2026-05-21 17:48:22.328,1269241784,88328,2,0.84741,0.11084,0.64844,27.443,-43.611,21.214
2026-05-21 17:48:23.528,1269242984,88528,1,0.94189,-0.07056,0.26807,-10.061,-29.183,19.168
2026-05-21 17:48:23.528,1269242984,88528,2,0.95117,0.11914,0.58496,4.237,34.893,-4.855
2026-05-21 17:48:23.728,1269243184,88728,1,0.91138,-0.04297,0.30273,0.878,10.908,-8.618
2026-05-21 17:48:23.728,1269243184,88728,2,0.91553,0.14966,0.55737,-4.603,3.275,9.565
2026-05-21 17:48:23.928,1269243384,88928,1,0.92944,-0.02295,0.35425,13.863,35.0,-44.947
2026-05-21 17:48:23.928,1269243384,88928,2,0.98999,0.01318,0.55151,-8.58,11.443,-11.351
2026-05-21 17:48:23.128,1269242584,89128,1,0.84033,0.14575,0.49634,-5.718,19.466,-10.802
2026-05-21 17:48:23.128,1269242584,89128,2,0.91919,0.02612,0.56055,-12.069,20.656,-1.504
2026-05-21 17:48:23.328,1269242784,89328,1,0.85693,0.08472,0.49219,-33.45,-14.397,34.901
2026-05-21 17:48:23.328,1269242784,89328,2,0.94971,0.11914,0.67407,8.87,19.71,-1.481
2026-05-21 17:48:24.528,1269243984,89528,1,0.89014,-0.08765,0.42651,-14.0,-7.809,15.008
2026-05-21 17:48:24.528,1269243984,89528,2,0.94775,0.15503,0.60303,10.908,8.626,4.374
2026-05-21 17:48:24.728,1269244184,89728,1,0.89722,-0.05835,0.42578,32.29,-10.55,-25.435
2026-05-21 17:48:24.728,1269244184,89728,2,0.96655,0.08862,0.61768,-18.198,-19.634,-6.26
2026-05-21 17:48:24.928,1269244384,89928,1,0.94043,0.05908,0.3877,-14.916,-29.473,6.588
2026-05-21 17:48:24.928,1269244384,89928,2,0.97339,0.09326,0.59082,-13.252,-20.107,12.588
2026-05-21 17:48:24.128,1269243584,90128,1,0.9231,-0.08057,0.28174,-12.695,-4.603,16.626
2026-05-21 17:48:24.128,1269243584,90128,2,0.94312,0.10547,0.56812,12.603,3.611,1.031
2026-05-21 17:48:24.328,1269243784,90328,1,0.94458,-0.07227,0.29883,3.107,14.076,-4.046
2026-05-21 17:48:24.328,1269243784,90328,2,0.92383,0.14331,0.51831,,14.0,1.206
2026-05-21 17:48:25.528,1269244984,90528,1,0.927,0.02124,0.38184,24.176,16.802,-26.786
2026-05-21 17:48:25.528,1269244984,90528,2,0.95483,0.12598,0.57837,-3.496,6.58,-6.0
2026-05-21 17:48:25.728,1269245184,90728,1,0.90649,0.08325,0.35547,-18.687,17.084,-6.038
2026-05-21 17:48:25.728,1269245184,90728,2,0.96045,0.08154,0.57056,-3.58,-1.351,4.344
2026-05-21 17:48:25.928,1269245384,90928,1,0.86914,0.00659,0.44385,-49.069,12.489,6.656
2026-05-21 17:48:25.928,1269245384,90928,2,0.93774,0.10181,0.625,-35.183,28.496,-8.672
2026-05-21 17:48:25.128,1269244584,91128,1,0.91211,-0.24048,0.49536,-2.756,-28.489,16.908
2026-05-21 17:48:25.128,1269244584,91128,2,0.98462,0.08276,0.6001,5.443,-46.198,-3.641
2026-05-21 17:48:25.328,1269244784,91328,1,0.97314,-0.02075,0.20679,38.87,-21.809,-17.618
2026-05-21 17:48:25.328,1269244784,91328,2,0.91553,0.12793,0.5188,9.992,19.969,5.55
2026-05-21 17:48:26.637,1269246093,91637,1,0.91431,0.21948,0.25928,-9.641,10.481,-5.237
2026-05-21 17:48:26.637,1269246093,91637,2,0.96484,0.04907,0.50293,-19.87,7.038,-0.588
2026-05-21 17:48:26.837,1269246293,91837,1,0.9646,0.03784,0.39404,-16.466,31.0,23.206
2026-05-21 17:48:26.837,1269246293,91837,2,0.97998,0.03857,0.57324,5.916,14.458,-0.023
2026-05-21 17:48:26.037,1269245493,92037,1,0.89795,-0.07251,0.4043,-58.87,-2.221,24.153
2026-05-21 17:48:26.037,1269245493,92037,2,0.96924,0.09082,0.59668,-21.298,-3.366,5.756
2026-05-21 17:48:26.237,1269245693,92237,1,0.91797,-0.25146,0.46436,-12.282,-22.733,6.237
2026-05-21 17:48:26.237,1269245693,92237,2,0.99341,0.08667,0.56934,8.519,-18.794,8.908
2026-05-21 17:48:27.437,1269246893,92437,1,0.98486,-0.17993,0.20996,36.389,-38.321,-15.397
2026-05-21 17:48:27.437,1269246893,92437,2,0.91626,0.07349,0.54248,18.435,-0.237,-3.771
2026-05-21 17:48:27.637,1269247093,92637,1,0.92139,0.1062,0.18457,44.366,16.099,-39.74
2026-05-21 17:48:27.637,1269247093,92637,2,0.89722,0.01636,0.5708,-13.809,0.954,-7.427
2026-05-21 17:48:27.837,1269247293,92837,1,1.08447,0.16309,0.39502,-30.046,30.534,14.794
2026-05-21 17:48:27.837,1269247293,92837,2,1.04053,0.09326,0.5542,5.565,42.252,-4.901
2026-05-21 17:48:27.037,1269246493,93037,1,0.88062,-0.10693,0.33911,-79.824,4.74,20.824
2026-05-21 17:48:27.037,1269246493,93037,2,1.04614,0.08081,0.55322,-3.58,-17.679,6.282
2026-05-21 17:48:27.237,1269246693,93237,1,0.91675,-0.22363,0.40186,16.26,-40.099,-7.0
2026-05-21 17:48:27.237,1269246693,93237,2,0.94897,0.07886,0.54102,-11.198,-51.901,6.954
2026-05-21 17:48:28.437,1269247893,93437,1,0.95361,0.07202,0.12891,57.74,-0.13,-40.893
2026-05-21 17:48:28.437,1269247893,93437,2,0.95703,0.10034,0.53394,-2.023,-5.107,1.763
2026-05-21 17:48:28.637,1269248093,93637,1,0.91895,0.1377,0.23364,8.626,30.84,-8.366
2026-05-21 17:48:28.637,1269248093,93637,2,1.02075,0.03442,0.53247,10.015,46.824,-14.71
2026-05-21 17:48:28.837,1269248293,93837,1,0.8999,0.11548,0.46948,-58.305,20.443,35.771
2026-05-21 17:48:28.837,1269248293,93837,2,0.93335,0.15601,0.54761,9.336,19.809,16.611
2026-05-21 17:48:28.037,1269247493,94037,1,0.93237,-0.21436,0.45581,-46.397,-23.908,24.176
2026-05-21 17:48:28.037,1269247493,94037,2,1.01074,0.12549,0.5271,5.542,5.321,12.618
2026-05-21 17:48:28.237,1269247693,94237,1,1.03052,-0.18311,0.11938,80.366,-61.137,-43.588
2026-05-21 17:48:28.237,1269247693,94237,2,0.86426,0.16138,0.6062,12.0,-27.947,-2.939
2026-05-21 17:48:29.437,1269248893,94437,1,0.98535,0.23877,0.18945,66.061,29.626,-41.893
2026-05-21 17:48:29.437,1269248893,94437,2,0.98096,0.00171,0.57178,-3.634,15.947,-13.802
2026-05-21 17:48:29.637,1269249093,94637,1,0.89648,0.28711,0.40186,-52.756,29.221,30.679
2026-05-21 17:48:29.637,1269249093,94637,2,0.95581,0.11328,0.5481,-9.695,12.565,6.099
2026-05-21 17:48:29.837,1269249293,94837,1,0.99731,-0.2063,0.44727,-82.603,-9.626,32.13
2026-05-21 17:48:29.837,1269249293,94837,2,1.04541,0.05518,0.43701,-11.504,-4.122,11.359
2026-05-21 17:48:29.037,1269248493,95037,1,0.92676,-0.11157,0.10303,82.519,-44.885,-33.557
2026-05-21 17:48:29.037,1269248493,95037,2,0.87622,0.18628,0.53369,45.191,-14.779,11.489
2026-05-21 17:48:29.237,1269248693,95237,1,0.95874,0.15039,0.2251,23.954,29.29,-36.725
2026-05-21 17:48:29.237,1269248693,95237,2,0.99561,-0.00171,0.51489,-2.71,20.634,-4.962
2026-05-21 17:48:30.437,1269249893,95437,1,0.92798,0.16626,0.2981,-24.924,13.092,9.855
2026-05-21 17:48:30.437,1269249893,95437,2,1.00366,0.00366,0.49756,-1.771,16.084,6.145
2026-05-21 17:48:30.637,1269250093,95637,1,1.00317,0.04541,0.30566,-43.733,-12.885,38.427
2026-05-21 17:48:30.637,1269250093,95637,2,0.98511,-0.00366,0.50952,-16.183,1.344,2.237
2026-05-21 17:48:30.837,1269250293,95837,1,1.03613,-0.09692,0.18262,-28.122,3.626,32.458
2026-05-21 17:48:30.837,1269250293,95837,2,0.95825,0.13965,0.48145,-2.183,17.321,7.176
2026-05-21 17:48:30.037,1269249493,96037,1,0.92847,-0.24316,0.35693,-3.366,16.931,3.405
2026-05-21 17:48:30.037,1269249493,96037,2,0.98022,0.10645,0.54932,1.87,29.74,-2.45
2026-05-21 17:48:30.237,1269249693,96237,1,0.87817,-0.20093,0.36816,38.611,26.397,-20.748
2026-05-21 17:48:30.237,1269249693,96237,2,0.9707,0.05298,0.57568,37.458,10.122,9.252
2026-05-21 17:48:31.437,1269250893,96437,1,0.91919,0.04419,0.38916,57.855,0.389,-25.962
2026-05-21 17:48:31.437,1269250893,96437,2,0.97168,-0.02026,0.60083,3.611,3.176,0.092
2026-05-21 17:48:31.637,1269251093,96637,1,0.96631,0.17651,0.40601,3.198,-22.756,-5.015
2026-05-21 17:48:31.637,1269251093,96637,2,1.01733,-0.04492,0.48926,-35.87,-24.954,-5.107
2026-05-21 17:48:31.837,1269251293,96837,1,0.948,0.04614,0.22754,-45.534,-33.443,30.092
2026-05-21 17:48:31.837,1269251293,96837,2,0.9082,-0.02734,0.59839,-34.786,-31.855,-2.962
2026-05-21 17:48:31.037,1269250493,97037,1,0.97119,-0.15356,0.1897,-55.412,13.092,27.649
2026-05-21 17:48:31.037,1269250493,97037,2,0.94556,0.08618,0.60303,-31.237,21.115,-10.832
2026-05-21 17:48:31.237,1269250693,97237,1,0.85645,-0.22876,0.37256,12.076,48.687,-12.908
2026-05-21 17:48:31.237,1269250693,97237,2,0.99731,0.15967,0.57227,28.053,56.71,-4.397
2026-05-21 17:48:32.437,1269251893,97437,1,0.78418,0.08203,0.52637,50.481,19.733,-38.122
2026-05-21 17:48:32.437,1269251893,97437,2,0.96948,0.14307,0.61816,16.328,-2.282,-0.466
2026-05-21 17:48:32.637,1269252093,97637,1,0.8772,0.19238,0.4834,19.977,-20.527,-4.015
2026-05-21 17:48:32.637,1269252093,97637,2,1.01587,0.00049,0.58496,3.534,-17.397,12.908
2026-05-21 17:48:32.837,1269252293,97837,1,0.88135,0.06299,0.30933,-27.74,-37.504,52.435
2026-05-21 17:48:32.837,1269252293,97837,2,0.92798,0.06616,0.59131,14.084,-7.046,7.565
2026-05-21 17:48:32.037,1269251493,98037,1,0.89185,-0.21777,0.19312,-64.962,-5.443,47.069
2026-05-21 17:48:32.037,1269251493,98037,2,0.86841,0.09888,0.57617,-14.061,-10.473,-8.366
2026-05-21 17:48:32.237,1269251693,98237,1,0.979,-0.22632,0.36255,5.496,41.824,-14.687
2026-05-21 17:48:32.237,1269251693,98237,2,0.98511,0.14063,0.57275,0.137,53.504,-0.893
2026-05-21 17:48:33.437,1269252893,98437,1,0.85376,-0.06006,0.46924,39.565,20.893,-37.771
2026-05-21 17:48:33.437,1269252893,98437,2,0.9668,0.07642,0.64038,8.687,-14.74,8.748
2026-05-21 17:48:33.637,1269253093,98637,1,0.89453,0.09937,0.50195,24.58,-15.023,-23.092
2026-05-21 17:48:33.637,1269253093,98637,2,0.95117,0.04517,0.61621,-8.412,1.061,-6.992
2026-05-21 17:48:33.837,1269253293,98837,1,0.86011,0.07642,0.28857,-56.565,-38.321,32.275
2026-05-21 17:48:33.837,1269253293,98837,2,0.94873,0.07446,0.61816,3.45,-26.565,13.336
2026-05-21 17:48:33.037,1269252493,99037,1,0.92017,-0.2168,0.23486,-29.725,1.382,36.504
2026-05-21 17:48:33.037,1269252493,99037,2,0.95752,0.09888,0.50415,13.534,17.588,-5.664
2026-05-21 17:48:33.237,1269252693,99237,1,0.94604,-0.18066,0.37085,6.611,26.42,-0.252
2026-05-21 17:48:33.237,1269252693,99237,2,0.93994,0.1377,0.51978,-6.092,17.725,-1.893
2026-05-21 17:48:34.437,1269253893,99437,1,0.93262,-0.11328,0.43604,-0.237,-0.885,-7.771
2026-05-21 17:48:34.437,1269253893,99437,2,0.96777,0.09644,0.57104,-11.489,-10.87,-0.107
2026-05-21 17:48:34.637,1269254093,99637,1,1.01563,-0.17725,0.32275,-17.649,-19.939,-25.168
2026-05-21 17:48:34.637,1269254093,99637,2,0.92065,0.09155,0.573,-11.702,-7.748,9.74
2026-05-21 17:48:34.837,1269254293,99837,1,0.94189,-0.0166,0.25635,33.13,14.099,-29.855
2026-05-21 17:48:34.837,1269254293,99837,2,1.00659,0.10791,0.59375,9.565,20.275,13.16
2026-05-21 17:48:34.037,1269253493,100037,1,0.79956,0.15112,0.46484,24.359,32.489,-21.725
2026-05-21 17:48:34.037,1269253493,100037,2,0.87744,-0.01318,0.60986,15.198,14.809,-5.168
2026-05-21 17:48:34.237,1269253693,100237,1,1.19653,0.22729,0.36157,-36.595,-149.519,37.718
2026-05-21 17:48:34.237,1269253693,100237,2,1.31348,0.0376,0.25269,-63.656,-60.122,-3.008
2026-05-21 17:48:35.437,1269254893,100437,1,1.2644,-0.09033,-0.07813,-26.786,-78.733,13.939
2026-05-21 17:48:35.437,1269254893,100437,2,1.13745,0.10132,0.43091,5.443,-22.832,-2.908
2026-05-21 17:48:35.637,1269255093,100637,1,1.02026,0.0061,0.04761,16.855,48.435,-15.42
2026-05-21 17:48:35.637,1269255093,100637,2,0.91431,-0.02563,0.37036,8.298,3.557,-8.16
2026-05-21 17:48:35.837,1269255293,100837,1,1.0957,0.0188,0.15063,0.916,16.443,25.176
2026-05-21 17:48:35.837,1269255293,100837,2,1.01587,0.08887,0.29883,5.908,1.29,6.435
2026-05-21 17:48:35.037,1269254493,101037,1,1.02148,-0.08618,0.14355,5.374,18.885,4.916
2026-05-21 17:48:35.037,1269254493,101037,2,1.01685,0.09058,0.45801,-3.008,30.305,-7.351
2026-05-21 17:48:35.237,1269254693,101237,1,0.87891,-0.04395,0.40698,12.794,24.45,-1.779
2026-05-21 17:48:35.237,1269254693,101237,2,0.96875,0.11646,0.67676,0.176,-7.191,4.649
2026-05-21 17:48:36.437,1269255893,101437,1,0.82959,-0.01563,0.44897,-0.405,8.679,3.511
2026-05-21 17:48:36.437,1269255893,101437,2,0.90991,0.15356,0.68433,12.046,15.931,-0.176
2026-05-21 17:48:36.637,1269256093,101637,1,0.85352,-0.0752,0.45313,-19.42,2.84,3.611
2026-05-21 17:48:36.637,1269256093,101637,2,0.91968,0.11182,0.64868,7.939,-1.45,5.466
2026-05-21 17:48:36.837,1269256293,101837,1,0.90625,-0.10278,0.39771,-1.595,-0.763,-6.382
2026-05-21 17:48:36.837,1269256293,101837,2,0.93018,0.10571,0.67773,-9.16,-7.0,4.427
2026-05-21 17:48:36.037,1269255493,102037,1,0.94116,-0.07471,0.40112,5.405,0.183,-8.076
2026-05-21 17:48:36.037,1269255493,102037,2,0.93701,0.04468,0.61572,-3.702,-3.893,-2.702
2026-05-21 17:48:36.237,1269255693,102237,1,0.9292,-0.08521,0.37817,2.878,-8.756,-6.107
2026-05-21 17:48:36.237,1269255693,102237,2,0.96851,0.11353,0.60132,13.962,-2.809,-7.687
2026-05-21 17:48:37.437,1269256893,102437,1,0.89453,-0.04028,0.38306,10.695,0.794,-37.603
2026-05-21 17:48:37.437,1269256893,102437,2,0.94336,0.12891,0.60132,-7.542,-7.573,-26.443
2026-05-21 17:48:37.637,1269257093,102637,1,0.88721,0.19971,0.3457,11.985,-1.84,-45.107
2026-05-21 17:48:37.637,1269257093,102637,2,0.94116,0.2251,0.58789,-11.771,-11.275,-24.969
2026-05-21 17:48:37.837,1269257293,102837,1,0.85742,0.37158,0.33472,12.656,1.244,-26.076
2026-05-21 17:48:37.837,1269257293,102837,2,0.89966,0.35645,0.55737,-3.931,-0.763,-19.824
2026-05-21 17:48:37.037,1269256493,103037,1,0.82495,0.42847,0.33765,-4.916,-1.702,-15.725
2026-05-21 17:48:37.037,1269256493,103037,2,0.88257,0.38623,0.53857,-6.206,-2.588,-9.954
2026-05-21 17:48:37.237,1269256693,103237,1,0.82739,0.44995,0.30835,3.473,-4.321,-1.298
2026-05-21 17:48:37.237,1269256693,103237,2,0.88574,0.42651,0.56543,2.16,1.756,-2.214
2026-05-21 17:48:38.437,1269257893,103437,1,0.81055,0.44556,0.32959,-2.74,-1.802,7.824
2026-05-21 17:48:38.437,1269257893,103437,2,0.8894,0.41821,0.55884,0.809,-5.198,8.405
2026-05-21 17:48:38.637,1269258093,103637,1,0.84961,0.42114,0.29663,-6.901,-1.481,18.855
2026-05-21 17:48:38.637,1269258093,103637,2,0.89404,0.38354,0.56201,2.672,5.947,16.267
2026-05-21 17:48:38.837,1269258293,103837,1,0.87891,0.32422,0.30957,-8.198,-0.847,29.603
2026-05-21 17:48:38.837,1269258293,103837,2,0.89673,0.33813,0.52783,-1.947,0.863,22.885
2026-05-21 17:48:38.037,1269257493,104037,1,0.95361,0.20044,0.34302,-10.519,-13.427,20.183
2026-05-21 17:48:38.037,1269257493,104037,2,0.96411,0.20142,0.53857,-1.366,-13.489,24.031
2026-05-21 17:48:38.237,1269257693,104237,1,0.97729,0.12793,0.20435,3.679,-10.725,29.122
2026-05-21 17:48:38.237,1269257693,104237,2,0.9541,0.27026,0.52881,7.985,6.023,29.504
2026-05-21 17:48:39.437,1269258893,104437,1,0.92676,0.021,0.26563,-16.847,33.191,-20.282
2026-05-21 17:48:39.437,1269258893,104437,2,0.93457,0.03809,0.5835,-2.214,23.115,18.382
2026-05-21 17:48:39.637,1269259093,104637,1,0.89526,0.0896,0.50732,6.603,32.489,-3.786
2026-05-21 17:48:39.637,1269259093,104637,2,0.97583,-0.03809,0.56201,5.809,32.282,-13.206
2026-05-21 17:48:39.837,1269259293,104837,1,0.84204,0.04053,0.4187,-54.603,-7.183,41.038
2026-05-21 17:48:39.837,1269259293,104837,2,0.9353,0.05518,0.56201,-12.053,-5.618,5.473
2026-05-21 17:48:39.037,1269258493,105037,1,0.92871,-0.19604,0.396,-0.885,-19.45,20.374
2026-05-21 17:48:39.037,1269258493,105037,2,0.89941,0.20313,0.59546,4.931,-5.336,11.611
2026-05-21 17:48:39.237,1269258693,105237,1,0.89575,-0.05444,0.36572,18.809,9.008,-22.305
2026-05-21 17:48:39.237,1269258693,105237,2,0.94556,0.17041,0.6709,-3.405,11.977,-5.061
2026-05-21 17:48:40.437,1269259893,105437,1,0.82324,-0.00781,0.46875,10.863,26.153,-28.893
2026-05-21 17:48:40.437,1269259893,105437,2,0.98633,0.02563,0.64966,-12.626,30.969,-20.649
2026-05-21 17:48:40.637,1269260093,105637,1,0.80322,0.03931,0.49463,-7.916,-16.191,10.603
2026-05-21 17:48:40.637,1269260093,105637,2,0.91406,0.05054,0.6438,10.145,-32.176,9.328
2026-05-21 17:48:40.837,1269260293,105837,1,0.89453,0.00708,0.39941,0.779,-8.122,20.901
2026-05-21 17:48:40.837,1269260293,105837,2,0.95044,0.22461,0.65015,5.382,-5.282,5.939
2026-05-21 17:48:40.037,1269259493,106037,1,0.8689,-0.04248,0.35938,-11.863,21.901,-11.053
2026-05-21 17:48:40.037,1269259493,106037,2,0.96045,0.10132,0.54565,-18.901,27.275,-11.702
2026-05-21 17:48:40.237,1269259693,106237,1,0.86865,-0.00317,0.39819,4.992,-15.221,-0.954
2026-05-21 17:48:40.237,1269259693,106237,2,0.78955,0.07324,0.57446,8.985,-33.542,21.748
2026-05-21 17:48:41.437,1269260893,106437,1,1.03101,-0.02344,0.34326,4.847,2.679,4.359
2026-05-21 17:48:41.437,1269260893,106437,2,1.01904,0.19214,0.66577,21.954,44.0,2.855
2026-05-21 17:48:41.637,1269261093,106637,1,0.8479,-0.00488,0.45581,-10.702,47.382,-11.244
2026-05-21 17:48:41.637,1269261093,106637,2,1.00757,0.09033,0.58667,-4.641,73.824,-8.427
2026-05-21 17:48:41.837,1269261293,106837,1,0.81323,0.02197,0.48242,-5.015,-23.763,0.74
2026-05-21 17:48:41.837,1269261293,106837,2,0.90454,0.07275,0.61743,-3.664,-34.756,4.802
2026-05-21 17:48:41.037,1269260493,107037,1,0.90771,0.00513,0.40479,1.634,-2.458,6.603
2026-05-21 17:48:41.037,1269260493,107037,2,0.93945,0.13062,0.69019,-11.008,2.45,1.473
2026-05-21 17:48:41.237,1269260693,107237,1,0.88281,0.00244,0.45459,-8.473,17.649,-2.099
2026-05-21 17:48:41.237,1269260693,107237,2,0.96484,0.08447,0.5918,-3.687,4.405,3.924
2026-05-21 17:48:42.437,1269261893,107437,1,0.86084,-0.02393,0.4707,-12.275,-13.58,-3.466
2026-05-21 17:48:42.437,1269261893,107437,2,0.94019,0.07324,0.65259,-8.733,-16.145,5.336
2026-05-21 17:48:42.637,1269262093,107637,1,0.87744,-0.04419,0.39404,-7.031,5.534,-0.969
2026-05-21 17:48:42.637,1269262093,107637,2,0.9541,0.05347,0.646,-0.611,11.817,1.511
2026-05-21 17:48:42.837,1269262293,107837,1,0.86841,-0.05371,0.4873,-4.794,3.74,1.107
2026-05-21 17:48:42.837,1269262293,107837,2,0.95459,0.05933,0.61353,2.122,1.817,2.321
2026-05-21 17:48:42.037,1269261493,108037,1,0.85962,-0.05054,0.44092,-4.328,-6.038,-0.962
2026-05-21 17:48:42.037,1269261493,108037,2,0.95605,0.05005,0.6626,-2.16,-5.26,3.565
2026-05-21 17:48:42.237,1269261693,108237,1,0.8855,-0.05859,0.41992,8.115,-0.733,-1.092
2026-05-21 17:48:42.237,1269261693,108237,2,0.94165,0.06152,0.61719,-2.527,-0.359,-0.183
2026-05-21 17:48:43.437,1269262893,108437,1,0.90405,-0.05811,0.42236,-1.061,-0.206,0.519
2026-05-21 17:48:43.437,1269262893,108437,2,0.96509,0.0542,0.63647,0.107,2.969,1.107
2026-05-21 17:48:43.637,1269263093,108637,1,0.87134,-0.05322,0.43604,-0.031,1.802,2.344
2026-05-21 17:48:43.637,1269263093,108637,2,0.95068,0.07886,0.59912,1.382,-1.595,2.099
2026-05-21 17:48:43.837,1269263293,108837,1,0.89209,-0.04785,0.40503,-1.885,-2.908,-0.29
2026-05-21 17:48:43.837,1269263293,108837,2,0.95215,0.06763,0.64014,-3.748,1.611,3.053
2026-05-21 17:48:43.037,1269262493,109037,1,0.86865,-0.07446,0.42285,-9.084,5.13,-1.16
2026-05-21 17:48:43.037,1269262493,109037,2,0.93457,0.03906,0.62524,0.023,3.298,1.832
2026-05-21 17:48:43.237,1269262693,109237,1,0.87427,-0.03979,0.44434,0.267,-1.565,-1.374
2026-05-21 17:48:43.237,1269262693,109237,2,0.9502,0.0603,0.63696,-7.137,-5.321,2.0
2026-05-21 17:48:44.437,1269263893,109437,1,0.8833,-0.06372,0.41675,3.58,-2.916,1.26
2026-05-21 17:48:44.437,1269263893,109437,2,0.94727,0.04761,0.62817,4.137,0.481,0.176
2026-05-21 17:48:44.637,1269264093,109637,1,0.88452,-0.03589,0.42407,5.611,-0.305,-0.183
2026-05-21 17:48:44.637,1269264093,109637,2,0.95117,0.08228,0.61133,-0.725,-1.252,-0.969
2026-05-21 17:48:44.837,1269264293,109837,1,0.89282,-0.02271,0.41431,-2.511,0.74,-2.321
2026-05-21 17:48:44.837,1269264293,109837,2,0.95825,0.05566,0.61304,-2.748,1.084,0.565
2026-05-21 17:48:44.037,1269263493,110037,1,0.88989,-0.03711,0.4209,0.137,1.038,-0.603
2026-05-21 17:48:44.037,1269263493,110037,2,0.96045,0.08032,0.60425,-0.679,2.45,0.122
2026-05-21 17:48:44.237,1269263693,110237,1,0.88281,-0.01953,0.44238,-3.305,3.573,-3.412
2026-05-21 17:48:44.237,1269263693,110237,2,0.95313,0.05225,0.64307,-4.0,1.305,-0.015
2026-05-21 17:48:45.437,1269264893,110437,1,0.87158,0.00952,0.43896,10.794,-2.931,1.733
2026-05-21 17:48:45.437,1269264893,110437,2,0.91846,0.05762,0.6001,6.954,7.206,1.763
2026-05-21 17:48:45.637,1269265093,110637,1,0.94385,0.00244,0.38794,-0.229,-19.954,19.084
2026-05-21 17:48:45.637,1269265093,110637,2,0.97876,0.0752,0.60718,13.962,-2.328,10.802
2026-05-21 17:48:45.837,1269265293,110837,1,0.91455,-0.08179,0.38672,2.832,6.084,-1.061
2026-05-21 17:48:45.837,1269265293,110837,2,0.98193,0.15356,0.57788,-6.237,10.405,1.031
2026-05-21 17:48:45.037,1269264493,111037,1,0.89551,-0.06396,0.41089,-12.527,6.328,-14.725
2026-05-21 17:48:45.037,1269264493,111037,2,0.96484,-0.03223,0.61719,0.092,11.611,0.023
2026-05-21 17:48:45.237,1269264693,111237,1,0.90601,-0.0603,0.39063,0.107,0.779,11.405
2026-05-21 17:48:45.237,1269264693,111237,2,0.94385,0.06958,0.61572,14.656,12.053,6.458
2026-05-21 17:48:46.437,1269265893,111437,1,0.88525,-0.0564,0.42627,-6.466,4.901,-5.137
2026-05-21 17:48:46.437,1269265893,111437,2,0.94995,0.07886,0.59912,-17.511,0.824,-3.588
2026-05-21 17:48:46.637,1269266093,111637,1,0.88135,-0.05786,0.43384,-2.389,-1.198,-3.779
2026-05-21 17:48:46.637,1269266093,111637,2,0.94775,0.06055,0.61353,-2.878,0.618,1.176
2026-05-21 17:48:46.837,1269266293,111837,1,0.88306,-0.04907,0.41772,-0.947,0.221,-0.359
2026-05-21 17:48:46.837,1269266293,111837,2,0.94727,0.08008,0.62109,-0.611,3.733,0.763
2026-05-21 17:48:46.037,1269265493,112037,1,0.89258,-0.0437,0.42017,-1.191,-0.321,-2.397
2026-05-21 17:48:46.037,1269265493,112037,2,0.95093,0.06641,0.60474,-2.084,0.099,0.679
2026-05-21 17:48:46.237,1269265693,112237,1,0.89551,-0.03076,0.41577,-0.412,-0.435,-0.786
2026-05-21 17:48:46.237,1269265693,112237,2,0.9541,0.06226,0.61353,-0.969,0.336,0.756
2026-05-21 17:48:47.437,1269266893,112437,1,0.875,-0.03735,0.41748,0.748,-0.359,0.863
2026-05-21 17:48:47.437,1269266893,112437,2,0.95947,0.07935,0.6084,4.55,-0.305,0.321
2026-05-21 17:48:47.637,1269267093,112637,1,0.89526,-0.02563,0.41064,-0.672,-2.45,0.168
2026-05-21 17:48:47.637,1269267093,112637,2,0.9585,0.07935,0.6189,-0.137,-1.55,1.519
2026-05-21 17:48:47.837,1269267293,112837,1,0.88477,-0.02905,0.40332,-1.45,2.168,0.573
2026-05-21 17:48:47.837,1269267293,112837,2,0.95972,0.10254,0.59131,0.595,1.244,1.008
2026-05-21 17:48:47.037,1269266493,113037,1,0.89014,-0.02661,0.40625,-3.16,-1.275,0.023
2026-05-21 17:48:47.037,1269266493,113037,2,0.95337,0.08691,0.62158,-3.107,1.695,2.076
2026-05-21 17:48:47.237,1269266693,113237,1,0.88403,-0.04858,0.41333,-4.954,3.092,1.977
2026-05-21 17:48:47.237,1269266693,113237,2,0.94873,0.07373,0.61255,1.519,4.16,2.679
2026-05-21 17:48:48.437,1269267893,113437,1,0.88403,-0.03955,0.4231,-3.29,1.29,0.366
2026-05-21 17:48:48.437,1269267893,113437,2,0.95752,0.06982,0.61963,-5.008,1.359,2.817
2026-05-21 17:48:48.637,1269268093,113637,1,0.88477,-0.05396,0.42822,-3.649,1.718,1.87
2026-05-21 17:48:48.637,1269268093,113637,2,0.95337,0.06006,0.61987,-0.893,1.305,2.473
2026-05-21 17:48:48.837,1269268293,113837,1,0.87744,-0.06396,0.42944,-2.198,0.87,0.473
2026-05-21 17:48:48.837,1269268293,113837,2,0.94702,0.05811,0.62085,-4.145,1.053,2.198
2026-05-21 17:48:48.037,1269267493,114037,1,0.88306,-0.06567,0.43579,-1.328,0.046,-0.305
2026-05-21 17:48:48.037,1269267493,114037,2,0.95239,0.0564,0.61743,-0.214,1.42,1.687
2026-05-21 17:48:48.237,1269267693,114237,1,0.88843,-0.05737,0.42651,-1.641,0.588,-1.229
2026-05-21 17:48:48.237,1269267693,114237,2,0.94751,0.05811,0.61987,-2.16,1.191,1.038
2026-05-21 17:48:49.437,1269268893,114437,1,0.88379,-0.05127,0.41895,-1.305,-0.313,-0.687
2026-05-21 17:48:49.437,1269268893,114437,2,0.95728,0.05933,0.61523,-0.214,1.336,1.053
2026-05-21 17:48:49.637,1269269093,114637,1,0.88477,-0.04907,0.41797,-1.229,0.183,-0.382
2026-05-21 17:48:49.637,1269269093,114637,2,0.95313,0.05859,0.60864,-0.489,1.092,1.008
2026-05-21 17:48:49.837,1269269293,114837,1,0.87939,-0.0437,0.42236,-1.336,0.229,-0.534
2026-05-21 17:48:49.837,1269269293,114837,2,0.95068,0.06152,0.61499,-0.977,0.969,1.061
2026-05-21 17:48:49.037,1269268493,115037,1,0.87549,-0.04639,0.43042,-1.924,0.519,-0.107
2026-05-21 17:48:49.037,1269268493,115037,2,0.9502,0.06567,0.61938,-0.702,1.0,1.237
2026-05-21 17:48:49.237,1269268693,115237,1,0.87793,-0.04932,0.42358,-2.55,1.244,-0.374
2026-05-21 17:48:49.237,1269268693,115237,2,0.95752,0.05762,0.60938,-1.183,1.076,1.611
2026-05-21 17:48:50.437,1269269893,115437,1,0.88379,-0.05005,0.41992,-2.214,0.885,0.26
2026-05-21 17:48:50.437,1269269893,115437,2,0.95581,0.07056,0.6106,-1.366,1.382,1.511
2026-05-21 17:48:50.637,1269270093,115637,1,0.86768,-0.05664,0.4314,-2.649,2.176,0.046
2026-05-21 17:48:50.637,1269270093,115637,2,0.94946,0.06152,0.61182,7.145,4.473,1.924
2026-05-21 17:48:50.837,1269270293,115837,1,0.87012,-0.07813,0.41675,-31.779,0.954,-12.901
2026-05-21 17:48:50.837,1269270293,115837,2,0.96191,-0.02173,0.65723,-33.542,-8.122,0.679
2026-05-21 17:48:50.037,1269269493,116037,1,0.86182,-0.10083,0.42651,19.595,1.534,5.74
2026-05-21 17:48:50.037,1269269493,116037,2,0.94727,0.06738,0.6001,13.939,-0.176,0.176
2026-05-21 17:48:50.237,1269269693,116237,1,0.85571,-0.05103,0.42261,1.336,2.206,0.137
2026-05-21 17:48:50.237,1269269693,116237,2,0.8999,0.08521,0.62158,-0.237,6.664,0.389
2026-05-21 17:48:51.437,1269270893,116437,1,0.9165,-0.04321,0.44385,-9.824,-0.443,-4.931
2026-05-21 17:48:51.437,1269270893,116437,2,1.01367,0.01392,0.64331,-9.733,-4.45,0.969
2026-05-21 17:48:51.637,1269271093,116637,1,0.83447,-0.05859,0.42603,6.672,1.084,2.061
2026-05-21 17:48:51.637,1269271093,116637,2,0.92212,0.06934,0.6189,8.237,-0.565,-1.153
2026-05-21 17:48:51.837,1269271293,116837,1,0.91772,-0.03491,0.42651,-5.198,-0.885,-1.206
2026-05-21 17:48:51.837,1269271293,116837,2,0.92676,0.06201,0.63281,-7.42,3.809,3.214
2026-05-21 17:48:51.037,1269270493,117037,1,0.87256,-0.07446,0.44653,-4.153,-1.084,0.084
2026-05-21 17:48:51.037,1269270493,117037,2,0.97974,0.05933,0.62354,-5.595,-10.702,1.336
2026-05-21 17:48:51.237,1269270693,117237,1,0.85059,-0.06665,0.39771,1.511,-0.565,4.29
2026-05-21 17:48:51.237,1269270693,117237,2,0.9104,0.08691,0.61816,8.588,8.58,3.527
2026-05-21 17:48:52.437,1269271893,117437,1,0.90845,-0.06104,0.43042,-3.992,-0.511,-0.557
2026-05-21 17:48:52.437,1269271893,117437,2,0.97632,0.03101,0.61743,0.038,2.397,2.191
2026-05-21 17:48:52.637,1269272093,117637,1,0.86621,-0.06616,0.40454,-1.252,1.015,2.863
2026-05-21 17:48:52.637,1269272093,117637,2,0.93994,0.07471,0.61206,1.076,2.679,0.87
2026-05-21 17:48:52.837,1269272293,117837,1,0.90308,-0.06714,0.41626,-2.595,0.183,-0.893
2026-05-21 17:48:52.837,1269272293,117837,2,0.95215,0.03662,0.62207,0.183,0.366,1.931
2026-05-21 17:48:52.037,1269271493,118037,1,0.88574,-0.05957,0.42749,-3.084,0.74,0.374
2026-05-21 17:48:52.037,1269271493,118037,2,0.96802,0.06689,0.60205,-5.977,-5.679,1.122
2026-05-21 17:48:52.237,1269271693,118237,1,0.88062,-0.08643,0.40454,1.405,-0.626,0.733
2026-05-21 17:48:52.237,1269271693,118237,2,0.92334,0.06958,0.61768,1.756,4.244,2.611
2026-05-21 17:48:53.437,1269272893,118437,1,0.91699,-0.06567,0.41528,-4.305,0.221,-2.076
2026-05-21 17:48:53.437,1269272893,118437,2,0.96191,0.04468,0.6062,-7.221,2.412,1.656
2026-05-21 17:48:53.637,1269273093,118637,1,0.89038,-0.06641,0.40381,-2.137,-0.328,0.985
2026-05-21 17:48:53.637,1269273093,118637,2,0.95996,0.0564,0.60571,-1.473,2.771,1.565
2026-05-21 17:48:53.837,1269273293,118837,1,0.88574,-0.07959,0.41357,0.985,1.748,-0.244
2026-05-21 17:48:53.837,1269273293,118837,2,0.94141,0.04858,0.6084,1.595,2.779,1.122
2026-05-21 17:48:53.037,1269272493,119037,1,0.89478,-0.05786,0.41919,-0.252,1.275,-0.145
2026-05-21 17:48:53.037,1269272493,119037,2,0.94604,0.05249,0.61328,1.351,3.176,1.649
2026-05-21 17:48:53.237,1269272693,119237,1,0.88379,-0.06299,0.39673,-3.443,0.992,0.977
2026-05-21 17:48:53.237,1269272693,119237,2,0.96143,0.05371,0.59668,-0.733,0.847,1.893
2026-05-21 17:48:54.437,1269273893,119437,1,0.88794,-0.07129,0.41895,-2.229,0.191,-0.489
2026-05-21 17:48:54.437,1269273893,119437,2,0.96191,0.03833,0.60864,0.473,1.435,1.252
2026-05-21 17:48:54.637,1269274093,119637,1,0.89087,-0.0686,0.4187,-4.099,1.13,-0.031
2026-05-21 17:48:54.637,1269274093,119637,2,0.95557,0.05273,0.61694,-1.786,0.366,1.374
2026-05-21 17:48:54.837,1269274293,119837,1,0.89063,-0.07422,0.41919,-3.397,-0.069,-0.901
2026-05-21 17:48:54.837,1269274293,119837,2,0.95142,0.04102,0.61206,-0.496,0.58,1.779
2026-05-21 17:48:54.037,1269273493,120037,1,0.88379,-0.06567,0.41309,-1.282,-0.511,-0.534
2026-05-21 17:48:54.037,1269273493,120037,2,0.94849,0.0459,0.61743,-0.366,0.824,1.145
2026-05-21 17:48:54.237,1269273693,120237,1,0.88794,-0.06714,0.41553,-3.557,0.687,-0.931
2026-05-21 17:48:54.237,1269273693,120237,2,0.95679,0.04517,0.61548,-2.13,-0.183,1.244
2026-05-21 17:48:55.437,1269274893,120437,1,0.88843,-0.06494,0.41846,-0.13,1.328,-0.359
2026-05-21 17:48:55.437,1269274893,120437,2,0.9624,0.04102,0.60303,-1.214,1.863,0.595
2026-05-21 17:48:55.637,1269275093,120637,1,0.89551,-0.06348,0.41333,-1.656,-0.55,0.298
2026-05-21 17:48:55.637,1269275093,120637,2,0.95337,0.04956,0.61279,-1.977,1.046,0.802
2026-05-21 17:48:55.837,1269275293,120837,1,0.90088,-0.06787,0.41431,0.511,1.084,0.702
2026-05-21 17:48:55.837,1269275293,120837,2,0.95166,0.04956,0.58765,1.183,4.771,0.702
2026-05-21 17:48:55.037,1269274493,121037,1,0.95898,-0.08545,0.44653,8.298,-21.038,5.244
2026-05-21 17:48:55.037,1269274493,121037,2,0.97754,0.02563,0.56543,6.336,-5.115,-0.687
2026-05-21 17:48:55.237,1269274693,121237,1,0.9187,-0.03955,0.30493,14.565,-19.641,6.084
2026-05-21 17:48:55.237,1269274693,121237,2,1.00732,0.10425,0.56445,21.664,-3.809,1.26
2026-05-21 17:48:56.437,1269275893,121437,1,0.90601,-0.01318,0.31348,-4.298,-1.374,-3.71
2026-05-21 17:48:56.437,1269275893,121437,2,0.95142,0.08618,0.56836,-7.13,8.053,0.298
2026-05-21 17:48:56.637,1269276093,121637,1,0.93677,-0.03516,0.36035,-3.26,5.481,-2.229
2026-05-21 17:48:56.637,1269276093,121637,2,0.93994,0.05542,0.56494,-3.519,2.527,1.13
2026-05-21 17:48:56.837,1269276293,121837,1,0.92554,-0.01343,0.34521,2.84,-2.298,1.336
2026-05-21 17:48:56.837,1269276293,121837,2,0.96436,0.08716,0.59253,-3.634,-0.527,2.878
2026-05-21 17:48:56.037,1269275493,122037,1,0.96362,-0.0144,0.35156,-8.221,-3.107,0.298
2026-05-21 17:48:56.037,1269275493,122037,2,0.9585,0.08984,0.5354,-2.489,-0.412,8.931
2026-05-21 17:48:56.237,1269275693,122237,1,0.94458,-0.03735,0.30469,-8.55,-2.771,-10.122
2026-05-21 17:48:56.237,1269275693,122237,2,0.95923,0.01709,0.57251,-10.053,-2.313,-0.076
2026-05-21 17:48:57.437,1269276893,122437,1,0.95728,-0.02295,0.31714,21.725,1.366,8.328
2026-05-21 17:48:57.437,1269276893,122437,2,0.96338,0.08765,0.54663,19.908,12.092,1.679
2026-05-21 17:48:57.637,1269277093,122637,1,0.94043,-0.0144,0.33105,-12.695,0.076,0.87
2026-05-21 17:48:57.637,1269277093,122637,2,0.96704,0.05151,0.5625,-8.206,-2.168,2.802
2026-05-21 17:48:57.837,1269277293,122837,1,0.93213,-0.03345,0.3186,-1.992,0.58,1.679
2026-05-21 17:48:57.837,1269277293,122837,2,0.95264,0.03906,0.54834,-1.481,-0.725,3.16
2026-05-21 17:48:57.037,1269276493,123037,1,0.95581,-0.04175,0.31079,-2.718,0.893,-0.908
2026-05-21 17:48:57.037,1269276493,123037,2,0.96143,0.05664,0.5791,-1.664,1.107,1.565
2026-05-21 17:48:57.237,1269276693,123237,1,0.94019,-0.03467,0.33984,-0.649,3.519,-1.176
2026-05-21 17:48:57.237,1269276693,123237,2,0.95898,0.0354,0.56055,-0.847,1.908,-0.908
2026-05-21 17:48:58.437,1269277893,123437,1,0.93677,-0.01538,0.31445,-4.71,3.473,0.481
2026-05-21 17:48:58.437,1269277893,123437,2,0.9502,0.06567,0.56299,-1.412,2.321,-0.824
2026-05-21 17:48:58.637,1269278093,123637,1,0.93726,-0.03662,0.34277,-1.634,-0.588,0.008
2026-05-21 17:48:58.637,1269278093,123637,2,0.97339,0.0752,0.552,3.809,1.71,-0.046
2026-05-21 17:48:58.837,1269278293,123837,1,0.93433,-0.02441,0.3208,-1.611,-1.588,-0.725
2026-05-21 17:48:58.837,1269278293,123837,2,0.96118,0.07178,0.56934,0.931,0.962,0.855
2026-05-21 17:48:58.037,1269277493,124037,1,0.94092,-0.01025,0.32471,-2.45,1.42,-1.214
2026-05-21 17:48:58.037,1269277493,124037,2,0.96606,0.08203,0.54199,-2.053,2.153,1.924
2026-05-21 17:48:58.237,1269277693,124237,1,0.95044,-0.01294,0.33789,0.145,0.824,-0.588
2026-05-21 17:48:58.237,1269277693,124237,2,0.96802,0.06128,0.5686,2.099,4.122,2.466
2026-05-21 17:48:59.437,1269278893,124437,1,0.95581,-0.01709,0.33325,-1.954,-2.893,1.443
2026-05-21 17:48:59.437,1269278893,124437,2,1.00024,0.02295,0.4375,2.748,2.733,4.893
2026-05-21 17:48:59.637,1269279093,124637,1,0.99048,-0.05103,0.21851,-0.557,-31.802,8.992
2026-05-21 17:48:59.637,1269279093,124637,2,0.90283,0.02075,0.47388,-18.374,-12.725,-3.244
2026-05-21 17:48:59.837,1269279293,124837,1,1.23486,-0.03906,0.20044,33.176,15.595,20.321
2026-05-21 17:48:59.837,1269279293,124837,2,0.90381,0.12842,0.50757,25.832,7.069,5.664
2026-05-21 17:48:59.037,1269278493,125037,1,1.04639,0.01099,0.04492,-10.832,8.275,-10.099
2026-05-21 17:48:59.037,1269278493,125037,2,0.83325,0.24487,0.62183,-39.817,39.229,3.084
2026-05-21 17:48:59.237,1269278693,125237,1,0.9436,-0.04102,0.36353,-35.443,13.321,-18.13
2026-05-21 17:48:59.237,1269278693,125237,2,0.97388,-0.02148,0.604,-36.534,3.244,-2.779
2026-05-21 17:49:00.437,1269279893,125437,1,0.94507,-0.09253,0.35767,-16.519,-4.237,-1.718
2026-05-21 17:49:00.437,1269279893,125437,2,0.9751,0.02905,0.64209,7.504,-2.061,2.046
2026-05-21 17:49:00.637,1269280093,125637,1,0.92236,0.00488,0.28931,18.901,-10.725,5.275
2026-05-21 17:49:00.637,1269280093,125637,2,0.95703,0.06738,0.61621,-5.771,-6.328,1.969
2026-05-21 17:49:00.837,1269280293,125837,1,0.94409,-0.03857,0.29614,-10.58,0.603,1.511
2026-05-21 17:49:00.837,1269280293,125837,2,0.9082,0.0354,0.54565,-9.595,-5.458,-3.008
2026-05-21 17:49:00.037,1269279493,126037,1,0.99463,-0.06274,0.23975,10.641,-17.282,-1.053
2026-05-21 17:49:00.037,1269279493,126037,2,1.0144,-0.02393,0.49634,11.489,-14.977,-2.916
2026-05-21 17:49:00.237,1269279693,126237,1,1.02319,-0.01245,0.21362,16.168,2.244,8.557
2026-05-21 17:49:00.237,1269279693,126237,2,0.9895,0.13452,0.51343,13.511,7.29,-0.473
2026-05-21 17:49:01.437,1269280893,126437,1,0.98535,-0.02295,0.25024,-20.137,,-5.748
2026-05-21 17:49:01.437,1269280893,126437,2,0.99243,0.01953,0.54297,-15.26,-7.137,3.611
2026-05-21 17:49:01.637,1269281093,126637,1,1.02393,-0.02612,0.19507,0.321,-2.985,0.794
2026-05-21 17:49:01.637,1269281093,126637,2,0.99316,0.06982,0.50537,-1.702,4.534,1.855
2026-05-21 17:49:01.837,1269281293,126837,1,0.98096,-0.01245,0.22534,-7.573,1.496,-1.412
2026-05-21 17:49:01.837,1269281293,126837,2,0.9624,0.06885,0.51001,-1.29,0.145,4.023
2026-05-21 17:49:01.037,1269280493,127037,1,0.98633,-0.0625,0.20825,3.893,-2.221,9.366
2026-05-21 17:49:01.037,1269280493,127037,2,0.94873,0.03564,0.54663,9.466,1.504,2.206
2026-05-21 17:49:01.237,1269280693,127237,1,1.03223,-0.07178,0.20654,-8.901,4.305,-1.198
2026-05-21 17:49:01.237,1269280693,127237,2,0.97266,0.03369,0.50684,-2.115,0.931,1.427
2026-05-21 17:49:02.437,1269281893,127437,1,1.01367,-0.05493,0.20703,-4.427,-2.168,-0.573
2026-05-21 17:49:02.437,1269281893,127437,2,0.97998,0.0415,0.51953,-10.122,1.939,3.893
2026-05-21 17:49:02.637,1269282093,127637,1,1.01489,-0.07153,0.20386,-1.481,2.206,-2.893
2026-05-21 17:49:02.637,1269282093,127637,2,0.96045,0.03857,0.52393,4.527,4.107,-1.542
2026-05-21 17:49:02.837,1269282293,127837,1,1.0083,-0.01978,0.21362,-3.336,3.618,-5.458
2026-05-21 17:49:02.837,1269282293,127837,2,0.9646,0.05884,0.52881,-1.733,5.008,-2.389
2026-05-21 17:49:02.037,1269281493,128037,1,0.9978,-0.01294,0.21851,-5.198,1.359,-5.763
2026-05-21 17:49:02.037,1269281493,128037,2,0.96729,0.05249,0.55103,-1.977,3.771,-1.481
2026-05-21 17:49:02.237,1269281693,128237,1,1.00342,-0.00537,0.24146,0.527,0.748,-2.229
2026-05-21 17:49:02.237,1269281693,128237,2,0.95752,0.06348,0.55884,0.214,2.031,-2.687
2026-05-21 17:49:03.437,1269282893,128437,1,0.9978,0.02539,0.23413,-0.153,0.45,1.412
2026-05-21 17:49:03.437,1269282893,128437,2,0.95703,0.08496,0.54126,0.908,3.435,1.84
2026-05-21 17:49:03.637,1269283093,128637,1,0.99243,0.01245,0.2334,-3.237,0.153,1.817
2026-05-21 17:49:03.637,1269283093,128637,2,0.95972,0.08374,0.56152,0.031,1.176,3.42
2026-05-21 17:49:03.837,1269283293,128837,1,0.98755,0.0083,0.22949,-8.885,2.069,4.076
2026-05-21 17:49:03.837,1269283293,128837,2,0.96289,0.06152,0.54639,-0.84,0.305,6.107
2026-05-21 17:49:03.037,1269282493,129037,1,0.98804,-0.02051,0.2417,-1.672,-1.16,4.061
2026-05-21 17:49:03.037,1269282493,129037,2,0.96313,0.04663,0.54077,-2.13,0.321,7.221
2026-05-21 17:49:03.237,1269282693,129237,1,1.00952,-0.03906,0.23047,-3.992,1.786,3.679
2026-05-21 17:49:03.237,1269282693,129237,2,0.9646,0.02173,0.54419,1.313,0.893,9.038
2026-05-21 17:49:04.437,1269283893,129437,1,0.99756,-0.07153,0.22314,-3.328,0.351,3.58
2026-05-21 17:49:04.437,1269283893,129437,2,0.97144,-0.00464,0.55713,-1.534,0.481,5.443
2026-05-21 17:49:04.637,1269284093,129637,1,0.97778,-0.06982,0.25024,-6.954,2.901,1.344
2026-05-21 17:49:04.637,1269284093,129637,2,0.94946,-0.02295,0.54639,-4.336,-0.977,5.214
2026-05-21 17:49:04.837,1269284293,129837,1,0.9917,-0.09424,0.22974,-0.519,-0.183,1.405
2026-05-21 17:49:04.837,1269284293,129837,2,0.95874,-0.02124,0.5437,-1.672,0.924,-0.359
2026-05-21 17:49:04.037,1269283493,130037,1,0.99121,-0.08276,0.23755,1.481,-1.206,-1.122
2026-05-21 17:49:04.037,1269283493,130037,2,0.96704,-0.00952,0.53467,1.58,0.412,-2.656
2026-05-21 17:49:04.237,1269283693,130237,1,0.99707,-0.06812,0.229,-1.649,-0.321,-3.511
2026-05-21 17:49:04.237,1269283693,130237,2,0.96094,0.00732,0.53491,-0.275,1.779,-2.641
2026-05-21 17:49:05.437,1269284893,130437,1,1.00195,-0.04883,0.22583,-1.198,0.84,-3.405
2026-05-21 17:49:05.437,1269284893,130437,2,0.97168,0.01343,0.54028,-1.313,1.061,-2.168
2026-05-21 17:49:05.637,1269285093,130637,1,1.00024,-0.0415,0.23364,-0.985,0.519,-2.603
2026-05-21 17:49:05.637,1269285093,130637,2,0.96631,0.0249,0.53271,-1.656,1.985,-1.542
2026-05-21 17:49:05.837,1269285293,130837,1,0.9939,-0.03125,0.23364,-2.275,0.298,-1.863
2026-05-21 17:49:05.837,1269285293,130837,2,0.96338,0.0293,0.53491,-1.817,0.45,-0.58
2026-05-21 17:49:05.037,1269284493,131037,1,0.99585,-0.02417,0.22852,-0.267,0.443,-0.893
2026-05-21 17:49:05.037,1269284493,131037,2,0.9624,0.04712,0.54028,-0.389,1.977,-0.824
2026-05-21 17:49:05.237,1269284693,131237,1,0.98438,-0.02222,0.22437,-1.924,2.366,-0.779
2026-05-21 17:49:05.237,1269284693,131237,2,0.94702,0.05615,0.54175,-0.695,3.611,-1.099
2026-05-21 17:49:06.437,1269285893,131437,1,0.99243,-0.01392,0.24121,-1.542,-0.26,0.305
2026-05-21 17:49:06.437,1269285893,131437,2,0.95557,0.05176,0.54443,-0.893,1.405,0.733
2026-05-21 17:49:06.637,1269286093,131637,1,0.99658,-0.01392,0.23193,-1.687,0.824,0.901
2026-05-21 17:49:06.637,1269286093,131637,2,0.95654,0.06348,0.55249,-0.809,0.878,2.725
2026-05-21 17:49:06.837,1269286293,131837,1,0.98657,-0.01245,0.22314,-3.695,0.702,2.45
2026-05-21 17:49:06.837,1269286293,131837,2,0.96484,0.0481,0.54248,-1.099,2.374,7.229
2026-05-21 17:49:06.037,1269285493,132037,1,1.01343,-0.03442,0.2146,-5.45,1.527,4.107
2026-05-21 17:49:06.037,1269285493,132037,2,0.9585,0.00391,0.55737,-4.145,0.214,7.527
2026-05-21 17:49:06.237,1269285693,132237,1,0.98071,-0.05249,0.24976,1.412,1.336,5.931
2026-05-21 17:49:06.237,1269285693,132237,2,0.96533,0.00562,0.5708,1.29,1.511,9.695
2026-05-21 17:49:07.437,1269286893,132437,1,0.99414,-0.09814,0.26099,-4.29,2.489,4.725
2026-05-21 17:49:07.437,1269286893,132437,2,0.97363,-0.04224,0.54614,-0.466,3.458,4.382
2026-05-21 17:49:07.637,1269287093,132637,1,0.97827,-0.11768,0.26172,-4.298,1.405,3.832
2026-05-21 17:49:07.637,1269287093,132637,2,0.96777,-0.03979,0.55811,-0.412,0.191,3.916
2026-05-21 17:49:07.837,1269287293,132837,1,0.97632,-0.11865,0.24316,-1.176,1.092,-0.702
2026-05-21 17:49:07.837,1269287293,132837,2,0.96021,-0.05298,0.55835,-1.183,1.122,-0.328
2026-05-21 17:49:07.037,1269286493,133037,1,0.97925,-0.10742,0.26294,-2.168,0.183,-2.214
2026-05-21 17:49:07.037,1269286493,133037,2,0.95605,-0.04199,0.56055,-1.947,0.573,-3.511
2026-05-21 17:49:07.237,1269286693,133237,1,0.98682,-0.09082,0.25439,1.519,0.145,-3.412
2026-05-21 17:49:07.237,1269286693,133237,2,0.96631,-0.00854,0.52954,-2.412,-0.107,-6.282
2026-05-21 17:49:08.437,1269287893,133437,1,0.98242,-0.07715,0.25195,-0.939,-1.427,-5.336
2026-05-21 17:49:08.437,1269287893,133437,2,0.96411,0.02148,0.55103,-2.588,-0.511,-5.824
2026-05-21 17:49:08.637,1269288093,133637,1,0.98218,-0.05298,0.24951,1.458,-0.069,-6.191
2026-05-21 17:49:08.637,1269288093,133637,2,0.97021,0.05298,0.54492,0.069,0.573,-6.756
2026-05-21 17:49:08.837,1269288293,133837,1,0.98853,-0.0188,0.2439,1.519,-0.626,-4.962
2026-05-21 17:49:08.837,1269288293,133837,2,0.96021,0.06592,0.55078,2.405,1.145,-3.794
2026-05-21 17:49:08.037,1269287493,134037,1,0.99707,0.00659,0.25098,-0.176,-0.656,-1.809
2026-05-21 17:49:08.037,1269287493,134037,2,0.96094,0.09253,0.54785,-3.71,1.229,-1.626
2026-05-21 17:49:08.237,1269287693,134237,1,0.98169,-0.00415,0.25122,-1.427,-0.733,-0.695
2026-05-21 17:49:08.237,1269287693,134237,2,0.96265,0.10327,0.55371,2.298,0.985,-0.046
2026-05-21 17:49:09.437,1269288893,134437,1,0.98511,0.00513,0.24292,-3.679,1.198,-0.969
2026-05-21 17:49:09.437,1269288893,134437,2,0.96924,0.08252,0.54175,-1.336,-1.519,5.458
2026-05-21 17:49:09.637,1269289093,134637,1,1.0,-0.00317,0.23535,-2.718,-1.092,2.542
2026-05-21 17:49:09.637,1269289093,134637,2,0.96582,0.06885,0.54932,-0.183,-0.763,7.092
2026-05-21 17:49:09.837,1269289293,134837,1,1.00171,-0.02417,0.23267,-2.45,-4.374,4.519
2026-05-21 17:49:09.837,1269289293,134837,2,0.98438,0.04248,0.52954,-1.565,-1.206,6.885
2026-05-21 17:49:09.037,1269288493,135037,1,1.00879,-0.04346,0.22559,0.099,-4.351,3.626
2026-05-21 17:49:09.037,1269288493,135037,2,0.97021,0.02563,0.53223,2.214,1.527,6.588
2026-05-21 17:49:09.237,1269288693,135237,1,1.00342,-0.05542,0.22388,-2.466,0.74,2.863
2026-05-21 17:49:09.237,1269288693,135237,2,0.97339,0.00903,0.52637,-1.031,2.71,3.176
2026-05-21 17:49:10.437,1269289893,135437,1,0.99414,-0.06299,0.21509,-3.176,-0.718,1.885
2026-05-21 17:49:10.437,1269289893,135437,2,0.97363,0.01685,0.52734,-0.336,0.748,3.137
2026-05-21 17:49:10.637,1269290093,135637,1,0.99072,-0.06909,0.22021,-2.908,0.679,0.405
2026-05-21 17:49:10.637,1269290093,135637,2,0.96533,0.0083,0.52637,-1.931,1.115,1.046
2026-05-21 17:49:10.837,1269290293,135837,1,0.99829,-0.07056,0.21655,-0.244,-0.107,0.45
2026-05-21 17:49:10.837,1269290293,135837,2,0.96777,0.00488,0.52197,-1.466,0.901,0.26
2026-05-21 17:49:10.037,1269289493,136037,1,0.99634,-0.07129,0.21729,-2.443,0.153,-1.595
2026-05-21 17:49:10.037,1269289493,136037,2,0.96997,0.00928,0.52271,-0.71,0.038,-0.969
2026-05-21 17:49:10.237,1269289693,136237,1,1.0061,-0.05884,0.21484,-1.137,0.023,-3.092
2026-05-21 17:49:10.237,1269289693,136237,2,0.96509,0.02515,0.52417,-1.664,0.458,-1.618
2026-05-21 17:49:11.437,1269290893,136437,1,1.00049,-0.04419,0.2168,-1.344,0.183,-1.015
2026-05-21 17:49:11.437,1269290893,136437,2,0.9668,0.03076,0.51514,-1.168,0.542,-1.183
2026-05-21 17:49:11.637,1269291093,136637,1,1.01001,-0.04175,0.19238,2.901,2.176,-0.282
2026-05-21 17:49:11.637,1269291093,136637,2,0.95923,0.04736,0.68848,2.412,0.053,-3.702
2026-05-21 17:49:11.837,1269291293,136837,1,0.84644,-0.01978,0.3042,25.855,79.099,-5.107
2026-05-21 17:49:11.837,1269291293,136837,2,0.98975,0.09033,0.51196,5.779,82.305,-9.733
2026-05-21 17:49:11.037,1269290493,137037,1,0.87573,0.04663,0.52808,-4.458,22.069,-10.931
2026-05-21 17:49:11.037,1269290493,137037,2,0.89331,0.11523,0.58521,-4.0,-0.71,6.107
2026-05-21 17:49:11.237,1269290693,137237,1,0.8833,0.03589,0.49316,-13.313,-6.618,-9.733
2026-05-21 17:49:11.237,1269290693,137237,2,0.99341,0.14917,0.72778,-6.649,-6.794,3.718
2026-05-21 17:49:12.437,1269291893,137437,1,0.79346,0.00195,0.50293,-8.328,9.527,-6.076
2026-05-21 17:49:12.437,1269291893,137437,2,0.89893,0.04761,0.71484,18.069,22.962,
2026-05-21 17:49:12.637,1269292093,137637,1,0.80151,0.04102,0.53516,-1.573,10.496,0.534
2026-05-21 17:49:12.637,1269292093,137637,2,0.90552,0.13281,0.74194,0.87,9.649,-0.885
2026-05-21 17:49:12.837,1269292293,137837,1,0.77515,0.05273,0.55762,-2.359,2.672,-1.038
2026-05-21 17:49:12.837,1269292293,137837,2,0.90796,0.11035,0.76758,-4.588,0.176,1.656
2026-05-21 17:49:12.037,1269291493,138037,1,0.77808,0.06641,0.5603,-0.191,4.038,1.084
2026-05-21 17:49:12.037,1269291493,138037,2,0.89014,0.11597,0.76416,-2.092,3.008,2.321
2026-05-21 17:49:12.237,1269291693,138237,1,0.75757,0.03613,0.55493,-3.237,4.084,0.176
2026-05-21 17:49:12.237,1269291693,138237,2,0.90894,0.09937,0.75171,-2.015,2.344,2.069
2026-05-21 17:49:13.437,1269292893,138437,1,0.75635,0.04419,0.57886,-0.794,-3.672,2.282
2026-05-21 17:49:13.437,1269292893,138437,2,0.91772,0.10596,0.75537,-1.893,-2.595,2.137
2026-05-21 17:49:13.637,1269293093,138637,1,0.771,0.04321,0.54712,-1.985,-0.366,1.168
2026-05-21 17:49:13.637,1269293093,138637,2,0.92505,0.07129,0.76172,-0.802,-1.977,0.893
2026-05-21 17:49:13.837,1269293293,138837,1,0.74512,0.00806,0.56616,11.137,-27.038,8.321
2026-05-21 17:49:13.837,1269293293,138837,2,0.927,0.12939,0.7373,15.489,-19.649,2.046
2026-05-21 17:49:13.037,1269292493,139037,1,0.86377,0.06641,0.46362,-2.511,1.061,13.649
2026-05-21 17:49:13.037,1269292493,139037,2,0.98999,0.17627,0.7085,-0.214,13.573,7.084
2026-05-21 17:49:13.237,1269292693,139237,1,0.698,0.00464,0.65112,-31.221,36.771,-8.977
2026-05-21 17:49:13.237,1269292693,139237,2,0.87402,0.10669,0.77759,-6.061,21.58,4.496
2026-05-21 17:49:14.437,1269293893,139437,1,0.70337,-0.03882,0.56519,-7.023,17.092,-3.763
2026-05-21 17:49:14.437,1269293893,139437,2,0.85645,0.10864,0.88086,0.16,30.481,3.901
2026-05-21 17:49:14.637,1269294093,139637,1,0.64771,0.02197,0.66895,1.038,10.198,-1.534
2026-05-21 17:49:14.637,1269294093,139637,2,0.81641,0.04126,0.83154,-5.939,5.756,7.954
2026-05-21 17:49:14.837,1269294293,139837,1,0.64624,-0.05908,0.6228,-13.214,-2.214,-3.58
2026-05-21 17:49:14.837,1269294293,139837,2,0.87134,0.04956,0.8606,3.855,2.45,2.206
2026-05-21 17:49:14.037,1269293493,140037,1,0.73315,-0.13306,0.63062,-4.305,-4.45,-2.305
2026-05-21 17:49:14.037,1269293493,140037,2,0.89331,-0.00317,0.83887,-2.137,-15.954,-2.733
2026-05-21 17:49:14.237,1269293693,140237,1,0.7146,-0.01855,0.62671,-4.42,8.916,1.176
2026-05-21 17:49:14.237,1269293693,140237,2,0.91406,0.04492,0.84399,-9.924,4.374,1.481
2026-05-21 17:49:15.437,1269294893,140437,1,0.69531,-0.02417,0.58228,-5.725,-12.527,-5.557
2026-05-21 17:49:15.437,1269294893,140437,2,0.91992,0.01709,0.87085,-10.336,-12.038,-0.504
2026-05-21 17:49:15.637,1269295093,140637,1,0.7124,0.01392,0.59473,5.229,-0.328,2.389
2026-05-21 17:49:15.637,1269295093,140637,2,0.88306,0.06738,0.8252,-7.931,5.901,2.092
2026-05-21 17:49:15.837,1269295293,140837,1,0.70947,-0.04126,0.5918,-3.58,2.427,-1.084
2026-05-21 17:49:15.837,1269295293,140837,2,0.88501,0.02881,0.82642,1.71,3.687,-0.336
2026-05-21 17:49:15.037,1269294493,141037,1,0.70972,-0.01831,0.60327,-0.328,0.733,-0.351
2026-05-21 17:49:15.037,1269294493,141037,2,0.87695,0.0415,0.84033,0.275,1.649,2.092
2026-05-21 17:49:15.237,1269294693,141237,1,0.7041,-0.02954,0.61523,-3.244,0.924,0.939
2026-05-21 17:49:15.237,1269294693,141237,2,0.88086,0.03076,0.83667,-0.863,1.718,2.656
2026-05-21 17:49:16.437,1269295893,141437,1,0.71631,-0.04614,0.61206,-2.45,-0.412,0.771
2026-05-21 17:49:16.437,1269295893,141437,2,0.88379,0.02222,0.84912,-0.557,0.702,1.267
2026-05-21 17:49:16.637,1269296093,141637,1,0.7085,-0.04443,0.61182,-2.0,0.534,-0.412
2026-05-21 17:49:16.637,1269296093,141637,2,0.88818,0.03174,0.84058,-1.137,0.366,0.626
2026-05-21 17:49:16.837,1269296293,141837,1,0.71436,-0.03467,0.61182,-0.924,0.832,-0.137
2026-05-21 17:49:16.837,1269296293,141837,2,0.88696,0.03076,0.8335,-0.656,1.771,1.252
2026-05-21 17:49:16.037,1269295493,142037,1,0.7085,-0.02686,0.61255,-3.191,1.237,0.542
2026-05-21 17:49:16.037,1269295493,142037,2,0.88745,0.02905,0.84131,-1.29,1.397,2.053
2026-05-21 17:49:16.237,1269295693,142237,1,0.71436,-0.03589,0.61206,-2.824,-1.191,-1.092
2026-05-21 17:49:16.237,1269295693,142237,2,0.88306,0.00342,0.83618,-2.71,1.763,0.954
2026-05-21 17:49:17.437,1269296893,142437,1,0.71899,-0.03613,0.60376,-2.939,-0.374,-0.656
2026-05-21 17:49:17.437,1269296893,142437,2,0.87842,0.01978,0.8501,-0.84,1.695,1.878
2026-05-21 17:49:17.637,1269297093,142637,1,0.70459,-0.03491,0.62012,-1.206,2.412,0.191
2026-05-21 17:49:17.637,1269297093,142637,2,0.88574,0.03052,0.83203,-1.504,0.084,1.87
2026-05-21 17:49:17.837,1269297293,142837,1,0.71411,-0.04858,0.59692,-2.824,-0.748,0.053
2026-05-21 17:49:17.837,1269297293,142837,2,0.87793,0.02661,0.84473,-0.565,1.481,1.298
2026-05-21 17:49:17.037,1269296493,143037,1,0.71509,-0.04004,0.61572,-1.137,2.489,-0.542
2026-05-21 17:49:17.037,1269296493,143037,2,0.86426,0.02612,0.8374,-2.191,1.992,0.389
2026-05-21 17:49:17.237,1269296693,143237,1,0.70288,-0.02905,0.6084,-1.176,-0.58,-0.084
2026-05-21 17:49:17.237,1269296693,143237,2,0.87671,0.0293,0.84766,0.023,1.702,1.214
2026-05-21 17:49:18.437,1269297893,143437,1,0.70972,-0.0271,0.62207,-3.023,0.458,-0.092
2026-05-21 17:49:18.437,1269297893,143437,2,0.87891,0.03027,0.8457,-1.382,1.313,1.718
2026-05-21 17:49:18.637,1269298093,143637,1,0.7063,-0.03003,0.61938,-3.29,-0.176,0.053
2026-05-21 17:49:18.637,1269298093,143637,2,0.88037,0.02563,0.84229,-2.481,0.542,2.481
2026-05-21 17:49:18.837,1269298293,143837,1,0.71484,-0.03711,0.59644,-1.763,0.206,1.145
2026-05-21 17:49:18.837,1269298293,143837,2,0.89331,0.01855,0.84229,0.053,2.13,2.412
2026-05-21 17:49:18.037,1269297493,144037,1,0.69971,-0.04272,0.60693,-1.382,-1.275,-0.542
2026-05-21 17:49:18.037,1269297493,144037,2,0.87793,0.01514,0.84644,-1.328,0.397,1.855
2026-05-21 17:49:18.237,1269297693,144237,1,0.71167,-0.04761,0.61206,-2.229,0.725,0.321
2026-05-21 17:49:18.237,1269297693,144237,2,0.87817,0.01563,0.83936,0.542,1.992,1.305
2026-05-21 17:49:19.437,1269298893,144437,1,0.7085,-0.0332,0.60156,-1.908,0.618,-1.115
2026-05-21 17:49:19.437,1269298893,144437,2,0.87964,0.01831,0.84277,-2.069,-0.176,0.847
2026-05-21 17:49:19.637,1269299093,144637,1,0.71704,-0.04199,0.62915,1.237,-2.435,0.168
2026-05-21 17:49:19.637,1269299093,144637,2,0.87476,0.02954,0.83765,-0.198,0.924,0.313
2026-05-21 17:49:19.837,1269299293,144837,1,0.72192,-0.02588,0.60107,-4.092,-2.565,-0.092
2026-05-21 17:49:19.837,1269299293,144837,2,0.8833,0.02002,0.84399,-1.756,-0.626,1.45
2026-05-21 17:49:19.037,1269298493,145037,1,0.72192,-0.03882,0.61206,-0.008,-1.229,-0.87
2026-05-21 17:49:19.037,1269298493,145037,2,0.88135,0.02466,0.82764,-1.214,-0.931,0.183
2026-05-21 17:49:19.237,1269298693,145237,1,0.72314,-0.03638,0.6001,-3.412,-0.069,1.458
2026-05-21 17:49:19.237,1269298693,145237,2,0.88599,0.03076,0.8313,-0.573,2.183,1.84
2026-05-21 17:49:20.437,1269299893,145437,1,0.72119,-0.03247,0.60913,-1.595,-0.405,-0.069
2026-05-21 17:49:20.437,1269299893,145437,2,0.88794,0.01685,0.83252,-1.458,-0.565,2.015
2026-05-21 17:49:20.637,1269300093,145637,1,0.72192,-0.04541,0.59399,-1.351,0.969,0.74
2026-05-21 17:49:20.637,1269300093,145637,2,0.88623,0.01587,0.84009,-1.191,2.382,1.466
